FILE_INFO
ListSeparator=,
DecimalSeparator=.

SESSION_INFO
TimeZone,UTC
TimeZoneOffset,0
DateTimeFormat,nnnnnnnnnnnnnnnnnnn
StartTime,01/01/70 00:00:00.000000000
TimeFormat,Unix

DEVICE_INFO
Address,*

CHANNEL_INFO
Channel,Type,SampleRate,Equation,Coefficients,Unit,UnitSymbol,WhereApplied,WhenApplied
inertial-6286.188861:estAngularRateX,Timeseries,100Hz,,,,,,
inertial-6286.188861:estAngularRateX:valid,ValidFlag,100Hz,,,,,,
inertial-6286.188861:estAngularRateY,Timeseries,100Hz,,,,,,
inertial-6286.188861:estAngularRateY:valid,ValidFlag,100Hz,,,,,,
inertial-6286.188861:estAngularRateZ,Timeseries,100Hz,,,,,,
inertial-6286.188861:estAngularRateZ:valid,ValidFlag,100Hz,,,,,,
inertial-6286.188861:estLinearAccelX,Timeseries,100Hz,,,,,,
inertial-6286.188861:estLinearAccelX:valid,ValidFlag,100Hz,,,,,,
inertial-6286.188861:estLinearAccelY,Timeseries,100Hz,,,,,,
inertial-6286.188861:estLinearAccelY:valid,ValidFlag,100Hz,,,,,,
inertial-6286.188861:estLinearAccelZ,Timeseries,100Hz,,,,,,
inertial-6286.188861:estLinearAccelZ:valid,ValidFlag,100Hz,,,,,,

DATA_START
Time,inertial-6286.188861:estAngularRateX,inertial-6286.188861:estAngularRateX:valid,inertial-6286.188861:estAngularRateY,inertial-6286.188861:estAngularRateY:valid,inertial-6286.188861:estAngularRateZ,inertial-6286.188861:estAngularRateZ:valid,inertial-6286.188861:estLinearAccelX,inertial-6286.188861:estLinearAccelX:valid,inertial-6286.188861:estLinearAccelY,inertial-6286.188861:estLinearAccelY:valid,inertial-6286.188861:estLinearAccelZ,inertial-6286.188861:estLinearAccelZ:valid
1771621840762115584,0.009769393131136894,1,4.118039214517921e-05,1,0.07593462616205215,1,0.02418544702231884,1,0.1203212961554527,1,0.01261144876480103,1
1771621840771545344,0.007350943051278591,1,0.00178809545468539,1,0.09207116067409515,1,0.01334461569786072,1,0.06325902044773102,1,0.06251142919063568,1
1771621840781025792,0.002758800750598311,1,0.000502027862239629,1,0.07775568962097168,1,-0.009154596365988255,1,0.01994124241173267,1,0.06325890123844147,1
1771621840791686400,-0.002165910555049777,1,-0.0004512317827902734,1,0.0811174139380455,1,0.0001293154200538993,1,-0.03112084977328777,1,0.04863275587558746,1
1771621840802241280,-0.01653259061276913,1,1.445504040020751e-05,1,0.1002145558595657,1,0.05141808837652206,1,0.1098605766892433,1,0.02844688110053539,1
1771621840812692992,-0.000950588088016957,1,0.001095627318136394,1,0.11060631275177,1,-0.002810809062793851,1,0.006468879990279675,1,0.03926829248666763,1
1771621840823043328,-0.0005815458716824651,1,0.002348129171878099,1,0.1237568408250809,1,0.03181109204888344,1,0.08200467377901077,1,0.04326668381690979,1
1771621840833291008,0.001497593126259744,1,0.0002858538646250963,1,0.1318531930446625,1,-0.002011419972404838,1,0.04198299720883369,1,0.02064872160553932,1
1771621840843437312,0.003232040908187628,1,0.0001121102759498172,1,0.1239661350846291,1,0.03134856373071671,1,0.09014014899730682,1,0.009589198976755142,1
1771621840853484800,0.01798858679831028,1,0.001914149965159595,1,0.115986630320549,1,-0.002297363942489028,1,0.01738898083567619,1,0.01914231106638908,1
1771621840863431936,0.0295092836022377,1,-5.918405440752394e-05,1,0.08810805529356003,1,-0.0578029565513134,1,-0.02449736557900906,1,-0.001538693904876709,1
1771621840873281536,0.04606294259428978,1,0.0004056170582771301,1,0.05228789895772934,1,-0.08987829834222794,1,-0.07473811507225037,1,-0.01847958192229271,1
1771621840883034368,0.05769055336713791,1,-0.0008487420273013413,1,0.009914597496390343,1,-0.0684235692024231,1,-0.09497386962175369,1,0.04322189465165138,1
1771621840892690432,0.04678582400083542,1,-2.223715091531631e-05,1,-0.0004650919872801751,1,0.009121371433138847,1,-0.01660393364727497,1,0.08682209998369217,1
1771621840902256896,0.01890010759234428,1,0.0001203033825731836,1,0.0001341826573479921,1,0.009669054299592972,1,-0.07085273414850235,1,0.1432570964097977,1
1771621840911728896,-0.02816509082913399,1,0.001715492340736091,1,-0.0001409251417499036,1,-0.00832066684961319,1,-0.1019137352705002,1,0.1484685391187668,1
1771621840921106688,-0.07787425816059113,1,-0.0009500965825282037,1,-0.003838291391730309,1,-0.03355726599693298,1,-0.09490621834993362,1,0.1713851690292358,1
1771621840931256064,-0.1372611820697784,1,-0.003300859592854977,1,-0.0380050390958786,1,-0.1637976169586182,1,0.1042576283216476,1,0.0963444709777832,1
1771621840941879040,-0.009913846850395203,1,0.004222435411065817,1,-0.01478423364460468,1,-0.09987273067235947,1,0.3444370627403259,1,-0.1652092933654785,1
1771621840952398592,-0.1035449504852295,1,0.04649388790130615,1,-0.06190259754657745,1,-0.4253076016902924,1,-0.07128868252038956,1,0.1070886701345444,1
1771621840962814464,-0.1684918105602264,1,0.07270599156618118,1,-0.06996448338031769,1,-0.06751924753189087,1,-0.2391605973243713,1,0.07418780028820038,1
1771621840973131264,-0.03958981484174728,1,0.01183507591485977,1,-0.03642404824495316,1,0.6843854188919067,1,0.399275153875351,1,0.109250120818615,1
1771621840983345664,-0.006276108790189028,1,0.001283470774069428,1,-0.02388870529830456,1,-0.05979819968342781,1,0.08328921347856522,1,0.03459898754954338,1
1771621840993459200,-0.09524683654308319,1,0.003519583959132433,1,-0.05221144482493401,1,-0.01703028753399849,1,-0.1927465945482254,1,-0.1013471186161041,1
1771621841003473408,-0.06629908084869385,1,0.002101533114910126,1,-0.03885483369231224,1,0.1249255612492561,1,0.07000555843114853,1,0.1326225697994232,1
1771621841013387520,-0.08376982808113098,1,0.001253763795830309,1,-0.01664409786462784,1,0.04446255415678024,1,-0.1906671673059464,1,-0.1114528924226761,1
1771621841023205120,-0.1930104643106461,1,0.002458860166370869,1,-0.0372602604329586,1,-0.1031210944056511,1,-0.1377595514059067,1,-0.1646919101476669,1
1771621841032925696,-0.1681523472070694,1,0.004747752565890551,1,-0.05495134368538857,1,0.07846643775701523,1,0.2616630494594574,1,0.2779743373394012,1
1771621841042550528,-0.06770666688680649,1,0.003162522567436099,1,-0.02179532125592232,1,0.05187270045280457,1,0.2408641427755356,1,0.215642899274826,1
1771621841052085760,0.004531077109277248,1,-0.0006001625442877412,1,-0.002105383668094873,1,0.02781235612928867,1,0.2163750231266022,1,0.185787171125412,1
1771621841061531648,0.0314062274992466,1,-0.00119459256529808,1,0.001997111365199089,1,-0.0005048223538324237,1,0.0128261037170887,1,0.02906954288482666,1
1771621841071027456,0.01805279403924942,1,-0.0005890657776035368,1,0.0007689471822232008,1,0.008055504411458969,1,-0.01193228363990784,1,0.0005567072657868266,1
1771621841081710592,0.005204322747886181,1,0.00078843958908692,1,-0.0003937500296160579,1,0.01528844051063061,1,0.01042485516518354,1,0.01668594218790531,1
1771621841092291328,-0.002001913962885737,1,-0.0007728046621195972,1,-0.0001663999719312415,1,0.01056952122598886,1,0.02096219919621944,1,0.03320649266242981,1
1771621841102767616,0.002555105136707425,1,-0.001854821806773543,1,0.0001167134760180488,1,0.0001102500609704293,1,0.05399326607584953,1,0.06709960848093033,1
1771621841113140736,0.01268482580780983,1,-1.155829431809252e-05,1,-0.00173207966145128,1,0.007820424623787403,1,0.03980744257569313,1,0.05058291554450989,1
1771621841123411456,0.02452881075441837,1,-0.001339833717793226,1,-0.05807031691074371,1,-0.02838915772736073,1,-0.191189631819725,1,0.00242370180785656,1
1771621841133582080,0.01194613892585039,1,-0.001511095673777163,1,-0.08630768954753876,1,0.1149314343929291,1,-0.03633731976151466,1,0.0403958261013031,1
1771621841143655424,0.000982424127869308,1,-0.0005823510582558811,1,-0.08683131635189056,1,0.04214105755090714,1,0.03642851486802101,1,0.06096974387764931,1
1771621841153629440,0.03779123350977898,1,-0.0004117570351809263,1,-0.1056509092450142,1,-0.0245712473988533,1,-0.01056457869708538,1,0.03883464634418488,1
1771621841163504640,0.00934230349957943,1,0.0004202892305329442,1,-0.1035037711262703,1,-0.03911435231566429,1,0.03857405111193657,1,0.02349579706788063,1
1771621841173283584,0.02459637075662613,1,-0.0005987923941574991,1,-0.127455934882164,1,-0.00532032223418355,1,0.0006770760519430041,1,0.02470295131206512,1
1771621841182965248,0.02788913995027542,1,0.0001152317781816237,1,-0.1542002409696579,1,0.01441857125610113,1,-0.03276058658957481,1,0.09750460088253021,1
1771621841192550912,0.0374477282166481,1,-0.001493740361183882,1,-0.2007914632558823,1,0.05944059789180756,1,-0.09996388852596283,1,0.03438873961567879,1
1771621841202043392,0.02434802800416946,1,-0.002906552748754621,1,-0.2486150413751602,1,0.03446976467967033,1,-0.1063497960567474,1,-0.006298477295786142,1
1771621841211443712,-0.002945802873000503,1,0.001213684561662376,1,-0.2456192821264267,1,-0.1221116706728935,1,0.06385764479637146,1,0.001661321613937616,1
1771621841221323264,-0.01691257394850254,1,0.001523406361229718,1,-0.2587497532367706,1,-0.09931973367929459,1,0.005377837456762791,1,0.01957677118480206,1
1771621841231960832,-0.04627212136983871,1,0.0008177377167157829,1,-0.2614427804946899,1,-0.04322768747806549,1,-0.02384381741285324,1,-0.01835429109632969,1
1771621841242493184,-0.06347173452377319,1,0.0009928190847858787,1,-0.2588738799095154,1,-0.005560251884162426,1,0.003007265506312251,1,0.007624476682394743,1
1771621841252923136,-0.07135038822889328,1,0.001770840608514845,1,-0.2464115768671036,1,0.0293539222329855,1,0.06699926406145096,1,0.04091925919055939,1
1771621841263251968,-0.08182594180107117,1,0.003607033984735608,1,-0.2293913215398788,1,0.1181244179606438,1,0.01296111661940813,1,0.01541099604219198,1
1771621841273478912,-0.09062997251749039,1,0.002374487230554223,1,-0.2163541316986084,1,0.09941956400871277,1,0.1192696094512939,1,0.04799611493945122,1
1771621841283606272,-0.08829692751169205,1,0.002400069264695048,1,-0.1513083428144455,1,-0.01485083345323801,1,0.2854080200195312,1,0.03232768923044205,1
1771621841293632000,-0.09332138299942017,1,0.002237410051748157,1,-0.1121826991438866,1,0.02468685619533062,1,0.06889551877975464,1,0.00572373578324914,1
1771621841303558144,-0.087822325527668,1,0.001465541310608387,1,-0.06428612023591995,1,-0.08492652326822281,1,0.2558703422546387,1,0.09641366451978683,1
1771621841313387776,-0.05984073504805565,1,-4.514355168794282e-05,1,-0.0248460303992033,1,-0.05056055635213852,1,0.1848855018615723,1,0.08131923526525497,1
1771621841323119616,-0.0397297665476799,1,0.0004075237084180117,1,-0.01894533634185791,1,0.01435379683971405,1,0.05097197368741035,1,0.02447415515780449,1
1771621841332754944,-0.05396132543683052,1,0.0002286283415742218,1,-0.03653409704566002,1,0.152789831161499,1,0.003649027785286307,1,0.07488074898719788,1
1771621841342296576,-0.03495912998914719,1,-0.001331944949924946,1,-0.1134396493434906,1,0.07829593867063522,1,-0.07024140655994415,1,-0.02572102285921574,1
1771621841351743488,-0.07419624924659729,1,0.001308892155066133,1,-0.1510595679283142,1,-0.2082936614751816,1,0.4868166446685791,1,0.07745979726314545,1
1771621841361096448,-0.03546811640262604,1,0.001593592576682568,1,-0.08604810386896133,1,-0.02903319150209427,1,0.3058831691741943,1,0.1123224273324013,1
1771621841371518208,-0.04952697083353996,1,0.001365241827443242,1,-0.08186189085245132,1,0.01023107208311558,1,-0.0210323017090559,1,-0.04628793150186539,1
1771621841382125824,-0.06305745989084244,1,0.0009773817146196961,1,-0.05786796659231186,1,-0.05019567534327507,1,-0.0564410425722599,1,0.1201982274651527,1
1771621841392629504,-0.05085469037294388,1,-0.001367594581097364,1,0.0001510594447609037,1,-0.1568241715431213,1,0.02613827213644981,1,-0.03940089792013168,1
1771621841403030784,-0.06616011261940002,1,-0.003766513662412763,1,0.08386179804801941,1,-0.1414170414209366,1,-0.03130229189991951,1,0.03676158934831619,1
1771621841413330176,-0.07547341287136078,1,-0.004343689884990454,1,0.1182962283492088,1,0.05042647570371628,1,-0.04266949370503426,1,0.002760031959041953,1
1771621841423531776,-0.07614199817180634,1,-0.004908605478703976,1,0.1073343977332115,1,0.03585506975650787,1,0.01756325736641884,1,0.05425725504755974,1
1771621841433635328,-0.0728674903512001,1,-0.00433691032230854,1,0.09252156317234039,1,0.05297539755702019,1,0.02944322489202023,1,0.05491155385971069,1
1771621841443638784,-0.05053224414587021,1,-0.002636180026456714,1,0.09111980348825455,1,-0.03044883161783218,1,0.1586335897445679,1,0.1489314585924149,1
1771621841453544704,-0.03343246504664421,1,-0.001792681636288762,1,0.1279880702495575,1,-0.05995906889438629,1,0.1113974824547768,1,0.06903029978275299,1
1771621841463354112,-0.02249114774167538,1,-0.002130897948518395,1,0.1542330980300903,1,-0.07533542066812515,1,0.07448288798332214,1,0.03195444867014885,1
1771621841473067008,-0.02113806828856468,1,-0.001019699033349752,1,0.1959756016731262,1,0.002432381501421332,1,0.0002663792693056166,1,0.05271016061306,1
1771621841482685952,-0.04705005884170532,1,-0.00349521217867732,1,0.2002195119857788,1,0.01558706723153591,1,-0.03472965955734253,1,-0.02812189608812332,1
1771621841492210688,-0.0718599408864975,1,-0.00678601348772645,1,0.2158273309469223,1,-0.05758315697312355,1,-0.003881174605339766,1,-0.03027965314686298,1
1771621841501642240,-0.09019988030195236,1,-0.009998166933655739,1,0.2566933929920197,1,-0.09976616501808167,1,0.1012497767806053,1,0.0439898744225502,1
1771621841511121920,-0.06434072554111481,1,-0.004812308587133884,1,0.2802625596523285,1,0.1109029576182365,1,0.01226281654089689,1,0.1206519678235054,1
1771621841521775360,0.007512061856687069,1,-0.0053604980930686,1,0.3416332304477692,1,-0.04527487978339195,1,0.2561664879322052,1,0.3945516347885132,1
1771621841532323072,0.1053729206323624,1,-0.0009605936356820166,1,0.3414516150951385,1,-0.08886179327964783,1,0.411564439535141,1,0.2675716280937195,1
1771621841542767872,0.1701148301362991,1,-0.004068834707140923,1,0.3550900816917419,1,-0.2102143466472626,1,0.4012555778026581,1,0.1978318244218826,1
1771621841553110784,0.2346306145191193,1,0.002641085535287857,1,0.3638290762901306,1,-0.01935695856809616,1,0.1558879613876343,1,0.1514728218317032,1
1771621841563350784,0.2789193987846375,1,0.01113641820847988,1,0.3747948706150055,1,-0.01213493384420872,1,0.2580088078975677,1,0.2418175488710403,1
1771621841573488896,0.2749837636947632,1,-0.003091985126957297,1,0.2648582756519318,1,0.9826493263244629,1,0.2330058962106705,1,-0.5057643055915833,1
1771621841583529216,0.3087640404701233,1,-0.007616362068802118,1,0.2005974352359772,1,0.1214746832847595,1,0.1638868153095245,1,0.2850840985774994,1
1771621841593472000,0.4059624075889587,1,-0.007585653103888035,1,0.1836517453193665,1,0.2465934753417969,1,-0.2407780885696411,1,0.2177559733390808,1
1771621841603318528,0.4335294663906097,1,-0.01151582505553961,1,0.1451216638088226,1,0.08946631103754044,1,-0.3672058284282684,1,-0.3366682529449463,1
1771621841613068032,0.005344041623175144,1,0.0008404114632867277,1,0.09376700222492218,1,0.1938415914773941,1,0.1113179847598076,1,0.241372749209404,1
1771621841622721792,0.02650759741663933,1,-0.002097843214869499,1,0.1462555676698685,1,0.1554899215698242,1,-0.004174320492893457,1,-0.01079859305173159,1
1771621841632279552,0.01047128718346357,1,-0.001718609710223973,1,0.1776745468378067,1,0.1964676082134247,1,0.03029786981642246,1,0.03911542892456055,1
1771621841641742848,0.01879761926829815,1,-0.005279090255498886,1,0.2384418696165085,1,0.02184110321104527,1,0.1748230308294296,1,0.01613304018974304,1
1771621841651113728,0.03729255124926567,1,-0.01367213297635317,1,0.2685189545154572,1,0.1325777620077133,1,0.5256499648094177,1,-0.0002775153261609375,1
1771621841661401856,0.08878935873508453,1,-0.03761883825063705,1,0.270180732011795,1,0.2159409672021866,1,0.4287049174308777,1,0.03619502484798431,1
1771621841672019968,0.159048929810524,1,-0.06982342153787613,1,0.2266351133584976,1,-0.1561127007007599,1,-0.1708254814147949,1,-0.02405969798564911,1
1771621841682534656,0.006167417857795954,1,-0.0009221661021001637,1,0.1964472234249115,1,-0.1486410349607468,1,-0.3801546394824982,1,0.4296947419643402,1
1771621841692944640,0.005178394261747599,1,-0.0006125850486569107,1,0.1372108459472656,1,-0.1072057336568832,1,-0.2247463464736938,1,0.102060467004776,1
1771621841703254016,0.00295470911078155,1,0.001501801307313144,1,0.07117246836423874,1,-0.07841029763221741,1,-0.1185636967420578,1,0.06395041197538376,1
1771621841713463296,0.01343647856265306,1,-0.0006386206368915737,1,0.04288216307759285,1,-0.02313444577157497,1,0.07671023160219193,1,-0.01660994626581669,1
1771621841723570432,0.02716206759214401,1,0.00169494969304651,1,0.03268372267484665,1,-0.005728750489652157,1,0.03284529596567154,1,0.02176127582788467,1
1771621841733579520,0.02745732106268406,1,-9.993936691898853e-05,1,0.02110254019498825,1,-0.03324437513947487,1,-0.01666246168315411,1,0.04504673928022385,1
1771621841743488768,0.01999606192111969,1,0.001193722593598068,1,0.001883030636236072,1,-0.02031391859054565,1,-0.04484164342284203,1,0.08219217509031296,1
1771621841753299712,-0.005053011700510979,1,0.0008009682642295957,1,-0.001364911557175219,1,0.01923274807631969,1,-0.02287989854812622,1,0.1125413030385971,1
1771621841763014912,-0.02845658361911774,1,-0.001180088613182306,1,-0.0003067491925321519,1,0.01463885046541691,1,-0.009290117770433426,1,0.08918654173612595,1
1771621841772633600,-0.04614735767245293,1,-0.001075798063538969,1,0.0005126625183038414,1,0.005916318390518427,1,0.02022784203290939,1,0.05740735679864883,1
1771621841782157056,-0.0006969958776608109,1,-0.0006850709323771298,1,0.0007395212887786329,1,-0.008664866909384727,1,-0.08762685209512711,1,0.1848310530185699,1
1771621841791587840,-0.001077479682862759,1,-0.0006312018958851695,1,-0.02689551189541817,1,-0.1203575432300568,1,-0.144781082868576,1,0.09451885521411896,1
1771621841801068800,-0.0005211873794905841,1,0.0001545725972391665,1,-0.09607236832380295,1,-0.1454292833805084,1,-0.1324877291917801,1,0.05436989292502403,1
1771621841811747072,-0.0001073017847375013,1,0.001654891297221184,1,-0.1538653820753098,1,-0.08639166504144669,1,-0.124887079000473,1,-0.007956837303936481,1
1771621841822320896,-0.00263682403601706,1,-0.0004722469893749803,1,-0.1775112301111221,1,0.07329481095075607,1,0.1612181216478348,1,0.04762619361281395,1
1771621841832789248,-0.002448641927912831,1,-0.001557304291054606,1,-0.1953463852405548,1,0.05898936092853546,1,0.1117777824401855,1,0.04900560155510902,1
1771621841843155968,0.002508642850443721,1,-0.002065629232674837,1,-0.2164938747882843,1,-0.03701965510845184,1,0.005856944713741541,1,0.01834086701273918,1
1771621841853421568,-0.01536377612501383,1,0.005227035377174616,1,-0.2484362721443176,1,-0.1002783998847008,1,-0.1302119195461273,1,0.06801916658878326,1
1771621841863584768,-0.07006390392780304,1,0.02942656166851521,1,-0.2641609609127045,1,-0.04257619008421898,1,-0.06526682525873184,1,0.04580576717853546,1
1771621841873648384,-0.12672258913517,1,0.05567484349012375,1,-0.2878562808036804,1,-0.1561378091573715,1,-0.2282499969005585,1,0.1206004023551941,1
1771621841883613440,-0.03984940424561501,1,0.01279446482658386,1,-0.3187047243118286,1,1.142188787460327,1,1.58151638507843,1,0.03128943592309952,1
1771621841893479168,-0.001205552602186799,1,-0.003333283122628927,1,-0.2330448627471924,1,0.08913277089595795,1,0.3267777264118195,1,-0.01063217036426067,1
1771621841903248384,-0.001124342903494835,1,-0.001186831388622522,1,-0.2061853557825089,1,0.0350702702999115,1,0.4564734399318695,1,0.06325583159923553,1
1771621841912921344,-0.002119255485013127,1,-0.001429678872227669,1,-0.2185213267803192,1,0.0148234274238348,1,0.2464205473661423,1,0.001291574561037123,1
1771621841922498048,-0.00413734233006835,1,-0.001422615023329854,1,-0.2218065708875656,1,0.070290707051754,1,0.1680966913700104,1,0.05520902201533318,1
1771621841931979264,-0.0082060182467103,1,6.391252827597782e-05,1,-0.2222906649112701,1,0.1011409536004066,1,0.1919781118631363,1,0.02109864354133606,1
1771621841941368576,0.0007469408446922898,1,-0.000939413090236485,1,-0.1913676261901855,1,0.1555326282978058,1,0.2465702146291733,1,0.09674464911222458,1
1771621841951238144,0.002585026668384671,1,-0.001720005995593965,1,-0.1661392599344254,1,0.1028175726532936,1,0.2321605980396271,1,0.02369020320475101,1
1771621841961867520,-0.01706867106258869,1,0.0004280751454643905,1,-0.1676523834466934,1,0.1791773587465286,1,0.04240433499217033,1,-0.002352607203647494,1
1771621841972391936,-0.06434789299964905,1,0.00213634199462831,1,-0.1900672167539597,1,0.1546055525541306,1,0.04924264550209045,1,0.009180555120110512,1
1771621841982811904,-0.04481760039925575,1,-0.0008718674071133137,1,-0.1593423336744308,1,0.008044608868658543,1,-0.1763404458761215,1,-0.04864955693483353,1
1771621841993131520,-0.1583469659090042,1,0.005103212781250477,1,-0.1786992251873016,1,0.1086559891700745,1,-0.08768029510974884,1,-0.2706006169319153,1
1771621842003348480,-0.239200234413147,1,0.00702622951939702,1,-0.1870171427726746,1,-0.2328813523054123,1,-0.5658557415008545,1,-0.03464207053184509,1
1771621842013465600,-0.3393397033214569,1,0.007119596470147371,1,-0.03693873062729836,1,-0.2517134845256805,1,-0.8172304034233093,1,-0.2679126858711243,1
1771621842023482880,-0.3446319699287415,1,0.005059692542999983,1,-0.02834513038396835,1,0.09650375694036484,1,0.458909809589386,1,0.2539372444152832,1
1771621842033401344,-0.2130667716264725,1,-0.004766207654029131,1,-0.09104170650243759,1,0.2235943973064423,1,0.4856193661689758,1,0.3284417688846588,1
1771621842043220992,-0.1235694661736488,1,-0.004301832988858223,1,-0.07851040363311768,1,-0.1705557256937027,1,-0.07886481285095215,1,0.1976964175701141,1
1771621842052944896,-0.08085229247808456,1,-0.004231938626617193,1,-0.02137394808232784,1,0.002788493642583489,1,0.08815727382898331,1,0.1219767406582832,1
1771621842062572544,-0.06935831159353256,1,-0.002994210459291935,1,-0.04730875045061111,1,0.05757951736450195,1,0.2042272090911865,1,-0.01597681269049644,1
1771621842072104448,-0.07682840526103973,1,-0.003189541399478912,1,-0.03836557269096375,1,-0.08674675971269608,1,-0.05318774655461311,1,0.03952472284436226,1
1771621842081543168,-0.08305864781141281,1,-0.003399385837838054,1,-0.01066373381763697,1,-0.01675381883978844,1,-0.005515119060873985,1,0.02032370492815971,1
1771621842090888448,-0.06042929366230965,1,-0.002416867995634675,1,-0.008340189233422279,1,0.0005555902607738972,1,0.1497471779584885,1,0.14735047519207,1
1771621842101445888,-0.0270238108932972,1,-0.0008509552571922541,1,-0.002347868867218494,1,-0.02052588760852814,1,0.0866045355796814,1,0.09231756627559662,1
1771621842112043776,-0.006841273047029972,1,-0.0002400824741926044,1,0.0003130053519271314,1,0.01488572917878628,1,0.09988584369421005,1,0.108595184981823,1
1771621842122538240,0.01590179093182087,1,0.001981765730306506,1,0.001574047026224434,1,-0.001302163465879858,1,0.1179862841963768,1,0.1074881330132484,1
1771621842132928512,0.04188712313771248,1,0.00201203697361052,1,0.001535366289317608,1,0.001439135055989027,1,0.1111902818083763,1,0.1105123534798622,1
1771621842143215360,0.05860081315040588,1,0.00226167868822813,1,0.001027433550916612,1,0.01722515933215618,1,0.08731058239936829,1,0.08144406229257584,1
1771621842153401600,0.06871706992387772,1,0.002670254791155457,1,0.001102968119084835,1,0.008465013466775417,1,0.07938523590564728,1,0.0737602561712265,1
1771621842163487232,0.0724208801984787,1,0.002694303635507822,1,9.441345173399895e-05,1,0.009573708288371563,1,0.05418092012405396,1,0.05227232351899147,1
1771621842173477376,0.0733589380979538,1,0.002606915077194571,1,0.00104006240144372,1,0.01336316484957933,1,0.04838326945900917,1,0.03467391431331635,1
1771621842183368960,0.08444561064243317,1,0.003082098439335823,1,0.0004075091856066138,1,-0.003017482813447714,1,0.1284486353397369,1,0.1051986441016197,1
1771621842193163520,0.1117461398243904,1,0.005768280476331711,1,0.002714515430852771,1,-0.001619796734303236,1,0.1302880793809891,1,0.110410213470459,1
1771621842202860544,0.1219836995005608,1,0.004649780690670013,1,0.0137550663203001,1,-0.07587507367134094,1,0.07725413143634796,1,-0.01356068812310696,1
1771621842212461568,0.07963507622480392,1,0.0006453105597756803,1,0.06590186804533005,1,-0.1466904431581497,1,0.187841385602951,1,-0.005190667230635881,1
1771621842221969152,0.06622173637151718,1,0.0006363531574606895,1,0.1198236271739006,1,-0.1219395250082016,1,0.2166788130998611,1,0.0003352311614435166,1
1771621842231382784,0.07063569873571396,1,-0.002463174751028419,1,0.1768420338630676,1,-0.09117738157510757,1,0.3141212165355682,1,0.1356887668371201,1
1771621842240990464,0.1083746328949928,1,-0.002742807380855083,1,0.2014688104391098,1,0.03024834021925926,1,0.1351277977228165,1,0.1192686259746552,1
1771621842251641344,0.1463528871536255,1,-0.004400881472975016,1,0.1483915895223618,1,0.0462770126760006,1,0.006690553389489651,1,0.04086026176810265,1
1771621842262188544,0.1906452625989914,1,-0.005127717740833759,1,0.1203138306736946,1,0.1221207976341248,1,0.01535854302346706,1,0.1544944047927856,1
1771621842272632320,0.224587619304657,1,-0.005859569646418095,1,0.08663208037614822,1,0.03033452294766903,1,0.09182336181402206,1,0.1152598485350609,1
1771621842282972928,0.2582127749919891,1,-0.006589137949049473,1,0.08482920378446579,1,0.009420983493328094,1,0.1462941020727158,1,0.07630553841590881,1
1771621842293210624,0.1774762868881226,1,-0.007334298919886351,1,0.1034809947013855,1,-0.07943414896726608,1,-0.4412871897220612,1,-0.4818872809410095,1
1771621842303348736,0.02132623083889484,1,-0.003020839765667915,1,0.09730151295661926,1,0.1688255816698074,1,-0.4048327505588531,1,-0.0244382880628109,1
1771621842313386496,0.001903276308439672,1,-0.0007179269450716674,1,0.02977887354791164,1,0.06024686619639397,1,-0.161638006567955,1,0.05062802508473396,1
1771621842323324416,0.002219425980001688,1,-0.001565941027365625,1,0.0008501535630784929,1,-0.002639373298734426,1,0.0719151645898819,1,0.0508749783039093,1
1771621842333165824,0.004148934502154589,1,-0.001961224246770144,1,0.0003838850825559348,1,0.002690041437745094,1,0.05235737562179565,1,0.02294176816940308,1
1771621842342914560,0.01921063289046288,1,-0.008482745848596096,1,0.002044945955276489,1,0.1007187739014626,1,0.2658374905586243,1,0.01452575344592333,1
1771621842352568576,0.07556743919849396,1,-0.03255773335695267,1,5.149501157575287e-05,1,0.01096124667674303,1,0.05679415538907051,1,0.05863146111369133,1
1771621842362127872,0.06455943733453751,1,-0.02692317776381969,1,5.68580326216761e-05,1,0.004423792008310556,1,0.02680384367704391,1,0.03526791930198669,1
1771621842371593216,0.05816803872585297,1,-0.02527873776853085,1,0.0002765395620372146,1,-0.007615961600095034,1,0.0380873829126358,1,0.03984371200203896,1
1771621842380966656,0.05225436761975288,1,-0.02184687927365303,1,-0.00026917495415546,1,-0.004037805832922459,1,0.03800541162490845,1,0.05116904154419899,1
1771621842391254528,0.004521337803453207,1,-0.001473354292102158,1,0.000501920934766531,1,-0.1762685179710388,1,-0.4100460708141327,1,0.2879036366939545,1
1771621842401870848,0.002106622094288468,1,-0.0004295129620004445,1,0.0001178645543404855,1,0.001716087106615305,1,0.02662604860961437,1,0.06555774807929993,1
1771621842412383744,-0.0005027553415857255,1,0.000379143311874941,1,-9.707421850180253e-05,1,0.01261285599321127,1,0.04268484562635422,1,0.03670013323426247,1
1771621842422793472,-0.0002146205224562436,1,-0.000213418752537109,1,-0.0005897838855162263,1,0.01105356216430664,1,0.06172827258706093,1,0.0192449763417244,1
1771621842433100288,0.0001090430014301091,1,0.0006738652591593564,1,-0.0002194444241467863,1,0.003647457575425506,1,0.05615327879786491,1,0.02924565970897675,1
1771621842443308288,-0.0009586953092366457,1,-0.001221637125127017,1,0.000743701821193099,1,-0.0037965327501297,1,0.05441557988524437,1,0.05324731022119522,1
1771621842453416960,0.001220254460349679,1,0.0009514908888377249,1,-0.000299601728329435,1,0.01860241964459419,1,0.05841886252164841,1,0.04171518981456757,1
1771621842463426304,0.001106982701458037,1,-0.0005403481773100793,1,0.0009369347244501114,1,0.01084628328680992,1,0.04684611409902573,1,0.03911157697439194,1
1771621842473336576,0.0005012251785956323,1,-0.0001627427991479635,1,-0.0003638797497842461,1,0.005228999070823193,1,0.04725117608904839,1,0.04270973801612854,1
1771621842483150080,0.0001347902289126068,1,-0.001481051207520068,1,-0.0002899432147387415,1,0.005950700491666794,1,0.04763184487819672,1,0.04756250232458115,1
1771621842492865536,0.001657613669522107,1,-0.0008976735407486558,1,-0.0003224757092539221,1,0.003315423615276814,1,0.05376753583550453,1,0.03459910675883293,1
1771621842502486016,7.430874393321574e-05,1,-0.0007161779212765396,1,0.0002850065648090094,1,0.002050081035122275,1,0.05320588126778603,1,0.03699807822704315,1
1771621842512011776,0.001366092241369188,1,0.001254039467312396,1,-0.0003323130367789418,1,0.01551346853375435,1,0.05660644546151161,1,0.0399635024368763,1
1771621842521443584,0.001214136369526386,1,0.000907144567463547,1,-0.0005616223206743598,1,0.002658059122040868,1,0.05642757937312126,1,0.04598968476057053,1
1771621842530926080,0.001726552261970937,1,0.001317862188443542,1,-0.0002194123226217926,1,0.0004590958124026656,1,0.06138582155108452,1,0.03641986846923828,1
1771621842541597440,0.0006441409350372851,1,-0.0001102555834222585,1,0.0007371205720119178,1,-0.0003625558747444302,1,0.05196893960237503,1,0.04273858293890953,1
1771621842552163584,-0.0008931438787840307,1,-0.00138084520585835,1,0.000829868542496115,1,0.006809506099671125,1,0.05531877651810646,1,0.05051274970173836,1
1771621842562625792,-0.0001971050805877894,1,7.404571078950539e-05,1,-0.000218111730646342,1,-0.003480119165033102,1,0.04033033922314644,1,0.0373520702123642,1
1771621842572987136,-0.0006926649366505444,1,-0.001641980605199933,1,-0.0002822928945533931,1,0.01359615474939346,1,0.04268386587500572,1,0.04511350393295288,1
1771621842583245056,0.0001505964755779132,1,-0.001124730566516519,1,-2.044736538664438e-05,1,-0.001110169338062406,1,0.04239698499441147,1,0.04278930276632309,1
1771621842593401344,0.0006799062830395997,1,0.000226373434998095,1,5.44793983863201e-05,1,0.007607270032167435,1,0.04984396323561668,1,0.04570914804935455,1
1771621842603459584,0.0005661371978931129,1,0.0005258675664663315,1,0.001465344568714499,1,0.005723756272345781,1,0.05136112123727798,1,0.0364188551902771,1
1771621842613419264,-0.0001104039547499269,1,0.0009924483019858599,1,0.0260211955755949,1,0.1530956923961639,1,0.2785205245018005,1,0.03787202760577202,1
1771621842623290112,0.0002868042211048305,1,0.0005741894710808992,1,0.08212382346391678,1,0.1057254895567894,1,0.1956834495067596,1,0.0507962666451931,1
1771621842633069568,-0.002018538070842624,1,0.001041165902279317,1,0.1185950264334679,1,0.07447870820760727,1,0.1503350734710693,1,0.05905294045805931,1
1771621842642753280,0.002968811197206378,1,-0.0007899478077888489,1,0.141498863697052,1,0.02787644416093826,1,0.080556720495224,1,0.04497629031538963,1
1771621842652343552,-0.001035987050272524,1,0.002166150836274028,1,0.1349446028470993,1,-0.02559834718704224,1,0.009396637789905071,1,0.02493271045386791,1
1771621842661840128,-0.002311128424480557,1,0.001468783710151911,1,0.1027703657746315,1,-0.09900949895381927,1,-0.1355165392160416,1,0.04103966802358627,1
1771621842671244800,-0.01279214769601822,1,0.006346071604639292,1,0.05858410894870758,1,-0.03806693479418755,1,-0.04259015619754791,1,0.04034041240811348,1
1771621842681265664,-0.02495038695633411,1,0.01030222699046135,1,0.02989762835204601,1,-0.1005913466215134,1,-0.1312005519866943,1,0.06506621092557907,1
1771621842691892224,-0.05899130553007126,1,0.02484565414488316,1,0.0009507738868705928,1,-0.04631206020712852,1,-0.0629885271191597,1,0.05602040141820908,1
1771621842702414848,-0.1057888567447662,1,0.0458638072013855,1,-0.0009676312911324203,1,-0.06925997138023376,1,-0.1107009500265121,1,0.06817806512117386,1
1771621842712832512,-0.1198025047779083,1,0.04574213176965714,1,-0.001327660167589784,1,1.037256240844727,1,2.44544792175293,1,-0.3134263753890991,1
1771621842723148032,-0.001465020934119821,1,3.822262078756467e-05,1,7.034005102468655e-05,1,-0.05666856840252876,1,-0.1585664451122284,1,0.01908931694924831,1
1771621842733362688,-0.001769215101376176,1,8.851996244629845e-05,1,-0.003578931791707873,1,0.01098202262073755,1,0.09913287311792374,1,0.02461116574704647,1
1771621842743479296,-0.004009476862847805,1,-0.0001989242009585723,1,-0.04321228712797165,1,0.1103530004620552,1,0.5004327893257141,1,0.02961465902626514,1
1771621842753496064,0.0001878014300018549,1,0.001787818502634764,1,-0.07671786099672318,1,-0.08334426581859589,1,-0.02592923678457737,1,0.0634089857339859,1
1771621842763413248,0.0004101257072761655,1,0.0002110944333253428,1,-0.06160744279623032,1,-0.1382964253425598,1,0.1994911730289459,1,0.03593332320451736,1
1771621842773234176,0.002458954928442836,1,0.0004890043055638671,1,-0.05718933790922165,1,-0.1656903028488159,1,0.3395342230796814,1,0.03106004931032658,1
1771621842782957312,0.007012550719082355,1,-0.001074197003617883,1,-0.02150196582078934,1,-0.2756162285804749,1,0.6319313049316406,1,0.03738182410597801,1
1771621842792584192,0.007398782297968864,1,-0.0003425840986892581,1,0.05513114482164383,1,-0.2488861829042435,1,0.9326165914535522,1,0.04088805615901947,1
1771621842802117120,0.006555106490850449,1,-0.001046236255206168,1,0.1410501152276993,1,-0.250063419342041,1,1.044047474861145,1,0.02929624170064926,1
1771621842811555072,0.006699159275740385,1,-0.004446982406079769,1,0.2093199193477631,1,-0.4356459677219391,1,1.765013933181763,1,0.09897609800100327,1
1771621842820900864,0.06990701705217361,1,-0.02797605656087399,1,0.3409213721752167,1,-0.09721183776855469,1,1.351029276847839,1,0.001780980965122581,1
1771621842831595264,0.06378481537103653,1,-0.025656808167696,1,0.3564608097076416,1,-0.1407674551010132,1,1.937661409378052,1,0.1908045709133148,1
1771621842842186752,0.05185675621032715,1,-0.02049011737108231,1,0.4079539477825165,1,-0.1976493299007416,1,1.915375113487244,1,0.1855638176202774,1
1771621842852675840,0.05236145853996277,1,-0.02490109018981457,1,0.4172696173191071,1,-0.2637850046157837,1,1.813237190246582,1,-0.06656263023614883,1
1771621842863060480,0.03151387348771095,1,-0.01012350618839264,1,0.3512308597564697,1,-0.3636004328727722,1,1.572264909744263,1,0.1713507920503616,1
1771621842873343232,-0.002654062118381262,1,-0.002940674312412739,1,0.3698562383651733,1,-0.3205793499946594,1,2.393654346466064,1,0.2669417262077332,1
1771621842883524352,-0.008413274772465229,1,0.008156700991094112,1,0.3530143797397614,1,-0.08449505269527435,1,1.916885256767273,1,0.1329298764467239,1
1771621842893604608,-0.04616319760680199,1,0.02073383331298828,1,0.3723587393760681,1,-0.0906497910618782,1,2.370679140090942,1,0.01083708833903074,1
1771621842903588608,-0.04023480787873268,1,0.02185572125017643,1,0.3320705890655518,1,-0.03402722626924515,1,1.705554366111755,1,-0.0140867093577981,1
1771621842913474048,-0.02277080528438091,1,0.01276341453194618,1,0.3237500786781311,1,-0.1028596609830856,1,1.47192907333374,1,-0.2176592200994492,1
1771621842923263488,0.02441183291375637,1,-0.008988871239125729,1,0.1991228312253952,1,0.229892373085022,1,0.8061040639877319,1,-0.09154676645994186,1
1771621842932955648,0.05132107436656952,1,-0.02179544791579247,1,0.1452707648277283,1,0.2415432035923004,1,0.746091902256012,1,0.08983846008777618,1
1771621842942551040,-0.02657779864966869,1,0.005881295073777437,1,0.04395044967532158,1,0.1554688662290573,1,0.3800053894519806,1,0.5374859571456909,1
1771621842952074496,-0.01480027101933956,1,0.00421479344367981,1,-0.05285782366991043,1,0.05788818001747131,1,0.4171780049800873,1,0.07732401043176651,1
1771621842961507840,-0.0205813180655241,1,0.003538661170750856,1,-0.1172056570649147,1,-0.09477581083774567,1,0.152864009141922,1,-0.001818472286686301,1
1771621842971269376,0.01690337434411049,1,-0.006524514872580767,1,-0.1574121117591858,1,-0.02767181396484375,1,0.6325344443321228,1,0.05029364675283432,1
1771621842981915136,0.01447802875190973,1,0.002984544960781932,1,-0.2236678451299667,1,0.1561079025268555,1,0.4972839653491974,1,0.2164754867553711,1
1771621842992457984,-0.001543115242384374,1,0.003039710223674774,1,-0.2375308126211166,1,0.109918937087059,1,0.6110486388206482,1,0.4126151204109192,1
1771621843002898688,0.01893170364201069,1,0.01050344854593277,1,-0.3187257647514343,1,0.2917780876159668,1,0.6454092860221863,1,0.9471349716186523,1
1771621843013242368,-0.004318815656006336,1,-0.001023738645017147,1,-0.3499774634838104,1,0.4791633188724518,1,0.8397901058197021,1,0.4498955905437469,1
1771621843023486208,-0.008708016015589237,1,-0.0004588478186633438,1,-0.4103332161903381,1,0.01168662589043379,1,-0.4595830738544464,1,0.2442968785762787,1
1771621843033628928,0.003879569470882416,1,0.005311134736984968,1,-0.4041019976139069,1,0.1470119059085846,1,0.5077993869781494,1,-0.3842622041702271,1
1771621843043672832,0.02594143897294998,1,-0.002225670032203197,1,-0.4747653603553772,1,0.08877357840538025,1,-0.602074146270752,1,-0.1639510542154312,1
1771621843053619200,-0.007810662034898996,1,0.0004331441596150398,1,-0.4502768218517303,1,-0.3605423867702484,1,-0.3977484107017517,1,0.3931930959224701,1
1771621843063468288,0.006265054456889629,1,0.0001209824258694425,1,-0.4204153716564178,1,-0.1906126737594604,1,-0.2875033915042877,1,0.1656497716903687,1
1771621843073222656,-0.04314395412802696,1,0.01353385578840971,1,-0.4544783234596252,1,0.0610109344124794,1,0.2094809412956238,1,-0.1156167685985565,1
1771621843082881792,-0.01232638861984015,1,-0.007320036180317402,1,-0.4584553837776184,1,0.01141515094786882,1,-0.01619517803192139,1,0.8244649767875671,1
1771621843092445952,-0.01299714948982,1,0.003594686277210712,1,-0.4272144734859467,1,0.09933982789516449,1,0.390104353427887,1,-0.1972713321447372,1
1771621843101916928,0.01651653088629246,1,-0.01495358906686306,1,-0.3797302544116974,1,0.1039995178580284,1,0.001842433586716652,1,-0.08421001583337784,1
1771621843111295488,-0.006540738977491856,1,0.001793659175746143,1,-0.3719035089015961,1,0.3189472854137421,1,0.1932144165039062,1,-0.09661024063825607,1
1771621843121580544,0.03379885107278824,1,0.003075672779232264,1,-0.33022740483284,1,0.09767581522464752,1,-0.1642677187919617,1,0.03957591578364372,1
1771621843132192512,0.008591542951762676,1,-0.001216314150951803,1,-0.3068453967571259,1,0.1226838156580925,1,0.6461609601974487,1,-0.2335357069969177,1
1771621843142702336,0.01717787049710751,1,0.002346137538552284,1,-0.296682596206665,1,0.2761034965515137,1,0.4687602818012238,1,-0.1339811980724335,1
1771621843153107712,0.009274755604565144,1,0.004095047246664762,1,-0.2875832319259644,1,0.1393992900848389,1,1.265080451965332,1,0.4494578242301941,1
1771621843163410432,0.004279059823602438,1,0.005437799263745546,1,-0.2648240625858307,1,0.2844242453575134,1,0.2381419837474823,1,1.086947083473206,1
1771621843173613056,-0.01487965788692236,1,0.01178205572068691,1,-0.16391421854496,1,0.1823348701000214,1,0.6521866917610168,1,0.2397471219301224,1
1771621843183720704,0.006370321847498417,1,-0.003174219047650695,1,-0.08482121676206589,1,0.3091214597225189,1,0.3120951652526855,1,-0.562487781047821,1
1771621843193730816,-0.02232228592038155,1,0.01102643366903067,1,0.0691692903637886,1,0.2802746295928955,1,0.6788796782493591,1,0.07277414947748184,1
1771621843203643648,-0.003583089681342244,1,-0.004509790800511837,1,0.1673813760280609,1,0.5897965431213379,1,0.3679892718791962,1,-0.1375206857919693,1
1771621843213458432,-0.01747759990394115,1,0.006146784871816635,1,0.1957564949989319,1,0.4994909465312958,1,0.5643208622932434,1,-0.01633143238723278,1
1771621843223177216,-0.05301060527563095,1,0.02445564977824688,1,0.1534553021192551,1,0.7879753112792969,1,0.4935345947742462,1,-0.007352319080382586,1
1771621843232799232,-0.001594365108758211,1,-0.01446639280766249,1,0.1315428614616394,1,0.7995245456695557,1,-0.0683286264538765,1,-0.3091274201869965,1
1771621843242330368,-0.001538000535219908,1,0.0007302123703993857,1,0.1475549340248108,1,0.5199123024940491,1,-0.000557674269657582,1,0.3854381442070007,1
1771621843251767552,0.008059551008045673,1,0.006957095582038164,1,0.1850392520427704,1,0.3637703955173492,1,-0.2139578759670258,1,0.05987323820590973,1
1771621843261254144,-0.07375438511371613,1,0.03624585270881653,1,0.09191053360700607,1,0.5698826909065247,1,-0.2494875192642212,1,-0.0143195940181613,1
1771621843271911424,-0.102229505777359,1,0.05207392573356628,1,0.02998203784227371,1,0.6614246964454651,1,-0.8078294396400452,1,-0.06915353238582611,1
1771621843282465280,-0.1423487067222595,1,0.06985434144735336,1,0.01984605006873608,1,0.3618038892745972,1,-0.4828681945800781,1,-0.1318821460008621,1
1771621843292915456,-0.04086903482675552,1,0.010472915135324,1,-0.07916643470525742,1,0.9899977445602417,1,0.3348068594932556,1,0.5306172370910645,1
1771621843303262976,0.01958613283932209,1,0.009151577018201351,1,-0.1267369538545609,1,0.7263964414596558,1,-0.6500979065895081,1,0.2963649928569794,1
1771621843313508096,-0.01998836547136307,1,-0.006498180795460939,1,-0.04496829956769943,1,0.3260362148284912,1,-0.8093355894088745,1,0.01503101177513599,1
1771621843323652864,0.01807710528373718,1,0.008406198583543301,1,-0.02523298747837543,1,-0.06099103763699532,1,-1.292309403419495,1,0.3129298686981201,1
1771621843333696512,-0.002962216502055526,1,0.004047608003020287,1,-0.09704004228115082,1,0.2946658134460449,1,-1.268640637397766,1,0.1469786018133163,1
1771621843343640320,-0.02648328430950642,1,0.006285243202000856,1,-0.1825641840696335,1,0.1516704857349396,1,-1.133524060249329,1,-0.1076356917619705,1
1771621843353487360,-0.001323157805018127,1,0.0004259210836607963,1,-0.2706254720687866,1,0.2178697288036346,1,-0.8262953162193298,1,0.1503602713346481,1
1771621843363239680,0.05035683512687683,1,-0.01744484528899193,1,-0.3054315149784088,1,-0.08966419845819473,1,-0.9769092798233032,1,-0.2791312634944916,1
1771621843372897024,0.004984579514712095,1,-0.006855702959001064,1,-0.3160110116004944,1,-0.1547564417123795,1,-0.6599448919296265,1,0.2417344003915787,1
1771621843382458368,0.003210525028407574,1,-0.001194111071527004,1,-0.3953939974308014,1,-0.08105441182851791,1,-0.346340000629425,1,-0.01322865020483732,1
1771621843391926272,-0.01020218897610903,1,0.004159009084105492,1,-0.37594935297966,1,-0.3101328015327454,1,-1.069860935211182,1,-0.16878542304039,1
1771621843401300480,5.694955325452611e-05,1,0.007798016536980867,1,-0.4183698892593384,1,0.09951207786798477,1,-0.2827964723110199,1,0.115831583738327,1
1771621843411448320,-0.05000047758221626,1,0.01679922640323639,1,-0.3610472083091736,1,-0.02234935201704502,1,1.099177241325378,1,0.352924644947052,1
1771621843422072576,0.008114623837172985,1,-0.004328659735620022,1,-0.2619170546531677,1,-0.2378706783056259,1,-0.476130485534668,1,-0.3784973323345184,1
1771621843432594176,-0.02194404043257236,1,0.003317625960335135,1,-0.232649177312851,1,-0.3665612637996674,1,-0.0638623908162117,1,0.07460128515958786,1
1771621843443012864,0.005102285649627447,1,0.0006769642932340503,1,-0.1954747140407562,1,-0.4928860068321228,1,-0.6358278393745422,1,-0.1859219074249268,1
1771621843453330432,0.0150273535400629,1,-0.0038336799480021,1,-0.152453750371933,1,-0.474667102098465,1,-0.1019105315208435,1,0.0449211597442627,1
1771621843463548160,-0.05153651535511017,1,0.00932740606367588,1,-0.0527307353913784,1,-0.4007858633995056,1,0.5331469774246216,1,0.2228602916002274,1
1771621843473669632,0.0236978605389595,1,0.006008471362292767,1,0.01754230074584484,1,-0.3751052618026733,1,-0.4391626417636871,1,0.03479941189289093,1
1771621843483693056,-0.0008820799994282424,1,0.005875167902559042,1,-0.004154753405600786,1,-0.191598504781723,1,-0.7593182921409607,1,-0.1217028275132179,1
1771621843493619200,0.0003009465581271797,1,0.00205262703821063,1,-0.05218848586082458,1,-0.2846882939338684,1,-0.5876955389976501,1,0.01822794787585735,1
1771621843503448832,-0.004439056385308504,1,-0.0003071948594879359,1,-0.09769390523433685,1,-0.2942496538162231,1,-0.3392999172210693,1,-0.0005280853365547955,1
1771621843513183232,0.002118364907801151,1,-0.0007940537761896849,1,-0.04078593105077744,1,-0.6409688591957092,1,0.7264455556869507,1,-0.108105443418026,1
1771621843522822400,-0.007618768140673637,1,0.008753522299230099,1,0.02531687915325165,1,-0.3290643990039825,1,0.2320514023303986,1,-0.02336025424301624,1
1771621843532370432,0.006683976855129004,1,0.003955415915697813,1,0.1132344305515289,1,-0.3066566288471222,1,0.2266469150781631,1,0.01797692663967609,1
1771621843541829376,-0.02502288110554218,1,0.007113158702850342,1,0.1202551648020744,1,0.1044339537620544,1,0.8427577614784241,1,0.2248375713825226,1
1771621843551335936,0.003447697963565588,1,0.002472967840731144,1,0.09708532691001892,1,0.1924972087144852,1,0.1324006468057632,1,0.07577450573444366,1
1771621843562015744,-0.01802891306579113,1,0.002838325221091509,1,0.09374008327722549,1,0.03410615772008896,1,0.6504223942756653,1,-0.2055354118347168,1
1771621843572590592,0.001519351499155164,1,-0.002354205353185534,1,0.1062661558389664,1,-0.1521836817264557,1,-0.06489745527505875,1,-0.2097545862197876,1
1771621843583063296,-0.001305685960687697,1,0.001406362978741527,1,0.1716752201318741,1,-0.1508666425943375,1,-0.06837183237075806,1,-0.1990098655223846,1
1771621843593432320,0.01813310943543911,1,0.001469918410293758,1,0.182998463511467,1,0.07338248938322067,1,0.402955561876297,1,-0.2667244970798492,1
1771621843603698176,-0.01642724126577377,1,0.01004096027463675,1,0.1872299462556839,1,0.2786251902580261,1,0.655567467212677,1,0.03061439655721188,1
1771621843613863936,-0.001626435434445739,1,-0.001014796434901655,1,0.1057259365916252,1,0.3923101127147675,1,-0.1459143906831741,1,0.07574257999658585,1
1771621843623929344,0.001361678470857441,1,-0.0007737043779343367,1,0.0994950532913208,1,0.04337276145815849,1,0.9824717044830322,1,0.2136558890342712,1
1771621843633895424,-0.01220743078738451,1,0.006108546629548073,1,0.1012087166309357,1,0.08866032212972641,1,0.2011909484863281,1,-0.100723922252655,1
1771621843643773696,-0.01387144904583693,1,0.009631291031837463,1,0.1068679764866829,1,0.2241766303777695,1,0.2026144415140152,1,-0.1178852990269661,1
1771621843653558528,-0.02569579519331455,1,0.005556537304073572,1,0.1328790634870529,1,-0.1388816386461258,1,0.4380783438682556,1,-0.3409791886806488,1
1771621843663248896,0.003272730857133865,1,0.006364700384438038,1,0.1741729825735092,1,-0.07832738012075424,1,0.4740765988826752,1,0.2178013175725937,1
1771621843672845568,0.005330189596861601,1,0.005197180900722742,1,0.157263770699501,1,0.1072493344545364,1,0.09491132944822311,1,-0.304632842540741,1
1771621843682349056,-0.02034119144082069,1,-0.0001535590563435107,1,0.1025422066450119,1,0.1349478960037231,1,0.3596480488777161,1,-0.01056376099586487,1
1771621843691760128,-0.008046776056289673,1,-0.0009566124062985182,1,-0.02442093193531036,1,0.5094029307365417,1,0.8911646604537964,1,0.4553132951259613,1
1771621843701647616,0.004897083155810833,1,0.002873238176107407,1,-0.0926787480711937,1,0.1008968651294708,1,0.4713578522205353,1,-0.1713839322328568,1
1771621843712282112,-0.00341707281768322,1,-0.003216661512851715,1,-0.101203516125679,1,-0.1769408285617828,1,0.6593931317329407,1,0.151018351316452,1
1771621843722812416,0.006090052425861359,1,-0.00371782761067152,1,-0.2504414916038513,1,-0.054582878947258,1,0.8267349004745483,1,0.14056096971035,1
1771621843733240576,-0.05028880760073662,1,0.007807306945323944,1,-0.3264791667461395,1,-0.1451007127761841,1,0.7715462446212769,1,-0.03807823732495308,1
1771621843743565056,-0.04453897476196289,1,0.003880602307617664,1,-0.2862944006919861,1,-0.2759072184562683,1,0.8297721147537231,1,0.3240036070346832,1
1771621843753789184,-0.1048982962965965,1,0.004930660594254732,1,-0.2688390910625458,1,-0.03527146950364113,1,0.7604528069496155,1,-0.4915753304958344,1
1771621843763916544,-0.2987785637378693,1,0.01717847771942616,1,-0.1770598888397217,1,-0.4563033580780029,1,1.254668593406677,1,-0.1620042473077774,1
1771621843773945600,-0.30678391456604,1,0.01257186848670244,1,-0.115333303809166,1,-0.406657487154007,1,0.1611709594726562,1,0.4344188570976257,1
1771621843783877120,-0.3530501425266266,1,0.006421918980777264,1,-0.01836799643933773,1,-0.6715748906135559,1,0.4789273738861084,1,-0.3876690566539764,1
1771621843793712640,-0.3591908812522888,1,0.002352423733100295,1,-0.03377824276685715,1,-0.03313455358147621,1,1.475195169448853,1,0.02428605780005455,1
1771621843803451136,-0.2829263508319855,1,0.005515667609870434,1,-0.004294111393392086,1,0.0379948653280735,1,1.040524959564209,1,0.4659061431884766,1
1771621843813094912,-0.1574040651321411,1,-0.02332452312111855,1,0.02938050031661987,1,0.1378734409809113,1,1.813608527183533,1,0.02058764547109604,1
1771621843822646784,-0.006613688077777624,1,-0.01367056928575039,1,0.04760045558214188,1,0.5789813995361328,1,1.120947003364563,1,-0.193341389298439,1
1771621843832105216,0.0881313756108284,1,0.02565932832658291,1,0.02421844936907291,1,1.636362314224243,1,1.345830082893372,1,-0.6521327495574951,1
1771621843841474560,0.1697005480527878,1,0.03465380519628525,1,0.05465409159660339,1,0.6511979699134827,1,0.6465070247650146,1,-0.5243422985076904,1
1771621843851896320,0.1984427720308304,1,0.04408100247383118,1,0.00544023746624589,1,0.1424455940723419,1,0.1971672773361206,1,0.9179926514625549,1
1771621843862499328,0.2019641548395157,1,-0.004072832409292459,1,0.04761175438761711,1,0.06954343616962433,1,0.190755307674408,1,-0.01892662420868874,1
1771621843872997120,0.06866134703159332,1,0.001045757555402815,1,-0.01444943714886904,1,0.3507597148418427,1,0.4554028213024139,1,-0.04169706255197525,1
1771621843883391488,0.04938750714063644,1,-0.0181596539914608,1,-0.0677274614572525,1,0.4754689633846283,1,0.1760597974061966,1,-0.1229426190257072,1
1771621843893686016,-0.01037486176937819,1,0.0046562016941607,1,-0.155266135931015,1,0.3417997062206268,1,0.1377459764480591,1,-0.004095308948308229,1
1771621843903877632,-0.008190275169909,1,0.01529205404222012,1,-0.2529548108577728,1,0.2728579044342041,1,-0.2180790156126022,1,-0.1919051706790924,1
1771621843913970176,-0.06750602275133133,1,0.01728279702365398,1,-0.3914217352867126,1,0.2774242758750916,1,0.1550455689430237,1,-0.1333634853363037,1
1771621843923963136,-0.07248910516500473,1,0.004617629572749138,1,-0.4725353419780731,1,0.495671421289444,1,0.417431652545929,1,0.2481528669595718,1
1771621843933856512,-0.0323132611811161,1,0.006392759270966053,1,-0.4675644040107727,1,-0.0722128301858902,1,-0.2009149044752121,1,0.2021104991436005,1
1771621843943652352,-0.04660648480057716,1,0.02993382140994072,1,-0.5216785669326782,1,0.2708918452262878,1,0.2223151326179504,1,0.1470713764429092,1
1771621843953352448,0.03557020798325539,1,0.00416046055033803,1,-0.4624850153923035,1,0.2471223473548889,1,-0.5517970323562622,1,-0.5711269974708557,1
1771621843962956288,-0.00311664748005569,1,-0.0008843318792060018,1,-0.4365401864051819,1,-0.2237593680620193,1,-0.4723451137542725,1,0.4474448263645172,1
1771621843972466432,-0.009559771977365017,1,0.02632909268140793,1,-0.3865758776664734,1,-0.02198316343128681,1,0.3714962601661682,1,-0.2589658796787262,1
1771621843981887744,0.04332388937473297,1,0.008931305259466171,1,-0.3727383315563202,1,-0.1220322251319885,1,-1.242772221565247,1,-0.2864314317703247,1
1771621843991357440,-0.0004597221268340945,1,0.009336725808680058,1,-0.3497593104839325,1,-0.7780261039733887,1,-1.188725113868713,1,-0.07939776033163071,1
1771621844002008320,0.01793482899665833,1,0.0006086039356887341,1,-0.2842264175415039,1,-1.02766740322113,1,-0.5654721260070801,1,-0.09359362721443176,1
1771621844012554496,-0.03866207599639893,1,0.00116822135169059,1,-0.1445494592189789,1,-1.170575857162476,1,0.09651622176170349,1,0.1614033281803131,1
1771621844022997760,-0.004309640266001225,1,0.0001277011906495318,1,-0.001523247919976711,1,-0.9663635492324829,1,-0.3132465481758118,1,0.2369241118431091,1
1771621844033338368,0.005114158615469933,1,-0.01189612690359354,1,0.02024917490780354,1,-0.2460906207561493,1,0.3648253977298737,1,0.6365218162536621,1
1771621844043578368,0.1281968057155609,1,-0.01288586109876633,1,0.1185717433691025,1,-0.4938168227672577,1,0.3265970051288605,1,0.9392930269241333,1
1771621844053715968,0.1291737854480743,1,0.00199079280719161,1,0.1278330236673355,1,-0.2229630202054977,1,-0.5978909730911255,1,-0.2172558009624481,1
1771621844063755264,0.1396842300891876,1,-0.008294020779430866,1,0.02957428433001041,1,0.0684710294008255,1,-0.62114417552948,1,-0.01177601888775826,1
1771621844073694464,0.143187090754509,1,-0.01041311025619507,1,-0.04911372065544128,1,-0.1342248320579529,1,0.1131411492824554,1,0.3013295233249664,1
1771621844083536896,0.2423309832811356,1,0.002521905116736889,1,-0.03925066813826561,1,-0.2048477977514267,1,0.1627836227416992,1,0.2516435384750366,1
1771621844093282048,0.3025749027729034,1,-0.006058317143470049,1,-0.06167425215244293,1,0.01226407662034035,1,0.04024244099855423,1,0.08049126714468002,1
1771621844102936832,0.00637488579377532,1,0.003598468145355582,1,0.03708899766206741,1,-0.642109215259552,1,0.1624764502048492,1,-1.905687093734741,1
1771621844112496128,-0.004222889430820942,1,0.00473053939640522,1,0.09200122207403183,1,0.09052544087171555,1,-0.2612189948558807,1,0.02874741330742836,1
1771621844121960960,0.01155729312449694,1,0.002877856604754925,1,0.05464863404631615,1,0.3573130667209625,1,0.4096628129482269,1,0.1074939668178558,1
1771621844131333632,0.02523801103234291,1,0.0007578266086056828,1,0.02079872973263264,1,0.1953966617584229,1,0.5925434231758118,1,0.216403067111969,1
1771621844141620480,-0.02411407604813576,1,0.01041979994624853,1,-0.04738121852278709,1,0.07699139416217804,1,0.7910649180412292,1,0.01505228504538536,1
1771621844152237056,-0.01851031929254532,1,-0.0009413594962097704,1,-0.04934007301926613,1,0.02389538660645485,1,0.07137075811624527,1,0.1242939904332161,1
1771621844162749184,0.006250164471566677,1,-0.005520147271454334,1,-0.05230337381362915,1,-0.2024955451488495,1,0.4560374319553375,1,0.1156954020261765,1
1771621844173158144,0.01587928459048271,1,-0.005084082949906588,1,-0.06670956313610077,1,-0.590753436088562,1,0.5104442238807678,1,-0.2286449819803238,1
1771621844183466496,-0.01057563442736864,1,-0.0004573544138111174,1,-0.1318488121032715,1,-0.04081137105822563,1,0.6527214646339417,1,0.192682221531868,1
1771621844193673472,0.007964367046952248,1,-0.03158813342452049,1,-0.1543616205453873,1,-0.8469042778015137,1,0.9479468464851379,1,-0.09418068081140518,1
1771621844203780352,0.02428803220391273,1,0.01028253883123398,1,-0.281388133764267,1,-0.1982966661453247,1,0.4566186964511871,1,-0.01476776506751776,1
1771621844213787904,0.02798284776508808,1,0.003363719442859292,1,-0.3517530560493469,1,-0.3188691735267639,1,0.5652008056640625,1,-0.5520429611206055,1
1771621844223696384,-0.005327749531716108,1,-0.007032538764178753,1,-0.3754055798053741,1,-0.2716909646987915,1,0.9271697998046875,1,0.5775719285011292,1
1771621844233506560,-0.003834239905700088,1,-0.003010885789990425,1,-0.3814855515956879,1,-0.04003926739096642,1,0.911272406578064,1,-0.3976716697216034,1
1771621844243221504,0.05596600472927094,1,-0.004560576751828194,1,-0.2739895284175873,1,-0.3102932274341583,1,0.4625060260295868,1,-0.3797078728675842,1
1771621844252840448,-0.006033279001712799,1,0.008247343823313713,1,-0.1466072350740433,1,-0.3671441674232483,1,0.7861199378967285,1,0.1604862809181213,1
1771621844262365440,-0.02611947432160378,1,0.01106326468288898,1,-0.02705707587301731,1,-0.208017036318779,1,0.18684421479702,1,-0.4489399492740631,1
1771621844271795456,0.05193009227514267,1,0.004050783347338438,1,0.06088724732398987,1,-0.07245998084545135,1,-0.01399430632591248,1,0.2552101910114288,1
1771621844281275904,-0.05881658941507339,1,0.01565607823431492,1,0.11612319201231,1,0.01379592064768076,1,0.5647527575492859,1,0.01868872530758381,1
1771621844291952384,0.05057873949408531,1,0.02300640009343624,1,0.07504631578922272,1,0.4193843901157379,1,0.7362327575683594,1,-0.564516007900238,1
1771621844302524672,0.04306278750300407,1,0.01202739216387272,1,0.07226090878248215,1,0.7527470588684082,1,-0.1816256791353226,1,0.7034605741500854,1
1771621844312992768,-0.02970616333186626,1,-0.003369553945958614,1,0.0175288449972868,1,0.3710794448852539,1,0.3738631308078766,1,-0.05243195593357086,1
1771621844323360000,0.02396387979388237,1,0.01852899789810181,1,-0.09487864375114441,1,0.6479299664497375,1,0.01431704126298428,1,0.211213156580925,1
1771621844333625600,0.01903279311954975,1,0.005351664032787085,1,-0.109311580657959,1,0.6756100058555603,1,-0.7508159279823303,1,0.07171238958835602,1
1771621844343789312,-0.01778602227568626,1,0.005495444871485233,1,-0.1252679973840714,1,0.4615765511989594,1,-0.4348203837871552,1,-0.1413863748311996,1
1771621844353853696,-0.04177464917302132,1,0.01970843225717545,1,-0.04694272577762604,1,0.1576910465955734,1,-0.2263628840446472,1,-0.1208340153098106,1
1771621844363817984,-0.02718028239905834,1,-0.007769430056214333,1,0.01101762894541025,1,0.1806914210319519,1,0.002716707997024059,1,-0.2774407565593719,1
1771621844373685504,-0.01169549021869898,1,-0.001670926692895591,1,-0.06383566558361053,1,0.2763616740703583,1,-0.5724050402641296,1,0.333945631980896,1
1771621844383456256,0.01875426433980465,1,-0.01352503430098295,1,-0.1223971545696259,1,0.4724055230617523,1,-0.1944156140089035,1,0.5541670322418213,1
1771621844393135360,0.01696659438312054,1,-0.009296310134232044,1,-0.1316636949777603,1,-0.1514680236577988,1,-0.6108705997467041,1,-0.1265996694564819,1
1771621844402720000,0.04436978697776794,1,-0.01472487766295671,1,-0.2255080193281174,1,-0.0783105343580246,1,-0.7902226448059082,1,0.6409196257591248,1
1771621844412210688,0.01990909315645695,1,-0.02242219261825085,1,-0.2156505882740021,1,-0.3314841389656067,1,0.02000284940004349,1,0.6485206484794617,1
1771621844421606656,-0.0964563712477684,1,-0.008971070870757103,1,-0.1429330110549927,1,-0.4511707425117493,1,-0.04921596497297287,1,0.6817833185195923,1
1771621844431480832,0.0006456894334405661,1,-0.001482322695665061,1,-0.06921292841434479,1,-0.1814163029193878,1,-1.045390009880066,1,-0.08816637098789215,1
1771621844442109184,-0.03807072341442108,1,-0.003326016012579203,1,0.1049808636307716,1,-0.4313671290874481,1,0.02524759247899055,1,0.2093058675527573,1
1771621844452632064,-0.09433869272470474,1,0.01439650729298592,1,0.2140228748321533,1,-0.05705954506993294,1,-1.224241137504578,1,0.2164740711450577,1
1771621844463052288,-0.04274639487266541,1,0.006427471525967121,1,0.2441908568143845,1,0.6558076143264771,1,-0.3677469193935394,1,0.4109640121459961,1
1771621844473369088,0.04858065396547318,1,0.02285398915410042,1,0.2239515632390976,1,0.7780733108520508,1,-1.485498666763306,1,0.2108838707208633,1
1771621844483586048,0.074875108897686,1,0.00234848540276289,1,0.1650210022926331,1,0.4729474186897278,1,-1.33340060710907,1,-0.2596504688262939,1
1771621844493700864,0.03577734157443047,1,-0.008893453516066074,1,0.1013123989105225,1,0.5249611735343933,1,-1.070172071456909,1,-0.1464526504278183,1
1771621844503715584,-0.01423426624387503,1,-0.0003186789981555194,1,0.1092883422970772,1,0.1476008147001266,1,-0.2314675599336624,1,0.4730312526226044,1
1771621844513633024,-0.02545484714210033,1,0.00869084894657135,1,0.08786921948194504,1,0.990917980670929,1,-0.881802499294281,1,-0.3083581328392029,1
1771621844523451648,-0.01439158339053392,1,0.007939846254885197,1,0.07467319071292877,1,0.8897643685340881,1,-1.113465785980225,1,-0.1469241976737976,1
1771621844533174528,-0.04536070302128792,1,0.0005059021059423685,1,0.03783794119954109,1,0.5673066377639771,1,-0.7255591750144958,1,0.3955110311508179,1
1771621844542801408,-0.08658257126808167,1,0.003436910919845104,1,-0.04516026377677917,1,0.5677120089530945,1,-1.604945659637451,1,-0.3027740716934204,1
1771621844552332544,-0.1751868575811386,1,0.006455294787883759,1,-0.07756367325782776,1,0.3177026212215424,1,-0.7239688634872437,1,0.2133294343948364,1
1771621844561778688,-0.09187760949134827,1,0.01506108324974775,1,-0.1155892014503479,1,0.5043992400169373,1,-1.095094084739685,1,0.397026389837265,1
1771621844571131136,-0.06269370764493942,1,0.01822252385318279,1,-0.1393706947565079,1,0.4054895639419556,1,0.03132346644997597,1,0.3259913325309753,1
1771621844581686784,0.04604426398873329,1,0.009102910757064819,1,-0.09351842850446701,1,0.1739899218082428,1,-0.2548589110374451,1,0.5508905649185181,1
1771621844592282624,0.08069063723087311,1,0.001139532309025526,1,-0.1079196408390999,1,0.2869957685470581,1,-0.6548964977264404,1,0.07256348431110382,1
1771621844602773504,0.1271630227565765,1,-0.004170986358076334,1,-0.1357998251914978,1,0.33759805560112,1,-0.6725904941558838,1,0.1511540859937668,1
1771621844613161728,0.04035934805870056,1,-0.01404837239533663,1,-0.09013011306524277,1,0.02798068895936012,1,-1.003587245941162,1,-0.1305656284093857,1
1771621844623447808,-0.006375536788254976,1,0.001212977571412921,1,-0.03485693782567978,1,-0.06179568916559219,1,-1.053499698638916,1,-0.4719413220882416,1
1771621844633633792,-0.01038420759141445,1,0.001578862546011806,1,0.05638585239648819,1,-0.3795182406902313,1,-0.6758555173873901,1,0.06448020786046982,1
1771621844643719168,-0.01986688934266567,1,-8.71555384946987e-05,1,-0.009219188243150711,1,-0.004402957856655121,1,-0.3374959230422974,1,0.2688738703727722,1
1771621844653705728,0.005855075549334288,1,0.001736551057547331,1,-0.04855391755700111,1,-0.1947863548994064,1,-1.063697576522827,1,-0.0232552494853735,1
1771621844663592960,-0.02004986070096493,1,-0.003256010124459863,1,0.002035812707617879,1,-0.5752261877059937,1,-0.7830127477645874,1,-0.03609169647097588,1
1771621844673381376,-0.07694786787033081,1,-1.323645574302645e-05,1,0.04724858328700066,1,-0.4163518846035004,1,-0.4453172385692596,1,-0.1023387089371681,1
1771621844683075072,-0.05946940928697586,1,0.004354609176516533,1,0.1746892780065536,1,-0.6391505599021912,1,-0.8236298561096191,1,0.4345679879188538,1
1771621844692672512,-0.1049719825387001,1,-0.003398434957489371,1,0.1970962435007095,1,-0.3407441675662994,1,-0.4355992078781128,1,-0.03101946227252483,1
1771621844702176768,-0.03038073144853115,1,-0.003208803478628397,1,0.1983893662691116,1,0.02154717594385147,1,-1.166449666023254,1,0.4557915329933167,1
1771621844711586304,-0.05282103270292282,1,-1.71844021679135e-06,1,0.1547346711158752,1,-0.0869160071015358,1,-0.4912631511688232,1,-0.05681654810905457,1
1771621844721188608,-0.05040808767080307,1,0.01520796492695808,1,0.1267572194337845,1,0.2990681231021881,1,-0.08734169602394104,1,0.1484079509973526,1
1771621844731837184,0.04364979267120361,1,-0.0004097319906577468,1,0.2969428896903992,1,-0.4722913801670074,1,-0.1137184724211693,1,-0.2028920650482178,1
1771621844742381824,0.01618207804858685,1,0.003383470699191093,1,0.2708353698253632,1,0.2925462126731873,1,-0.509813129901886,1,0.1487521231174469,1
1771621844752825344,0.01399577781558037,1,-0.01123092044144869,1,0.2911364734172821,1,0.5467830300331116,1,-0.8483589887619019,1,-0.1594835668802261,1
1771621844763165440,0.04302340000867844,1,0.001272927154786885,1,0.2505776882171631,1,0.2398813217878342,1,-1.428427934646606,1,0.1145025938749313,1
1771621844773405440,0.06655552983283997,1,-0.006259668618440628,1,0.214604526758194,1,0.2049421221017838,1,-1.183738827705383,1,-0.2335489839315414,1
1771621844783545344,0.05092424526810646,1,0.0007976778433658183,1,0.08074349164962769,1,0.4192205369472504,1,-1.431448340415955,1,0.1710792034864426,1
1771621844793584896,0.01769974268972874,1,-0.002326417248696089,1,0.08418259769678116,1,-0.02128477208316326,1,-0.592225968837738,1,0.1834055185317993,1
1771621844803526912,-0.006938706617802382,1,-0.001638586516492069,1,0.0502721294760704,1,0.1139717921614647,1,-1.306649327278137,1,-0.2104182541370392,1
1771621844813376256,0.02058154158294201,1,-0.004410899709910154,1,0.09196097403764725,1,-0.03465182706713676,1,-1.492738723754883,1,-0.1163065284490585,1
1771621844823129088,-0.02075928635895252,1,-0.0013254334917292,1,0.1019470915198326,1,-0.3061276376247406,1,-1.25821578502655,1,0.2018717378377914,1
1771621844832785920,-0.02070565707981586,1,-0.0006474651163443923,1,0.09033697098493576,1,-0.173505112528801,1,-1.370974779129028,1,0.09204598516225815,1
1771621844842348032,-0.01376171410083771,1,-0.0003278518561273813,1,0.1217572912573814,1,-0.254364013671875,1,-1.219111084938049,1,-0.03780326619744301,1
1771621844851816192,-0.004869701340794563,1,0.004242363851517439,1,0.178571879863739,1,-0.3625815510749817,1,-1.061967968940735,1,0.08760418742895126,1
1771621844861191424,0.01165408175438643,1,-0.002740419469773769,1,0.2477306872606277,1,-0.1417507231235504,1,-1.41895866394043,1,-0.0010259646223858,1
1771621844871477760,-0.01910888962447643,1,0.001327996258623898,1,0.2435811012983322,1,-0.03112495131790638,1,-1.193035960197449,1,0.03578655049204826,1
1771621844882092544,-0.03029483370482922,1,-0.0001611452171346173,1,0.1103114262223244,1,0.2904824912548065,1,-0.4150247573852539,1,0.01649209298193455,1
1771621844892603648,-0.02154484763741493,1,-0.0007407215889543295,1,0.003407477168366313,1,-0.032166738063097,1,-0.1124127432703972,1,-0.08200832456350327,1
1771621844903011840,-0.05341861769556999,1,0.002998017007485032,1,0.02040881104767323,1,-0.04804804548621178,1,-0.1838833391666412,1,-0.02295803278684616,1
1771621844913317376,-0.08737681061029434,1,0.001622486975975335,1,0.1345173269510269,1,-0.06412087380886078,1,-0.9712743759155273,1,-0.0648266077041626,1
1771621844923521792,-0.1988932490348816,1,0.002415221417322755,1,0.1596338301897049,1,0.01723418198525906,1,-0.2037089765071869,1,-0.07178840041160583,1
1771621844933630464,-0.2140617966651917,1,0.002959623001515865,1,0.1311528384685516,1,0.2613725364208221,1,-0.2411788403987885,1,0.04575234279036522,1
1771621844943638528,-0.1836144328117371,1,0.003158481558784842,1,0.08960505574941635,1,0.2083762586116791,1,-0.4538348317146301,1,0.1310684233903885,1
1771621844953549568,-0.1368535459041595,1,0.006995656061917543,1,0.00193124683573842,1,0.3053568601608276,1,-0.2041723430156708,1,0.08437274396419525,1
1771621844963363584,-0.07048921287059784,1,0.006427264306694269,1,-0.02270005457103252,1,0.2563478946685791,1,-0.3526777923107147,1,0.210736483335495,1
1771621844973081088,-0.04106520861387253,1,-0.003061756491661072,1,-0.06180739775300026,1,0.1543706059455872,1,-0.286281019449234,1,0.1162025183439255,1
1771621844982702848,-0.0281617883592844,1,0.00261891121044755,1,-0.03856208547949791,1,0.03583808615803719,1,-0.4286441206932068,1,0.02906437031924725,1
1771621844992231936,-0.007704722695052624,1,0.001233063987456262,1,-0.02520849741995335,1,0.05175340920686722,1,-0.5006123781204224,1,0.03590608760714531,1
1771621845001666816,-0.009598655626177788,1,0.001398419379256666,1,-0.0479116253554821,1,0.01703032664954662,1,-0.3823266625404358,1,-0.6041420102119446,1
1771621845011155968,0.07156942039728165,1,0.004511860199272633,1,0.03487036004662514,1,-0.01512395404279232,1,-1.096929907798767,1,0.1295744329690933,1
1771621845021824768,0.00215466134250164,1,-0.002016562270000577,1,-0.04532189294695854,1,0.1712263077497482,1,-0.7000676393508911,1,-0.2906754314899445,1
1771621845032387584,-0.0397966094315052,1,-0.007597653660923243,1,-0.1294988542795181,1,0.1526917219161987,1,-1.845342993736267,1,0.03396282345056534,1
1771621845042847744,-0.02850796282291412,1,0.00303751858882606,1,-0.1914594620466232,1,0.3483488857746124,1,-1.129807949066162,1,-0.1851005107164383,1
1771621845053204224,-0.01364880055189133,1,-0.0007417886517941952,1,-0.2130840569734573,1,-0.02083884738385677,1,-1.794750094413757,1,-0.03510861471295357,1
1771621845063459584,-0.007388186641037464,1,-0.004642776679247618,1,-0.2499649673700333,1,-0.1038477718830109,1,-1.780471682548523,1,0.3945169746875763,1
1771621845073614592,-0.1215569749474525,1,0.01145976595580578,1,-0.3492361903190613,1,-0.1182467862963676,1,-1.639116168022156,1,0.1782605946063995,1
1771621845083669248,-0.00659530982375145,1,0.006308907642960548,1,-0.1885102093219757,1,-0.6665423512458801,1,-1.392197847366333,1,0.449833869934082,1
1771621845093623808,-0.07733903825283051,1,-0.002017422346398234,1,-0.1597208231687546,1,-0.4255465269088745,1,-0.9386301636695862,1,0.0416208952665329,1
1771621845103480064,-0.0369449220597744,1,0.003577513387426734,1,-0.006529767997562885,1,-0.6112059950828552,1,-0.9763991236686707,1,0.2618595957756042,1
1771621845113240064,-0.03021256625652313,1,-0.02079080976545811,1,0.1438759565353394,1,-1.340284466743469,1,-2.046756505966187,1,1.336209893226624,1
1771621845122902784,-0.05070729926228523,1,-0.03055496141314507,1,0.175042524933815,1,-0.6697004437446594,1,-1.629764556884766,1,0.2153449803590775,1
1771621845132471040,-0.04214974492788315,1,0.01537877600640059,1,0.2723846137523651,1,-0.427922397851944,1,-0.8752624988555908,1,0.436180055141449,1
1771621845141944832,0.03281918168067932,1,0.01504818722605705,1,0.2397884130477905,1,-0.03866598755121231,1,-0.9882397651672363,1,-0.1670229583978653,1
1771621845151324160,0.03084671683609486,1,0.001132729579694569,1,0.2466111183166504,1,-0.8410019874572754,1,-1.246949553489685,1,1.176967024803162,1
1771621845161330688,0.07462020963430405,1,-0.02159614115953445,1,0.2518059015274048,1,-0.9197178483009338,1,-0.7104056477546692,1,0.7001212239265442,1
1771621845171956992,-0.03951231390237808,1,-0.01109837740659714,1,0.1665989309549332,1,0.4276752769947052,1,-0.1071690246462822,1,-0.303960770368576,1
1771621845182478080,-0.0340011864900589,1,0.001878929440863431,1,0.1974237859249115,1,-0.1051203906536102,1,-0.690617561340332,1,0.4643823504447937,1
1771621845192896768,-0.05845173820853233,1,-0.009144417941570282,1,0.1292794793844223,1,0.2230004817247391,1,-0.3557150065898895,1,0.1497369110584259,1
1771621845203211776,0.09225015342235565,1,-0.009549891576170921,1,0.2047815024852753,1,-0.1960841119289398,1,-0.5814211368560791,1,-0.30159991979599,1
1771621845213426176,0.05658489465713501,1,0.03686375170946121,1,0.159433051943779,1,-0.002354972762987018,1,-1.293953657150269,1,1.454946994781494,1
1771621845223541248,0.1327057182788849,1,0.008276630192995071,1,0.1244087591767311,1,-0.3474014699459076,1,-1.375776648521423,1,1.176097750663757,1
1771621845233555968,0.1503607779741287,1,-0.006649136543273926,1,0.1086740717291832,1,0.7319480180740356,1,1.482488751411438,1,-1.457443594932556,1
1771621845243471104,0.1658751368522644,1,-0.01352155581116676,1,0.001585328485816717,1,0.8296411633491516,1,-0.3794041275978088,1,0.386636346578598,1
1771621845253289472,0.2150460779666901,1,-0.01694879122078419,1,-0.1163382604718208,1,0.9061408638954163,1,-0.9571879506111145,1,0.3375944495201111,1
1771621845263010560,0.2176963686943054,1,0.002275050152093172,1,-0.2356491833925247,1,0.7999389171600342,1,-0.9946860074996948,1,0.02438515424728394,1
1771621845272634880,0.152087077498436,1,0.01138358283787966,1,-0.2847873270511627,1,0.3961362242698669,1,-0.5763460397720337,1,-0.02158119156956673,1
1771621845282165760,0.1435975730419159,1,-0.01382934115827084,1,-0.2608195543289185,1,-0.1965864151716232,1,0.2688131332397461,1,-0.6328036785125732,1
1771621845291601920,0.111457921564579,1,0.00119456194806844,1,-0.1828747391700745,1,-0.1123631149530411,1,-0.3470597565174103,1,-0.02724121324717999,1
1771621845300944128,0.05702784284949303,1,-0.01237098313868046,1,-0.1815177500247955,1,0.1579872518777847,1,-0.4734647274017334,1,-0.07751612365245819,1
1771621845311635712,0.03359902277588844,1,-0.007799037732183933,1,-0.1903308629989624,1,0.267828494310379,1,-0.7778724431991577,1,-0.1036966592073441,1
1771621845322221568,0.09817096590995789,1,-0.008557087741792202,1,-0.2044248878955841,1,0.271608293056488,1,-1.32632577419281,1,0.1126373186707497,1
1771621845332704768,-9.085220517590642e-05,1,-0.002175145549699664,1,-0.2656135261058807,1,0.1199807748198509,1,-0.4109321236610413,1,0.6409661173820496,1
1771621845343086848,0.03421824425458908,1,0.001054053311236203,1,-0.2500506341457367,1,0.1399925351142883,1,-1.200488090515137,1,-0.216411367058754,1
1771621845353368320,0.0132046639919281,1,-0.00793098658323288,1,-0.1718942075967789,1,-0.1995514631271362,1,-0.7709220051765442,1,-0.1788331866264343,1
1771621845363550720,-0.01087607070803642,1,-0.008765775710344315,1,-0.2394347935914993,1,0.1580641716718674,1,-0.7024654746055603,1,-0.2004211097955704,1
1771621845373634560,-0.009448994882404804,1,0.005821973085403442,1,-0.2366617769002914,1,-0.1335206478834152,1,0.2960931062698364,1,0.2682376503944397,1
1771621845383619840,0.01196989603340626,1,0.0001933278981596231,1,-0.2127530723810196,1,0.1855518966913223,1,-0.4104492664337158,1,-0.1020302176475525,1
1771621845393506304,0.009659403935074806,1,0.00179303262848407,1,-0.1419558674097061,1,-0.1402864307165146,1,-0.4165051579475403,1,-0.08054174482822418,1
1771621845403294464,0.01796425506472588,1,-0.004781578201800585,1,-0.1006054133176804,1,-0.1056094765663147,1,-0.7414999008178711,1,0.1527253836393356,1
1771621845412987392,0.0424966961145401,1,-0.007080012932419777,1,-0.07097350805997849,1,0.1166913211345673,1,-1.372206330299377,1,-0.04462002962827682,1
1771621845422585600,-0.004330887924879789,1,-0.0002570857177488506,1,-0.06733030825853348,1,-0.1724659949541092,1,-0.4644766747951508,1,-0.07793641090393066,1
1771621845432089344,0.0305850263684988,1,-0.005974748637527227,1,-0.07464578747749329,1,-0.3240254819393158,1,-0.2288016080856323,1,-0.2563756704330444,1
1771621845441498624,-0.005302367731928825,1,0.002348354319110513,1,-0.02037386409938335,1,-0.1015214845538139,1,-0.3999786972999573,1,-0.2482058107852936,1
1771621845451243008,0.004216883797198534,1,-0.000980355660431087,1,-0.02329066023230553,1,-0.1768087595701218,1,-0.5305657386779785,1,0.1319934576749802,1
1771621845461889024,0.01614473201334476,1,-0.01697081886231899,1,-0.143742561340332,1,0.6679581999778748,1,-0.8715594410896301,1,0.8647173047065735,1
1771621845472431616,0.01469979621469975,1,0.003545187879353762,1,-0.07693552225828171,1,0.3672733902931213,1,-0.3223125338554382,1,-0.1262375861406326,1
1771621845482873344,0.009041390381753445,1,0.02120289392769337,1,-0.07053285837173462,1,0.03899301216006279,1,-0.479869931936264,1,-0.2979758977890015,1
1771621845493213952,0.008230284787714481,1,-0.01133381389081478,1,-0.03229840099811554,1,0.116749107837677,1,-0.06170318275690079,1,0.1193784400820732,1
1771621845503452416,0.02789349667727947,1,-0.006785955280065536,1,-0.03533171489834785,1,-0.1111233904957771,1,-0.2671405971050262,1,0.05150622129440308,1
1771621845513591808,-0.006747232750058174,1,0.005255289375782013,1,0.02577210962772369,1,-0.1669747084379196,1,-0.0583353117108345,1,0.007040681783109903,1
1771621845523632640,0.02807494066655636,1,-0.01187809649854898,1,0.006667402572929859,1,0.1928348243236542,1,-0.3039533495903015,1,0.0935569703578949,1
1771621845533575168,0.00798865407705307,1,0.004765280988067389,1,-0.01646903902292252,1,-0.1727718114852905,1,-0.06489302217960358,1,-0.2814865112304688,1
1771621845543421952,-0.002100498648360372,1,0.00145716208498925,1,-0.02059055119752884,1,0.165595531463623,1,-0.5877754092216492,1,0.07115552574396133,1
1771621845553179648,0.03115245513617992,1,-0.02673534862697124,1,-0.001644635922275484,1,0.04417085275053978,1,0.0252118855714798,1,0.02869977802038193,1
1771621845562843648,0.03975169360637665,1,-0.006277990993112326,1,-0.01713587157428265,1,0.249454602599144,1,-0.1894179880619049,1,0.4372183680534363,1
1771621845572411136,0.01774540729820728,1,-0.007852022536098957,1,-0.03294491767883301,1,-0.1824724972248077,1,-0.7757814526557922,1,0.551002562046051,1
1771621845581886208,-0.0588701143860817,1,0.01020807307213545,1,-0.05582840368151665,1,-0.3867931663990021,1,-1.042438507080078,1,0.0043230801820755,1
1771621845591266816,-0.1084566041827202,1,0.02134335041046143,1,-0.003737747203558683,1,-1.032882213592529,1,0.3544058799743652,1,0.3110386431217194,1
1771621845601551872,-0.1183415502309799,1,-0.002811507554724813,1,-0.03973869234323502,1,-0.6583481431007385,1,0.2216413021087646,1,-0.6789898872375488,1
1771621845612161536,-0.105931356549263,1,-0.004033455159515142,1,0.04679135978221893,1,-1.375142693519592,1,-0.1700384467840195,1,-0.3756065666675568,1
1771621845622667776,-0.1388870477676392,1,-0.001275474554859102,1,0.1402601301670074,1,-1.074996709823608,1,-0.3294577896595001,1,0.2006504237651825,1
1771621845633069312,-0.1501125544309616,1,0.006111004389822483,1,0.1585230678319931,1,-0.3288576304912567,1,-0.02997822873294353,1,0.3247039914131165,1
1771621845643368448,-0.08722918480634689,1,-0.005463548470288515,1,0.2354701906442642,1,-0.3574672341346741,1,0.6773765087127686,1,-0.02319660410284996,1
1771621845653570048,-0.05238638445734978,1,-0.003010499523952603,1,0.3432518243789673,1,-0.2523375153541565,1,0.2768115699291229,1,0.3241404294967651,1
1771621845663669504,0.05763473734259605,1,0.006279865279793739,1,0.5027160048484802,1,-0.1219335645437241,1,-0.03129715099930763,1,0.07835594564676285,1
1771621845673670912,-0.004212982021272182,1,-0.001796734286472201,1,0.4541010558605194,1,-0.03697533905506134,1,-0.1834463477134705,1,0.1942230015993118,1
1771621845683572480,-0.04561784863471985,1,0.001006930484436452,1,0.4502363204956055,1,0.1401704400777817,1,-0.2679338753223419,1,-0.1104590594768524,1
1771621845693375744,-0.05092527344822884,1,0.00468005333095789,1,0.3511678874492645,1,0.2955169379711151,1,0.1517125070095062,1,-0.230619490146637,1
1771621845703084032,-0.05373643338680267,1,-0.003452768549323082,1,0.2279641926288605,1,-0.1275868713855743,1,-0.2741372585296631,1,0.3143056035041809,1
1771621845712695552,-0.09116421639919281,1,-0.002051187213510275,1,0.198837012052536,1,-0.4514317810535431,1,-0.02216055057942867,1,-0.03889773413538933,1
1771621845722212096,-0.1259849071502686,1,-0.00975132267922163,1,0.1249553933739662,1,-0.2001524269580841,1,-0.4408880472183228,1,0.5860194563865662,1
1771621845731635968,-0.165789470076561,1,0.024613406509161,1,0.1644385904073715,1,-0.5020300149917603,1,0.222643181681633,1,0.5577968955039978,1
1771621845741108736,-0.01698715798556805,1,-0.009403451345860958,1,0.3314959406852722,1,-1.13598096370697,1,0.3845230042934418,1,-0.5745071768760681,1
1771621845751769088,-0.05266520008444786,1,-0.02629060670733452,1,0.4310054779052734,1,-2.168852567672729,1,-0.1256661713123322,1,-0.2620480358600616,1
1771621845762322944,-0.04570107161998749,1,-0.02186968922615051,1,0.6130722165107727,1,-1.829228401184082,1,1.004625797271729,1,1.323675036430359,1
1771621845772774400,0.1452784687280655,1,-0.063530333340168,1,0.6841835379600525,1,-0.8876185417175293,1,-0.4889216125011444,1,1.236039876937866,1
1771621845783124480,0.1026734188199043,1,-0.02434612810611725,1,0.662558913230896,1,-0.2587281465530396,1,0.07820521295070648,1,0.3742473721504211,1
1771621845793372160,0.1705565452575684,1,-0.002734282985329628,1,0.6336179375648499,1,-0.2162565439939499,1,-1.969327330589294,1,2.162073850631714,1
1771621845803519232,-0.04561047255992889,1,-0.01697866059839725,1,0.5120043158531189,1,0.1310862004756927,1,-0.1437315046787262,1,-0.01400542259216309,1
1771621845813565440,-0.004753623623400927,1,-0.01975715160369873,1,0.5117974877357483,1,1.069025278091431,1,0.1093807443976402,1,-0.8823271989822388,1
1771621845823511808,-0.06337549537420273,1,0.01399773266166449,1,0.4577963352203369,1,0.6758702993392944,1,0.8614915013313293,1,0.4768896698951721,1
1771621845833361408,0.1310697793960571,1,-0.01677333749830723,1,0.5127167105674744,1,0.2915907204151154,1,0.6537734270095825,1,-0.7608826160430908,1
1771621845843118080,0.1523126065731049,1,0.004850720521062613,1,0.5156494975090027,1,0.6598190069198608,1,-0.1864392757415771,1,-0.1050536558032036,1
1771621845852779264,0.08324097096920013,1,-0.02378890663385391,1,0.5166081190109253,1,0.5788735151290894,1,-0.3133825957775116,1,0.1171427816152573,1
1771621845862345472,0.0345444455742836,1,-0.02801439538598061,1,0.5179917216300964,1,0.7155302762985229,1,0.6427041888237,1,0.08350419253110886,1
1771621845871816448,0.08593500405550003,1,-0.01049575489014387,1,0.417796403169632,1,1.526094913482666,1,1.000592947006226,1,0.3151191771030426,1
1771621845881194496,0.120140053331852,1,0.009031099267303944,1,0.3463548123836517,1,1.810794591903687,1,0.7877755165100098,1,-0.384363979101181,1
1771621845891343104,0.1670230329036713,1,0.001207723980769515,1,0.2327645719051361,1,0.8416045308113098,1,-0.5512716174125671,1,0.4651162028312683,1
1771621845901965568,0.06381943076848984,1,-0.02257741615176201,1,0.06485176086425781,1,0.9423747658729553,1,-0.3713262379169464,1,-0.2205529510974884,1
1771621845912483328,-0.01143185980618,1,-0.002388652181252837,1,0.001214632648043334,1,0.5274459719657898,1,0.4154459834098816,1,-0.4723396003246307,1
1771621845922898944,-0.05611003562808037,1,-0.01181815564632416,1,0.09726205468177795,1,-0.2658040225505829,1,0.7798363566398621,1,-0.1723251938819885,1
1771621845933212672,-0.1123550906777382,1,-0.004847951233386993,1,0.1941164582967758,1,-0.1480846852064133,1,0.8322409391403198,1,-0.4349390864372253,1
1771621845943422976,-0.1504551619291306,1,-0.01095510181039572,1,0.3855452239513397,1,-0.4652759730815887,1,0.4926227629184723,1,-0.1066850051283836,1
1771621845953534976,-0.1564217507839203,1,-0.0004850956902373582,1,0.3966508209705353,1,0.4191745817661285,1,-0.04981663078069687,1,-0.08855719864368439,1
1771621845963545600,-0.1793153584003448,1,0.0003099234018009156,1,0.4192007780075073,1,0.6274978518486023,1,0.29543337225914,1,-0.06740584224462509,1
1771621845973458432,-0.1218037754297256,1,0.001675091916695237,1,0.3865106403827667,1,0.8760113716125488,1,0.4670780599117279,1,0.3994402587413788,1
1771621845983273472,0.004705774132162333,1,-0.01373502518981695,1,0.3053800165653229,1,0.9622578620910645,1,0.8864186406135559,1,0.2738236784934998,1
1771621845992993024,0.04455653578042984,1,0.004746412858366966,1,0.2034597545862198,1,0.8288036584854126,1,0.235853835940361,1,0.05842486396431923,1
1771621846002620672,0.02905593439936638,1,-0.01517685502767563,1,0.1094668880105019,1,0.1041411831974983,1,-0.2651263475418091,1,0.03103112429380417,1
1771621846012155648,-0.01521313656121492,1,-0.01185722649097443,1,0.07397943735122681,1,-0.08248158544301987,1,-0.265010803937912,1,0.2445689588785172,1
1771621846021595648,-0.09839039295911789,1,-0.007576872128993273,1,0.0179450549185276,1,0.3357458114624023,1,0.00739422207698226,1,-0.5630361437797546,1
1771621846031087360,-0.003390307305380702,1,-0.006839866749942303,1,0.1571285128593445,1,-0.7740788459777832,1,0.452820897102356,1,-0.03502002730965614,1
1771621846041769984,-0.02507880143821239,1,-0.03523982316255569,1,0.2137957066297531,1,-0.8782739043235779,1,-0.7292993068695068,1,1.446447253227234,1
1771621846052347136,-0.0288271103054285,1,-0.008804808370769024,1,0.2723500430583954,1,-0.7445831894874573,1,-0.05750945582985878,1,0.7443626523017883,1
1771621846062819328,0.06924410909414291,1,-0.01491060294210911,1,0.387818455696106,1,-1.370454072952271,1,1.351471424102783,1,-0.6635562181472778,1
1771621846073191168,0.08901987224817276,1,-0.003850116161629558,1,0.4509971141815186,1,0.02180500328540802,1,1.246323466300964,1,-0.002337760291993618,1
1771621846083461888,0.1430403739213943,1,-0.03510355576872826,1,0.4714969098567963,1,0.3074544966220856,1,0.5410618185997009,1,0.1226466447114944,1
1771621846093632000,-0.03484747931361198,1,-0.00903596542775631,1,0.2616632580757141,1,0.8743343353271484,1,-0.3822119832038879,1,0.5901868939399719,1
1771621846103700480,-0.008680522441864014,1,0.003292632522061467,1,0.1506562083959579,1,0.2510570883750916,1,-0.6245254278182983,1,-0.09578905999660492,1
1771621846113669120,-0.01052073761820793,1,0.01257740054279566,1,0.07609780877828598,1,-0.1436751633882523,1,-0.083443783223629,1,-0.2007518261671066,1
1771621846123540224,-0.1944137513637543,1,-0.0148273641243577,1,-0.03104347176849842,1,-0.05220857262611389,1,-0.3647037446498871,1,0.4008598327636719,1
1771621846133313792,-0.1306800544261932,1,0.008406572043895721,1,0.01169608347117901,1,-0.1151041239500046,1,0.2587251663208008,1,-0.9459319710731506,1
1771621846142991104,-0.045985147356987,1,-0.03568841144442558,1,0.1195566952228546,1,-0.5852969884872437,1,0.9391074776649475,1,-1.354594230651855,1
1771621846152573696,-0.02595041505992413,1,-0.01084217615425587,1,0.266575962305069,1,-0.6147004961967468,1,0.5219389796257019,1,-0.4962397813796997,1
1771621846162065920,0.05653958022594452,1,-0.03138888627290726,1,0.3414863049983978,1,-0.9249185919761658,1,-0.5539307594299316,1,0.338695228099823,1
1771621846171465984,0.03992986306548119,1,0.02386205270886421,1,0.4192222654819489,1,-0.1364502459764481,1,1.648023009300232,1,-0.1043097525835037,1
1771621846181345280,0.09891166538000107,1,-0.06281249970197678,1,0.477612167596817,1,-0.8832148313522339,1,-0.5850957036018372,1,0.1387258470058441,1
1771621846191983360,0.05034846812486649,1,-0.05080882087349892,1,0.474492996931076,1,-0.8785607814788818,1,-1.102248549461365,1,0.7084490060806274,1
1771621846202516736,0.03004186414182186,1,-0.03088700771331787,1,0.388452023267746,1,0.5323432683944702,1,-1.020494818687439,1,0.06270806491374969,1
1771621846212946432,0.004043327644467354,1,-0.005912547931075096,1,0.2768134474754333,1,0.9648716449737549,1,-0.248719647526741,1,0.4807740449905396,1
1771621846223273472,0.1700738221406937,1,-0.03240823000669479,1,0.256381094455719,1,-0.2941724061965942,1,-0.6333382129669189,1,0.3143219947814941,1
1771621846233500160,-0.0434836819767952,1,-0.03633011132478714,1,0.08264002948999405,1,1.372200012207031,1,0.7479110360145569,1,-0.4156481325626373,1
1771621846243627264,0.151876226067543,1,-0.0265978891402483,1,0.09746299684047699,1,0.3371763229370117,1,0.6628602147102356,1,-0.7490122318267822,1
1771621846253655296,0.1000062599778175,1,-0.01705021783709526,1,0.03947288542985916,1,0.5758928060531616,1,0.1882956027984619,1,1.141070365905762,1
1771621846263584256,0.09305295348167419,1,0.007601304445415735,1,0.03811584413051605,1,0.2054609656333923,1,0.3772302865982056,1,0.8179038763046265,1
1771621846273416192,0.1099844425916672,1,-0.02556511573493481,1,0.02817098423838615,1,0.1112552210688591,1,0.6012595295906067,1,0.3784680366516113,1
1771621846283151616,0.1760717034339905,1,-0.006552432663738728,1,0.02123462781310081,1,0.6276180744171143,1,0.8294878005981445,1,-0.2051762938499451,1
1771621846292791552,0.1740988343954086,1,-0.01553132198750973,1,0.03790780156850815,1,0.1791155934333801,1,0.2843593955039978,1,0.5182157754898071,1
1771621846302337792,0.1671106368303299,1,-0.01293434575200081,1,-0.01625903695821762,1,0.3351787030696869,1,0.331867128610611,1,0.003930318169295788,1
1771621846311789056,0.1658927351236343,1,-0.006315429229289293,1,-0.02818122133612633,1,0.3432552218437195,1,1.954201698303223,1,-0.1109756678342819,1
1771621846321148928,0.289044201374054,1,-0.02069546468555927,1,-0.1595284044742584,1,0.7904114127159119,1,0.464546799659729,1,-0.3686008751392365,1
1771621846331570432,0.2284019291400909,1,-0.0116637172177434,1,-0.227595716714859,1,0.726740300655365,1,0.5163064002990723,1,-0.3271866142749786,1
1771621846342177024,0.08681216835975647,1,-0.00988626666367054,1,-0.2160084992647171,1,0.6884449124336243,1,-0.02178489789366722,1,-0.1403437256813049,1
1771621846352679168,0.02470719069242477,1,-0.008817491121590137,1,-0.2730103433132172,1,0.6558150053024292,1,-0.4498709738254547,1,-0.2893818318843842,1
1771621846363079680,0.01304809469729662,1,-0.004944452550262213,1,-0.4175566434860229,1,0.5861135721206665,1,0.8832632899284363,1,0.06088630110025406,1
1771621846373377536,0.02127145417034626,1,0.002471186919137836,1,-0.4264377653598785,1,0.4055283665657043,1,1.312394261360168,1,0.403346985578537,1
1771621846383575808,-0.01167484000325203,1,-0.002292708028107882,1,-0.4247732758522034,1,0.04452870041131973,1,0.4996157288551331,1,0.09458024799823761,1
1771621846393673472,-0.04138697683811188,1,-0.003220248967409134,1,-0.3915460407733917,1,-0.2064408659934998,1,0.05602971091866493,1,-0.1224031299352646,1
1771621846403671296,-0.005725706461817026,1,5.854301707586274e-05,1,-0.3346574008464813,1,-0.5549259781837463,1,1.857531905174255,1,0.1024799048900604,1
1771621846413571584,0.0175281185656786,1,0.002098500030115247,1,-0.3382263481616974,1,0.06178085878491402,1,0.2305866777896881,1,-0.09550818055868149,1
1771621846423373312,0.01957820728421211,1,-0.01090369187295437,1,-0.1717604845762253,1,-0.3899988234043121,1,0.4289226233959198,1,-0.1191874146461487,1
1771621846433079296,0.02004474587738514,1,-0.007221505511552095,1,-0.226266160607338,1,-0.02045580931007862,1,0.7128527164459229,1,0.2232459336519241,1
1771621846442689536,0.009153373539447784,1,-0.003894765628501773,1,-0.06578338891267776,1,0.04059427231550217,1,1.030384302139282,1,0.07155017554759979,1
1771621846452204032,-0.003917466849088669,1,-0.004533575382083654,1,-0.0775919184088707,1,0.1870135515928268,1,0.342843234539032,1,-0.1362319588661194,1
1771621846461625856,-0.01442316267639399,1,-0.005857516545802355,1,-0.1960438638925552,1,0.8321818113327026,1,-0.2526892423629761,1,0.1748342663049698,1
1771621846471099648,-0.02757077291607857,1,0.005138922948390245,1,-0.4218394458293915,1,0.431167334318161,1,-0.3801628351211548,1,0.2637823522090912,1
1771621846481752832,0.0001485352840973064,1,0.003676823573186994,1,-0.3991304636001587,1,-0.4255139827728271,1,0.401218056678772,1,-0.2145108431577682,1
1771621846492300544,0.006310298107564449,1,-0.0089992955327034,1,-0.4290586411952972,1,0.338291734457016,1,0.06842103600502014,1,0.1351489573717117,1
1771621846502745600,0.009525522589683533,1,-0.002306072972714901,1,-0.4204866588115692,1,-0.5533196330070496,1,0.2871740162372589,1,0.008777373470366001,1
1771621846513088512,0.007228869944810867,1,8.824363249004818e-06,1,-0.615006685256958,1,1.017501831054688,1,0.6226239800453186,1,-0.210821121931076,1
1771621846523328512,0.008725966326892376,1,-0.005617729388177395,1,-0.2912798225879669,1,-0.9977006316184998,1,0.003913364373147488,1,-0.1393778175115585,1
1771621846533467136,0.003194274147972465,1,-0.004357721656560898,1,-0.321585476398468,1,-0.4463739991188049,1,0.9491817355155945,1,0.2419157028198242,1
1771621846543505408,0.006712530739605427,1,-0.004105366766452789,1,-0.2204790562391281,1,-0.07844854891300201,1,0.1609721183776855,1,-0.007452729158103466,1
1771621846553446144,-0.02355808392167091,1,0.003442487446591258,1,-0.1870729476213455,1,0.2852864861488342,1,0.9121869206428528,1,0.2722817063331604,1
1771621846563288576,0.0007788530201651156,1,-0.0004208979371469468,1,-0.175474226474762,1,0.3907817304134369,1,0.391205221414566,1,0.1324009597301483,1
1771621846573037312,0.001812741975300014,1,-0.001752334530465305,1,-0.2110240906476974,1,0.1667836904525757,1,0.5506160259246826,1,-0.02605288662016392,1
1771621846582690304,0.002391829853877425,1,-0.002886036178097129,1,-0.2553910315036774,1,0.1688746511936188,1,0.1201670691370964,1,-0.1839130818843842,1
1771621846592248320,-0.001721444656141102,1,-0.004433624446392059,1,-0.2980188727378845,1,-0.08993562310934067,1,-0.1641554236412048,1,0.1131534054875374,1
1771621846601711360,0.004267125390470028,1,-0.002215682528913021,1,-0.3118768334388733,1,-0.458301842212677,1,0.04635137692093849,1,-0.1247328147292137,1
1771621846611082240,0.009988958947360516,1,-0.01119653414934874,1,-0.2230964750051498,1,-0.5421320199966431,1,0.4076521396636963,1,0.02092763967812061,1
1771621846621369856,0.008248136378824711,1,-0.005219654180109501,1,-0.2396503686904907,1,-1.075933232641546e-05,1,-0.2270229309797287,1,0.08335695415735245,1
1771621846631987712,0.001773040392436087,1,-0.00869363360106945,1,-0.1823112666606903,1,-0.1091998070478439,1,0.008391380310058594,1,-0.1020068004727364,1
1771621846642501376,0.004208153113722801,1,-0.003204265842214227,1,-0.07410061359405518,1,-0.1729968339204788,1,1.002071142196655,1,0.09583224356174469,1
1771621846652913408,0.01196638401597738,1,-0.003049615537747741,1,-0.08708656579256058,1,-0.04773568734526634,1,0.3300359845161438,1,-0.07004918158054352,1
1771621846663224576,0.03340030834078789,1,-0.01411316264420748,1,-0.04606646299362183,1,-0.2767019271850586,1,0.5440770983695984,1,0.04218650609254837,1
1771621846673435648,0.05778298527002335,1,-0.02819530852138996,1,-0.08907381445169449,1,-0.410065770149231,1,0.0465516708791256,1,-0.129220262169838,1
1771621846683547392,0.05864468589425087,1,-0.02467032708227634,1,-0.1353400200605392,1,-0.4146439433097839,1,-0.2783953249454498,1,0.2856361567974091,1
1771621846693560576,0.01263613533228636,1,-0.002784473355859518,1,-0.1101348400115967,1,-0.7560824751853943,1,-0.1051097214221954,1,0.1620715707540512,1
1771621846703474944,-0.04034280404448509,1,0.02421269938349724,1,-0.007301701698452234,1,-0.828538179397583,1,0.5815661549568176,1,-0.07446730136871338,1
1771621846713291008,-0.04251667112112045,1,0.02228244207799435,1,0.02038438618183136,1,-0.3217732608318329,1,0.09254028648138046,1,0.1590825319290161,1
1771621846723010816,0.01050606928765774,1,-0.0002733131113927811,1,0.03212807700037956,1,-0.002369219902902842,1,0.1511011570692062,1,0.08535357564687729,1
1771621846732634624,0.02208429388701916,1,-0.01769224554300308,1,-0.174711674451828,1,0.588637113571167,1,-0.3794033229351044,1,0.0370546467602253,1
1771621846742162944,0.1075558364391327,1,-0.0531441755592823,1,-0.1693951934576035,1,-0.3936948478221893,1,-0.1179311573505402,1,-0.1802754998207092,1
1771621846751598848,0.08354815095663071,1,-0.04323026165366173,1,-0.1436323970556259,1,-0.37288498878479,1,0.3777211904525757,1,-0.1195883303880692,1
1771621846761084416,0.08791346848011017,1,-0.0435827299952507,1,-0.05712965130805969,1,-0.5060857534408569,1,0.7535049915313721,1,0.07006449997425079,1
1771621846771763200,0.05801821872591972,1,-0.02400337159633636,1,-0.02510735020041466,1,-0.7043473720550537,1,-0.837830662727356,1,-0.04193469509482384,1
1771621846782337792,0.03375053778290749,1,-0.01658131554722786,1,-0.1150736585259438,1,-0.3232652842998505,1,-0.7983084321022034,1,0.2974099516868591,1
1771621846792809984,-0.009966154582798481,1,0.01080566365271807,1,-0.09720277786254883,1,-0.4361115396022797,1,-0.2724936604499817,1,0.2161849588155746,1
1771621846803178752,0.0006911579403094947,1,-0.006477836985141039,1,-0.1470847427845001,1,1.047470927238464,1,0.8107544779777527,1,-0.5206004977226257,1
1771621846813445376,0.002822620794177055,1,-0.009462607093155384,1,-0.1883718371391296,1,-0.1847837716341019,1,-0.05034581944346428,1,0.411554366350174,1
1771621846823611136,0.004693298134952784,1,-0.00413568876683712,1,-0.1419679075479507,1,-0.1397965401411057,1,0.266459733247757,1,0.3759166896343231,1
1771621846833676288,0.01745005324482918,1,-0.009469381533563137,1,-0.0867016613483429,1,0.3475266695022583,1,0.7827619314193726,1,0.004948440007865429,1
1771621846843641600,-0.01197606977075338,1,0.0008362081134691834,1,-0.03082427009940147,1,-0.04007486626505852,1,0.75794517993927,1,-0.01724456995725632,1
1771621846853512704,-0.006060079671442509,1,-0.0005080779665149748,1,-0.02977653592824936,1,0.2980011403560638,1,0.6691899299621582,1,-0.10466618090868,1
1771621846863287808,0.03009079582989216,1,-0.01396972313523293,1,-0.03725762665271759,1,0.5708723068237305,1,1.067237377166748,1,-0.3688845336437225,1
1771621846872965888,-0.001183429616503417,1,0.0004893340519629419,1,-0.04267051070928574,1,0.2583304047584534,1,1.303697228431702,1,-0.08456879109144211,1
1771621846882550016,-0.002373421099036932,1,0.002004447858780622,1,0.08598632365465164,1,0.8739182353019714,1,0.6352424025535583,1,0.4999038875102997,1
1771621846892038400,0.002215510001406074,1,-0.001032527536153793,1,0.1008001565933228,1,0.3378041088581085,1,1.073149442672729,1,0.5658461451530457,1
1771621846901432576,-0.009191372431814671,1,0.004623889457434416,1,0.1145907640457153,1,0.4585513472557068,1,1.327195048332214,1,-0.1399537473917007,1
1771621846911305984,0.005307550076395273,1,0.000106226398202125,1,0.1787355542182922,1,0.2395387589931488,1,1.423524737358093,1,0.08975902199745178,1
1771621846921934592,-0.005829812958836555,1,0.003980139270424843,1,0.2379419207572937,1,0.3622832000255585,1,1.143884539604187,1,0.1122228801250458,1
1771621846932458752,0.00286955269984901,1,-0.0001643475552555174,1,0.2259499877691269,1,0.2267639487981796,1,1.263152122497559,1,0.0512370839715004,1
1771621846942882560,-0.001332734362222254,1,0.002183245960623026,1,0.2305452972650528,1,0.1305094212293625,1,1.331834316253662,1,0.02208484895527363,1
1771621846953201920,0.004361872095614672,1,-0.001940913498401642,1,0.2043253779411316,1,-0.2743020057678223,1,0.4288810789585114,1,0.1186769306659698,1
1771621846963421184,0.00706934928894043,1,-0.0021295843180269,1,0.1639745533466339,1,0.009605314582586288,1,0.4525185823440552,1,-0.03104978986084461,1
1771621846973539840,-0.01829823851585388,1,0.009170597419142723,1,0.1152682080864906,1,-0.007142271846532822,1,0.2390512526035309,1,0.07577377557754517,1
1771621846983559680,-0.01656839624047279,1,0.008294797502458096,1,0.0541037917137146,1,-0.05313186347484589,1,0.7615178823471069,1,0.06191586703062057,1
1771621846993480448,-0.008098352700471878,1,0.006191467866301537,1,0.006900541950017214,1,0.1363722532987595,1,1.239934802055359,1,-0.006590389180928469,1
1771621847003309824,-0.02241878770291805,1,0.01164573710411787,1,-0.01841657981276512,1,0.09624394029378891,1,1.115389227867126,1,0.04231351241469383,1
1771621847013044224,-0.03660161793231964,1,0.01826491951942444,1,-0.03268818557262421,1,-0.03038855642080307,1,0.6951917409896851,1,0.0692276656627655,1
1771621847022683648,-0.1075868904590607,1,0.05047348514199257,1,-0.0287772249430418,1,-0.04211884364485741,1,0.6408872008323669,1,0.05918503925204277,1
1771621847032229120,-0.1542562991380692,1,0.06949339807033539,1,-0.01826580800116062,1,-0.003513906616717577,1,0.6531276702880859,1,0.00138179596979171,1
1771621847041680128,-0.006617019884288311,1,0.002458282047882676,1,-0.03101410716772079,1,-0.09733065962791443,1,1.127207040786743,1,0.03420074656605721,1
1771621847051039744,-0.005310278851538897,1,0.001357541885226965,1,0.0001720572472549975,1,0.02241687662899494,1,0.07051310688257217,1,0.03474370017647743,1
1771621847061597440,-0.002124552614986897,1,0.001283900812268257,1,-0.0005939523107372224,1,0.002357568591833115,1,0.07028042525053024,1,0.04055332019925117,1
1771621847072195840,-0.002753035398200154,1,0.0002902118430938572,1,0.0003871139488182962,1,0.007756581529974937,1,0.05703398212790489,1,0.05253845080733299,1
1771621847082690304,-0.002261646557599306,1,0.001922208932228386,1,-0.0004597284714691341,1,0.01210721209645271,1,0.05680608004331589,1,0.03903142362833023,1
1771621847093081344,-0.0001985746348509565,1,0.0001360869937343523,1,-0.009403688833117485,1,0.002114974427968264,1,0.1171455159783363,1,0.03922300040721893,1
1771621847103372544,-0.002761767245829105,1,0.001765721011906862,1,-0.02812526002526283,1,-0.01393302995711565,1,0.1158801391720772,1,0.060947485268116,1
1771621847113561344,0.003405231516808271,1,-2.19543881030404e-06,1,-0.01068189181387424,1,0.04156768694519997,1,-0.16132852435112,1,0.01357467751950026,1
1771621847123648512,0.002450171392410994,1,-0.0008314207079820335,1,0.001028067083097994,1,-0.0007605228456668556,1,0.06834396719932556,1,0.03819932416081429,1
1771621847133637120,0.003612808184698224,1,-0.0006223742966540158,1,0.0008503595599904656,1,0.0004771334060933441,1,0.04626702889800072,1,0.04100777581334114,1
1771621847143527936,0.003653871826827526,1,-0.002082967665046453,1,0.0003258537035435438,1,0.01554553210735321,1,0.04424310103058815,1,0.03820507228374481,1
1771621847153326080,0.004204401280730963,1,-0.002355926437303424,1,-0.0001710554352030158,1,0.0139385936781764,1,0.0480041615664959,1,0.05110875889658928,1
1771621847163026688,0.005969705991446972,1,-0.001290117623284459,1,0.000538958003744483,1,0.01467450149357319,1,0.04657887667417526,1,0.05136891081929207,1
1771621847172632832,0.02237748727202415,1,-0.01193150505423546,1,0.00705795269459486,1,0.1570561081171036,1,0.316692590713501,1,0.01162507850676775,1
1771621847182144000,0.06029155850410461,1,-0.02713565900921822,1,0.1111656054854393,1,0.2274634540081024,1,0.4837551414966583,1,0.001284875557757914,1
1771621847191560192,0.125490739941597,1,-0.0576920211315155,1,0.1375482231378555,1,0.02176562324166298,1,0.1650530695915222,1,0.002214171690866351,1
1771621847201170432,0.1159563586115837,1,-0.05231881886720657,1,0.06642208993434906,1,-0.2524793148040771,1,-0.5113672018051147,1,0.1075514405965805,1
1771621847211819520,0.01400858350098133,1,-0.007253632880747318,1,0.04973416030406952,1,-0.1801442056894302,1,-0.2401869744062424,1,0.08108894526958466,1
1771621847222364416,0.004366819746792316,1,0.0004333260003477335,1,-0.001238502445630729,1,0.03103180974721909,1,0.05277794972062111,1,0.008685605600476265,1
1771621847232806400,-0.0005742160137742758,1,0.0006655392935499549,1,-0.000750097562558949,1,0.005198427475988865,1,0.04590965807437897,1,0.06813762336969376,1
1771621847243146240,0.002158403629437089,1,-0.000598774291574955,1,0.0005167733179405332,1,0.005415310151875019,1,0.02565173804759979,1,0.03909215703606606,1
1771621847253383680,0.00159757339861244,1,-0.001512927236035466,1,0.0007782952161505818,1,0.008067350834608078,1,0.04714298993349075,1,0.02919495478272438,1
1771621847263521280,-0.0001465411332901567,1,-0.001553695183247328,1,-0.0008075759978964925,1,0.02201204001903534,1,0.09437122195959091,1,0.06892985850572586,1
1771621847273556992,0.00135036394931376,1,-0.0001729615178192034,1,0.0004911432042717934,1,0.03547268733382225,1,0.1053439900279045,1,0.01544941868633032,1
1771621847283493120,-0.000518366985488683,1,0.00139174098148942,1,-0.0004657042445614934,1,0.01875995099544525,1,0.03568645194172859,1,0.05821604281663895,1
1771621847293332224,-0.001089038676582277,1,-0.001495291013270617,1,0.0007748655043542385,1,0.02488130517303944,1,0.0754682719707489,1,0.008652317337691784,1
1771621847303074048,0.0001593893393874168,1,-0.0001689016789896414,1,-0.0001264224993065,1,0.002604046370834112,1,0.0424102284014225,1,0.05707674846053123,1
1771621847312719616,0.0004581701359711587,1,0.0003234436735510826,1,0.0004906647372990847,1,0.006972122006118298,1,0.04269739240407944,1,0.03005045279860497,1
1771621847322270976,0.001626847544685006,1,0.0002778382622636855,1,-0.0001644293079152703,1,0.01117243524640799,1,0.05409275367856026,1,0.03272107243537903,1
1771621847331727104,0.001110661309212446,1,-0.0001816363073885441,1,0.0001170698305941187,1,0.01552869658917189,1,0.05155956000089645,1,0.03973059728741646,1
1771621847341091840,-0.0001249750494025648,1,0.001661870395764709,1,0.0005795717006549239,1,0.02270643971860409,1,0.04800750315189362,1,0.03333475440740585,1
1771621847351378432,9.9538556241896e-06,1,0.000351793976733461,1,-5.686642180080526e-05,1,-0.001192939234897494,1,0.03319688886404037,1,0.05089211836457253,1
1771621847361994240,0.001019517541863024,1,0.0006716478965245187,1,0.0004516619083005935,1,0.007688989397138357,1,0.03734458237886429,1,0.02746202982962132,1
1771621847372507136,0.001533159869723022,1,0.001190646435134113,1,0.0001528303982922807,1,0.004362861160188913,1,0.04935728386044502,1,0.05651586130261421,1
1771621847382916352,0.0007506635738536716,1,-0.001265023369342089,1,0.0006632097065448761,1,0.0133340721949935,1,0.05361134186387062,1,0.04631166160106659,1
1771621847393223424,0.001028667204082012,1,-0.0003866419719997793,1,0.0006942569743841887,1,0.008204596117138863,1,0.04754002392292023,1,0.04208606481552124,1
1771621847403427584,0.0005834131152369082,1,-0.0002909574541263282,1,0.0013079788768664,1,0.003584367455914617,1,0.04818274453282356,1,0.02531564049422741,1
1771621847413533952,0.0006108387024141848,1,0.0003432148660067469,1,0.0004985569976270199,1,0.006721327546983957,1,0.04250827804207802,1,0.04426146298646927,1
1771621847423541760,8.815934415906668e-05,1,-0.0002505766751710325,1,0.0009004066232591867,1,0.004594709724187851,1,0.04429155588150024,1,0.03734803944826126,1
1771621847433454336,-0.0008055037469603121,1,-0.0004073843883816153,1,0.0008959420956671238,1,0.009160798043012619,1,0.03656629100441933,1,0.04153373837471008,1
1771621847443268864,0.0002227382647106424,1,0.001676261890679598,1,-0.0007209592731669545,1,0.003684975439682603,1,0.036561269313097,1,0.0256720632314682,1
1771621847452987392,-0.0003884915495291352,1,-8.164916653186083e-05,1,-0.0002136508555850014,1,0.009450006298720837,1,0.05214232951402664,1,0.04902481660246849,1
1771621847462610432,0.001055817236192524,1,-0.0002213574480265379,1,-0.0004579239466693252,1,0.0105849402025342,1,0.03693477436900139,1,0.03883184492588043,1
1771621847472137472,-0.0004838438471779227,1,-0.0002026531146839261,1,-0.0008968625916168094,1,0.005234871990978718,1,0.04760855436325073,1,0.04457686468958855,1
1771621847481571584,5.505227818503045e-05,1,0.0009388195467181504,1,0.001615131855942309,1,0.01729894243180752,1,0.05482867360115051,1,0.04598216339945793,1
1771621847491055360,2.797785782604478e-05,1,0.0004856796585954726,1,-0.0006335441721603274,1,0.001717969542369246,1,0.04462181031703949,1,0.03285746276378632,1
1771621847501724928,0.000573004363104701,1,0.001052115811035037,1,-0.0006394964875653386,1,0.00427725026383996,1,0.04197365418076515,1,0.05501481890678406,1
1771621847512289536,0.0008922193665057421,1,7.978455687407404e-05,1,-7.304581959033385e-05,1,0.01030174922198057,1,0.05818900093436241,1,0.05770021677017212,1
1771621847522749184,0.0005732409190386534,1,0.0003375561500433832,1,0.0001631782070035115,1,0.00846595037728548,1,0.0397304892539978,1,0.05745858699083328,1
1771621847533108480,-4.194650682620704e-05,1,-0.0008920395048335195,1,-0.0007146979914978147,1,0.01605713367462158,1,0.04619759321212769,1,0.03431723639369011,1
1771621847543368192,-0.0006420569261536002,1,-0.0001471001451136544,1,0.0006253378232941031,1,0.00943046435713768,1,0.05094793811440468,1,0.03044728748500347,1
1771621847553526272,0.0006654801545664668,1,-0.001135297352448106,1,-0.0006038461579009891,1,0.001800575759261847,1,0.04319451004266739,1,0.03464787825942039,1
1771621847563584768,-0.0009024654282256961,1,0.0001816089061321691,1,0.0004389134701341391,1,0.00326048769056797,1,0.05000092089176178,1,0.04842235520482063,1
1771621847573543936,-0.0001236695097759366,1,-0.002419129712507129,1,0.0002417038194835186,1,0.008434757590293884,1,0.05140207335352898,1,0.04000978916883469,1
1771621847583403776,0.000848099123686552,1,0.0002156060218112543,1,0.0006147089879959822,1,0.009589098393917084,1,0.03959722816944122,1,0.03884471580386162,1
1771621847593167616,-7.302261656150222e-05,1,0.0002013365301536396,1,9.610898996470496e-05,1,0.01353808213025331,1,0.0494995154440403,1,0.03460824117064476,1
1771621847602834688,-0.001163217588327825,1,0.0007140354719012976,1,0.0006242555100470781,1,-0.004926864523440599,1,0.04651222378015518,1,0.04487457871437073,1
1771621847612406784,0.002262683119624853,1,0.0002645462809596211,1,0.00092625233810395,1,0.01797805912792683,1,0.05065537244081497,1,0.02290760166943073,1
1771621847621884928,-0.005510242190212011,1,0.002641374943777919,1,-0.0002074929652735591,1,0.02807289361953735,1,0.0491575226187706,1,0.05615879967808723,1
1771621847631268608,-0.0009413432562723756,1,0.001510508242063224,1,0.001580874086357653,1,0.02615107037127018,1,0.09193650633096695,1,0.01890531554818153,1
1771621847641279232,0.009128939360380173,1,-0.003774877637624741,1,0.001540938043035567,1,-0.02712621912360191,1,-0.01465220097452402,1,0.06343254446983337,1
1771621847651904512,-0.002852390287443995,1,0.0007785176858305931,1,0.000216558575630188,1,0.007505291141569614,1,0.04900960996747017,1,0.04630337283015251,1
1771621847662426112,0.001602131524123251,1,-0.0009785108268260956,1,0.0008066911250352859,1,0.001810271758586168,1,0.03913223370909691,1,0.0436665304005146,1
1771621847672846080,-0.001269814092665911,1,-0.001020660041831434,1,0.0007801203755661845,1,0.00645515788346529,1,0.04101287201046944,1,0.05623308196663857,1
1771621847683162880,-0.002190175000578165,1,0.0004792147956322879,1,0.0002189197111874819,1,0.005955419968813658,1,0.04542667791247368,1,0.04155086725950241,1
1771621847693378560,0.0002417400974081829,1,-0.0002206148492405191,1,0.001042311429046094,1,0.0002192588581237942,1,0.03855785727500916,1,0.05023301765322685,1
1771621847703493120,0.0007330664666369557,1,-0.0007526997942477465,1,0.001184752210974693,1,0.01337404549121857,1,0.04035088792443275,1,0.04155369475483894,1
1771621847713507072,8.681553299538791e-05,1,-0.0007510741124860942,1,0.0004259510897099972,1,0.005328262690454721,1,0.04688788205385208,1,0.04125424474477768,1
1771621847723423488,-0.001612506690435112,1,4.969010842614807e-05,1,-0.0009353157365694642,1,0.0005305134109221399,1,0.04505207762122154,1,0.03347949683666229,1
1771621847733243392,0.001452509080991149,1,-0.000329071277519688,1,-0.0009507291251793504,1,-0.0008275071159005165,1,0.04649169743061066,1,0.03049047291278839,1
1771621847742966016,0.0004815882712136954,1,0.0001975787454284728,1,0.001200535683892667,1,0.008144726045429707,1,0.04810181632637978,1,0.04665808007121086,1
1771621847752592128,-0.001652029226534069,1,0.0002279440523125231,1,0.0009717992506921291,1,0.005222439765930176,1,0.03826360404491425,1,0.04456494748592377,1
1771621847762125056,0.001001620199531317,1,0.001047144061885774,1,0.0005387773271650076,1,0.005440209526568651,1,0.04868033528327942,1,0.04571812599897385,1
1771621847771566336,0.0005081375129520893,1,-0.001201541279442608,1,0.0007294986862689257,1,-0.007372233085334301,1,0.04329146072268486,1,0.036855299025774,1
1771621847780930304,-0.002659183228388429,1,0.0002526877797208726,1,-0.0001658295514062047,1,-0.03122407197952271,1,-0.02162386849522591,1,0.06277363002300262,1
1771621847791621120,0.0005427462165243924,1,0.0004398559685796499,1,0.0004987430293112993,1,0.01322017703205347,1,0.06292940676212311,1,0.04389612749218941,1
1771621847802207744,0.0002760317001957446,1,-1.458941915188916e-05,1,0.0002367733977735043,1,0.004043231252580881,1,0.03917145729064941,1,0.0517442524433136,1
1771621847812690176,0.0007790152449160814,1,0.0002733116270974278,1,4.107283893972635e-05,1,0.02412009052932262,1,0.07315295934677124,1,0.01625009439885616,1
1771621847823070976,-0.01438812632113695,1,0.006570213939994574,1,0.0004141363315284252,1,0.07200474292039871,1,0.2011586874723434,1,0.01015799399465322,1
1771621847833349376,0.007030461449176073,1,-0.004005585797131062,1,-0.0008669759845361114,1,0.01605837419629097,1,0.06044626608490944,1,0.03545894846320152,1
1771621847843525376,0.00948333740234375,1,-0.003327210200950503,1,-0.0002621373860165477,1,-0.01432355958968401,1,0.005235604010522366,1,0.04827522113919258,1
1771621847853603072,-0.002865905407816172,1,0.00185213575605303,1,-0.0005227815127000213,1,0.0108947129920125,1,0.02578101865947247,1,0.05324111506342888,1
1771621847863580416,-0.005094508174806833,1,0.002172177890315652,1,0.000333128497004509,1,-0.004747272934764624,1,0.03480162099003792,1,0.009214980527758598,1
1771621847873461504,0.0009003530140034854,1,-0.0009428234770894051,1,-0.0006137083983048797,1,0.01285950001329184,1,0.04778776317834854,1,0.01633076369762421,1
1771621847883248896,0.0005480437539517879,1,0.0007504455279558897,1,0.0008147202897816896,1,0.01378140971064568,1,0.03292486444115639,1,0.02201001718640327,1
1771621847892938752,0.001458808430470526,1,0.0004889349802397192,1,0.0005356505280360579,1,0.006493059918284416,1,0.05931240320205688,1,0.04692929238080978,1
1771621847902533888,-0.002383923623710871,1,0.0005029331659898162,1,-0.0003208561101928353,1,0.008988827466964722,1,0.0494786761701107,1,0.01486068591475487,1
1771621847912034304,0.001196462661027908,1,-0.000545721675734967,1,-0.0002616496058180928,1,0.005233812611550093,1,0.05379581078886986,1,0.04962216690182686,1
1771621847921440256,-0.000292102136882022,1,-0.0001974933256860822,1,0.0007764683105051517,1,0.008440243080258369,1,0.042558703571558,1,0.04423719272017479,1
1771621847931183616,-0.000998079776763916,1,-0.0006363932625390589,1,0.0002436783397570252,1,0.009592955000698566,1,0.03706023469567299,1,0.05535535141825676,1
1771621847941829376,0.0005430259043350816,1,0.0002938875986728817,1,0.0007718962151557207,1,0.01018928643316031,1,0.0269534457474947,1,0.04752923920750618,1
1771621847952370688,-0.002714134054258466,1,0.0006426643813028932,1,-0.0001029777340590954,1,0.01521953474730253,1,0.03906594961881638,1,0.05950327590107918,1
1771621847962809088,-0.003651073668152094,1,0.001892897882498801,1,-9.409615813638084e-06,1,0.01497261039912701,1,0.05234475061297417,1,0.05589226260781288,1
1771621847973144832,-0.005179997533559799,1,0.003060320625081658,1,0.001407295698300004,1,0.03057508170604706,1,0.04836405068635941,1,0.04742294177412987,1
1771621847983379712,-0.007388343568891287,1,0.003038133261725307,1,-0.0004085996188223362,1,0.01646027714014053,1,0.06545430421829224,1,0.04597963765263557,1
1771621847993512192,0.001834014081396163,1,0.0007178196683526039,1,0.0001942351227626204,1,0.01123504620045424,1,0.04596826806664467,1,0.0331711620092392,1
1771621848003546880,0.00311178108677268,1,-0.003020962933078408,1,-0.000153321772813797,1,-0.007677189074456692,1,0.05104232951998711,1,0.04577653855085373,1
1771621848013481472,-0.0002597608545329422,1,-0.002465396653860807,1,-0.0006686733104288578,1,-0.008797118440270424,1,0.05673442780971527,1,0.03827019780874252,1
1771621848023319296,-0.002040039980784059,1,0.0009727042051963508,1,0.0002849714364856482,1,0.02104176767170429,1,0.04548940807580948,1,0.05677162855863571,1
1771621848033059840,0.0001944704854395241,1,0.0007967150304466486,1,0.0001675371313467622,1,-0.005811857059597969,1,0.05593465641140938,1,0.02810083143413067,1
1771621848042704896,0.003379163332283497,1,-0.001346966018900275,1,0.0002660515019670129,1,0.03482269868254662,1,0.03506400063633919,1,0.1083417385816574,1
1771621848052254976,0.004380261991173029,1,-0.005331653635948896,1,0.000609374837949872,1,0.03223145380616188,1,0.02316194958984852,1,0.1566140204668045,1
1771621848061713152,-0.004895777441561222,1,0.001659897388890386,1,0.0001314393011853099,1,-0.004783834796398878,1,0.001115400693379343,1,-0.04408755898475647,1
1771621848071083520,-0.01389905344694853,1,0.008245876058936119,1,0.0007468999829143286,1,-0.02457065880298615,1,0.05333247780799866,1,-0.06293068081140518,1
1771621848081367040,-0.0105709545314312,1,0.005410315003246069,1,0.0003929419908672571,1,0.02749383449554443,1,0.08309841901063919,1,0.08189936727285385,1
1771621848091980288,-0.00747832003980875,1,0.002849280135706067,1,0.0001996030332520604,1,0.02926523610949516,1,0.07277943938970566,1,0.1691534370183945,1
1771621848102491136,-0.005136867053806782,1,0.002933094510808587,1,0.0002347365953028202,1,0.02181294746696949,1,0.06474073231220245,1,0.07420125603675842,1
1771621848112900864,-0.002923327265307307,1,0.003186208195984364,1,0.0008273400599136949,1,0.008967583999037743,1,0.03707187250256538,1,-0.009418993256986141,1
1771621848123209984,0.002256144303828478,1,0.0009792934870347381,1,0.0006530352402478456,1,0.01039924286305904,1,0.0364094190299511,1,0.03828075155615807,1
1771621848133418240,0.006717785261571407,1,-0.002688366221264005,1,-0.0007497852202504873,1,0.008814823813736439,1,0.03905916959047318,1,0.05776982754468918,1
1771621848143525888,-0.001632018131203949,1,0.0003552768030203879,1,-0.0001771075476426631,1,-0.01482704002410173,1,0.01363209821283817,1,0.02133552171289921,1
1771621848153535232,-0.01090109162032604,1,0.00583153311163187,1,0.001271220855414867,1,-0.000860146654304117,1,0.02031512372195721,1,0.05871285498142242,1
1771621848163446272,-0.02189074829220772,1,0.01203096099197865,1,0.0004007216484751552,1,-0.006978396326303482,1,0.01277225743979216,1,0.03450468927621841,1
1771621848173266432,-0.02515547163784504,1,0.00988395232707262,1,0.0004253562947269529,1,0.01415835041552782,1,0.058786291629076,1,0.0492916963994503,1
1771621848182992128,-0.006352252792567015,1,0.002534215338528156,1,0.0001879740448202938,1,0.02092356793582439,1,0.07868050783872604,1,0.03847167640924454,1
1771621848192622080,0.01434381119906902,1,-0.006360521074384451,1,-8.780558709986508e-05,1,0.01709749177098274,1,0.06250623613595963,1,0.0591617040336132,1
1771621848202158592,0.01653197407722473,1,-0.00837869755923748,1,0.0002835137711372226,1,0.001740924315527081,1,0.02229376137256622,1,0.004736588802188635,1
1771621848211601920,0.009622210636734962,1,-0.004306798335164785,1,0.0005000371020287275,1,0.003885016776621342,1,0.03656014800071716,1,0.0538497120141983,1
1771621848221094144,0.004139900673180819,1,-0.0003841419820673764,1,0.0001761375169735402,1,-0.009229050017893314,1,0.01931217312812805,1,0.05997245013713837,1
1771621848231754752,-0.0006928303046151996,1,-0.0004775056731887162,1,-2.616483470774256e-05,1,-0.00609631696715951,1,0.01789477653801441,1,0.03509238734841347,1
1771621848242311680,-0.002269741846248507,1,0.001776780351065099,1,0.0005940451519563794,1,0.01000935025513172,1,0.04524582251906395,1,0.007362485863268375,1
1771621848252767488,0.0005749957635998726,1,-0.0001709959760773927,1,0.0002301655185874552,1,0.02600155211985111,1,0.07822643965482712,1,0.04862954840064049,1
1771621848263121152,0.01013181824237108,1,-0.005057655274868011,1,0.0005005070706829429,1,0.01233547367155552,1,0.06158015504479408,1,0.05202005431056023,1
1771621848273373184,0.01091701537370682,1,-0.004720122087746859,1,0.0003765358997043222,1,0.00574351754039526,1,0.03656936809420586,1,0.02567828819155693,1
1771621848283523840,0.00485128490254283,1,-0.003200995968654752,1,2.736316309892572e-05,1,0.001276151044294238,1,0.02531217224895954,1,0.03264443203806877,1
1771621848293575168,0.001918565831147134,1,-0.001465491834096611,1,0.0003052234824281186,1,0.00663704751059413,1,0.03135166689753532,1,0.06557589024305344,1
1771621848303527936,0.008101332001388073,1,-0.003642343450337648,1,0.000315164536004886,1,0.01567922346293926,1,0.04547666385769844,1,0.05742958933115005,1
1771621848313383424,0.006466609425842762,1,-0.00414282875135541,1,0.0004451685526873916,1,0.004914348479360342,1,0.03738418221473694,1,0.06557188928127289,1
1771621848323141376,0.002696810057386756,1,-0.001463033375330269,1,0.0003802069404628128,1,-0.01137155946344137,1,0.02040423080325127,1,-0.01498397532850504,1
1771621848332803584,0.0009328442392870784,1,0.0006493933615274727,1,0.0008471773471683264,1,0.01962297596037388,1,0.08068186044692993,1,0.03454030677676201,1
1771621848342370816,0.007962310686707497,1,-0.003200280712917447,1,0.0004705523606389761,1,0.01066130399703979,1,0.05829311907291412,1,0.0292743407189846,1
1771621848351842816,0.01196429785341024,1,-0.004370785783976316,1,-4.842181624553632e-06,1,0.02309899963438511,1,0.05115094780921936,1,0.1314509212970734,1
1771621848361222912,0.009773334488272667,1,-0.004153104964643717,1,-0.0004619318060576916,1,-0.01196686550974846,1,0.01444907020777464,1,0.05605874210596085,1
1771621848371372800,-0.003087346442043781,1,0.002547555137425661,1,0.0003656321205198765,1,-0.01584497652947903,1,0.02489552646875381,1,-0.02246981300413609,1
1771621848381993216,-0.004187534097582102,1,0.0005129920318722725,1,-0.0002766929101198912,1,0.008934325538575649,1,0.05697634816169739,1,0.0088460398837924,1
1771621848392509696,0.006509011145681143,1,-0.002754128305241466,1,-0.0005089293699711561,1,0.02954681776463985,1,0.06291770190000534,1,0.07295522093772888,1
1771621848402924800,0.01013002544641495,1,-0.0047862334176898,1,7.839093450456858e-05,1,0.01207091845571995,1,0.02324695140123367,1,0.07219364494085312,1
1771621848413238784,6.724474224029109e-05,1,0.0001018689799821004,1,7.782131433486938e-05,1,-0.01821628957986832,1,-0.008660931140184402,1,-0.004717782139778137,1
1771621848423452160,-0.001156688784249127,1,0.001053743064403534,1,-0.000398486852645874,1,0.007513014599680901,1,0.05657102540135384,1,0.02829117141664028,1
1771621848433566976,0.009616722352802753,1,-0.003719048574566841,1,0.0002698121825233102,1,0.01619949191808701,1,0.06685006618499756,1,0.05798502266407013,1
1771621848443584000,0.002117878291755915,1,-0.003269952954724431,1,0.0003021135926246643,1,-0.004488683771342039,1,0.02979779057204723,1,0.0398099347949028,1
