Time,inertial-6286.188861:estLinearAccelX,inertial-6286.188861:estLinearAccelX:valid,inertial-6286.188861:estLinearAccelY,inertial-6286.188861:estLinearAccelY:valid,inertial-6286.188861:estLinearAccelZ,inertial-6286.188861:estLinearAccelZ:valid
1771616095222958592,-0.003344305790960789,1,0.005360347684472799,1,0.03919531032443047,1
1771616095232946176,-0.005089301150292158,1,0.006933798547834158,1,0.04087485373020172,1
1771616095242923776,-0.001388710341416299,1,0.005670181009918451,1,0.03844260424375534,1
1771616095252891648,-4.567264841170982e-05,1,0.008827487006783485,1,0.0410497821867466,1
1771616095262849792,0.00151538522914052,1,0.01104850880801678,1,0.04089356958866119,1
1771616095272798464,0.0003065781784243882,1,0.01099848560988903,1,0.03942136093974113,1
1771616095282737408,0.002162734745070338,1,0.01167546957731247,1,0.04039497673511505,1
1771616095292666368,-0.001954584149643779,1,0.008996286429464817,1,0.04120810702443123,1
1771616095302585088,-0.002289908938109875,1,0.01141989137977362,1,0.04166950285434723,1
1771616095312494080,-0.004328667651861906,1,0.009208091534674168,1,0.04105883091688156,1
1771616095322393344,-0.004907997790724039,1,0.007369399070739746,1,0.03779006376862526,1
1771616095332282880,-0.003690458368510008,1,0.008218804374337196,1,0.03889340162277222,1
1771616095342399744,-0.002897721016779542,1,0.008667931891977787,1,0.03731313347816467,1
1771616095352507136,-0.0003101848997175694,1,0.01055411901324987,1,0.03711531683802605,1
1771616095362604288,0.002424364909529686,1,0.01215378008782864,1,0.03873381391167641,1
1771616095372691456,0.0006423040176741779,1,0.007194534875452518,1,0.03924050554633141,1
1771616095382768384,-0.0001545601116959006,1,0.007090295199304819,1,0.03966325148940086,1
1771616095392835584,-0.001958697335794568,1,0.002158330753445625,1,0.04058858752250671,1
1771616095402893056,-0.002375211799517274,1,0.005873921327292919,1,0.04128699004650116,1
1771616095412940800,-0.002641617320477962,1,0.007255466654896736,1,0.0396169014275074,1
1771616095422978304,-0.0008398315985687077,1,0.009792681783437729,1,0.04090903326869011,1
1771616095433006080,0.0008794565219432116,1,0.01285886019468307,1,0.03831173852086067,1
1771616095443023872,0.002003766130656004,1,0.01222014427185059,1,0.04052840918302536,1
1771616095453031680,-0.003601664211601019,1,0.008104532025754452,1,0.04336097836494446,1
1771616095463029760,-0.005961492192000151,1,0.005208507645875216,1,0.03967649862170219,1
1771616095473017344,-0.005144730675965548,1,0.006033150944858789,1,0.04319332912564278,1
1771616095482994944,-0.006679893005639315,1,0.007356849499046803,1,0.04349437728524208,1
1771616095492963072,-0.001459433231502771,1,0.010377480648458,1,0.04281779378652573,1
1771616095502921472,0.0007708788034506142,1,0.01108235120773315,1,0.04185516014695168,1
1771616095512869888,-0.0003692696918733418,1,0.00999740231782198,1,0.03834876418113708,1
1771616095522808320,0.001784721855074167,1,0.01183018181473017,1,0.03847381100058556,1
1771616095532736768,-0.002838224871084094,1,0.008929269388318062,1,0.03555602952837944,1
1771616095542655488,8.542815339751542e-05,1,0.008300759829580784,1,0.03808657824993134,1
1771616095552563968,4.042024374939501e-05,1,0.008979005739092827,1,0.03803975135087967,1
1771616095562462976,-0.0007768317591398954,1,0.008464659564197063,1,0.0389469787478447,1
1771616095572352000,0.001736154197715223,1,0.01079684309661388,1,0.03869851306080818,1
1771616095582468608,0.0008235685527324677,1,0.01004372909665108,1,0.03875026851892471,1
1771616095592575232,0.0009128631791099906,1,0.009538688696920872,1,0.04250421747565269,1
1771616095602671872,0.001685588620603085,1,0.008759316056966782,1,0.04053938761353493,1
1771616095612758784,0.001147571485489607,1,0.007553354371339083,1,0.04117262363433838,1
1771616095622835712,0.0004886328824795783,1,0.008708666078746319,1,0.04200154542922974,1
1771616095632902144,0.0001224555016960949,1,0.007574206218123436,1,0.04004205018281937,1
1771616095642958592,0.001290656975470483,1,0.007145116571336985,1,0.0405438132584095,1
1771616095653005568,0.001726643647998571,1,0.007597561459988356,1,0.03746314346790314,1
1771616095663042304,0.001702876528725028,1,0.009971913881599903,1,0.04114307090640068,1
1771616095673069568,-0.001939317677170038,1,0.01134163979440928,1,0.04170172661542892,1
1771616095683086592,-0.002228416036814451,1,0.01059168763458729,1,0.03986634686589241,1
1771616095693093888,-0.002686962019652128,1,0.01253720372915268,1,0.04044266045093536,1
1771616095703090944,-0.0001860225747805089,1,0.007956053130328655,1,0.03905318677425385,1
1771616095713078528,0.001347108976915479,1,0.01008094288408756,1,0.038790512830019,1
1771616095723056128,0.000643092964310199,1,0.009421765804290771,1,0.03722669929265976,1
1771616095733023488,-0.000662066915538162,1,0.0105877723544836,1,0.03965211287140846,1
1771616095742981120,-9.060707816388458e-05,1,0.009602567180991173,1,0.03857370465993881,1
1771616095752928512,-0.0006174615700729191,1,0.007846211083233356,1,0.03830894082784653,1
1771616095762866432,-0.0003695025225169957,1,0.009655051864683628,1,0.03872864320874214,1
1771616095772794368,-0.0008031754987314343,1,0.01036301255226135,1,0.03659838810563087,1
1771616095782712064,-0.0006338643725030124,1,0.01270379405468702,1,0.03743671998381615,1
1771616095792620544,0.0003116767038591206,1,0.01120797637850046,1,0.04085515439510345,1
1771616095802518784,-5.055961082689464e-05,1,0.01006519515067339,1,0.0401177704334259,1
1771616095812407296,0.0001583605480846018,1,0.0104325320571661,1,0.03867456689476967,1
1771616095822522112,-0.0004324694746173918,1,0.01110776234418154,1,0.04009944573044777,1
1771616095832626944,0.001459255930967629,1,0.0122735146433115,1,0.04016759991645813,1
1771616095842722048,-0.003039163537323475,1,0.00943332351744175,1,0.04029221460223198,1
1771616095852806912,-0.004273634869605303,1,0.01020007766783237,1,0.04115196689963341,1
1771616095862882048,-0.003412019694224,1,0.006051845848560333,1,0.04009293764829636,1
1771616095872947200,-0.004076369106769562,1,0.005463434383273125,1,0.04166489839553833,1
1771616095883002112,-0.0006731985486112535,1,0.008182520978152752,1,0.0401030033826828,1
1771616095893047296,-0.002463118638843298,1,0.009476007893681526,1,0.0385793000459671,1
1771616095903082496,-0.002265050541609526,1,0.008875934407114983,1,0.03857357427477837,1
1771616095913107712,-0.002064261818304658,1,0.008626160211861134,1,0.03740903362631798,1
1771616095923123968,-0.003499145153909922,1,0.007909558713436127,1,0.04048184305429459,1
1771616095933130240,-0.00129803316667676,1,0.008983664214611053,1,0.03833607584238052,1
1771616095943126528,-0.001467818859964609,1,0.007955204695463181,1,0.03683790937066078,1
1771616095953112832,-0.001550753717310727,1,0.01121479272842407,1,0.03965460509061813,1
1771616095963089664,-0.002448122715577483,1,0.009533260948956013,1,0.04031432792544365,1
1771616095973056512,-0.0007121465168893337,1,0.009036017581820488,1,0.03972039371728897,1
1771616095983013376,-0.0001401471090503037,1,0.009641434065997601,1,0.04177789017558098,1
1771616095992960256,-0.003554984461516142,1,0.007483904715627432,1,0.04433779418468475,1
1771616096002897664,-0.003652594285085797,1,0.007323700003325939,1,0.04238131269812584,1
1771616096012825344,-0.005176207050681114,1,0.007197079714387655,1,0.04002745449542999,1
1771616096022743296,-0.003286484396085143,1,0.01035012770444155,1,0.04096578434109688,1
1771616096032651520,-0.0008041054243221879,1,0.00852474756538868,1,0.04121674597263336,1
1771616096042549760,-0.001745471730828285,1,0.009198848158121109,1,0.04313202574849129,1
1771616096052438272,-0.002668730448931456,1,0.008715958334505558,1,0.04239533096551895,1
1771616096062551296,-0.001464525004848838,1,0.006478103343397379,1,0.04305097088217735,1
1771616096072654336,-0.001854367670603096,1,0.007793155498802662,1,0.0430363267660141,1
1771616096082746880,-0.003675039624795318,1,0.005555923562496901,1,0.04271448776125908,1
1771616096092829696,-0.002457584254443645,1,0.0070922477170825,1,0.04151768237352371,1
1771616096102902272,-0.002200346440076828,1,0.006855462677776814,1,0.03776447102427483,1
1771616096112965120,-0.0005106610478833318,1,0.006261842790991068,1,0.0416291244328022,1
1771616096123017984,-0.001044413656927645,1,0.007966652512550354,1,0.04106149077415466,1
1771616096133060864,0.0003862730518449098,1,0.008860556408762932,1,0.03909004107117653,1
1771616096143094016,0.00199970998801291,1,0.008914796635508537,1,0.0385444201529026,1
1771616096153117184,0.0007606636499986053,1,0.007705057971179485,1,0.03878990188241005,1
1771616096163130112,-0.0003677131608128548,1,0.006412800401449203,1,0.03964145854115486,1
1771616096173133312,-0.003643480828031898,1,0.007387614343315363,1,0.04001281782984734,1
1771616096183126272,-0.00296196760609746,1,0.007384862750768661,1,0.03799036517739296,1
1771616096193109760,-0.0009087723447009921,1,0.009624547325074673,1,0.03968343138694763,1
1771616096203083264,-0.0001790245587471873,1,0.0103955427184701,1,0.03985653072595596,1
1771616096213046528,-0.0009316010400652885,1,0.0115741016343236,1,0.03913074359297752,1
1771616096223000320,-0.002070590853691101,1,0.01009451597929001,1,0.03934720158576965,1
1771616096232944128,-0.0005903018172830343,1,0.009492536075413227,1,0.04150228202342987,1
1771616096242878208,-0.002356862649321556,1,0.01209026388823986,1,0.0416407585144043,1
1771616096252802560,-0.004558579996228218,1,0.008909295313060284,1,0.03935215994715691,1
1771616096262716672,-0.004441932775080204,1,0.008723670616745949,1,0.04124389961361885,1
1771616096272621568,-0.003992633894085884,1,0.008536193519830704,1,0.03981310501694679,1
1771616096282516224,-0.001312820008024573,1,0.009525333531200886,1,0.04175263270735741,1
1771616096292401152,-0.0009070801897905767,1,0.007751177065074444,1,0.0384087823331356,1
1771616096302513664,-0.00071123888483271,1,0.009542202576994896,1,0.03799157589673996,1
1771616096312616192,-0.001088876277208328,1,0.01040842663496733,1,0.03740563243627548,1
1771616096322708992,-0.001881881500594318,1,0.008866907097399235,1,0.03795069456100464,1
1771616096332791296,0.0007256546523422003,1,0.008485112339258194,1,0.04029286652803421,1
1771616096342864128,-0.0002953315561171621,1,0.00714551517739892,1,0.03792812302708626,1
1771616096352927232,-0.0009500936721451581,1,0.006995629984885454,1,0.039505235850811,1
1771616096362979840,-0.001995676662772894,1,0.007501555606722832,1,0.03829210624098778,1
1771616096373022464,-0.001346487551927567,1,0.00597107270732522,1,0.03965910896658897,1
1771616096383055360,0.0001540132507216185,1,0.008303289301693439,1,0.04065345972776413,1
1771616096393078272,-0.001427560579031706,1,0.0093139773234725,1,0.03836815431714058,1
1771616096403090944,-0.002658255165442824,1,0.009554698131978512,1,0.03893067687749863,1
1771616096413093888,-0.003487189300358295,1,0.01014911942183971,1,0.03714827075600624,1
1771616096423086848,-0.002935931552201509,1,0.009764120914041996,1,0.03692011162638664,1
1771616096433070080,-0.003007435007020831,1,0.01064455695450306,1,0.03751148283481598,1
1771616096443043072,-0.0009326839353889227,1,0.008935968391597271,1,0.03744426742196083,1
1771616096453007360,-0.002383820945397019,1,0.00837805587798357,1,0.04005048424005508,1
1771616096462961664,-0.003410164965316653,1,0.008371174335479736,1,0.03953764215111732,1
1771616096472905984,-0.002418220276013017,1,0.01027477625757456,1,0.0394708663225174,1
1771616096482841088,-0.00151242851279676,1,0.01148048788309097,1,0.03850677236914635,1
1771616096492765952,-0.00153436092659831,1,0.01012468244880438,1,0.04092856124043465,1
1771616096502681088,-0.002165078185498714,1,0.01337927673012018,1,0.04074999317526817,1
1771616096512586240,-0.003344099735841155,1,0.0092764962464571,1,0.04187066107988358,1
1771616096522481664,-0.00149977020919323,1,0.009189003147184849,1,0.04249047115445137,1
1771616096532367104,-0.002667241962626576,1,0.006524315569549799,1,0.04289824888110161,1
1771616096542477824,-0.004428165964782238,1,0.004147117026150227,1,0.04222248122096062,1
1771616096552578560,-0.001320766867138445,1,0.006645111367106438,1,0.04170818626880646,1
1771616096562669056,-0.002289577852934599,1,0.00675500649958849,1,0.04028082266449928,1
1771616096572749568,-0.0002540757413953543,1,0.008351654745638371,1,0.04076297581195831,1
1771616096582820352,-0.0009409974445588887,1,0.007697610184550285,1,0.04053387045860291,1
1771616096592880896,-0.001358294626697898,1,0.009896863251924515,1,0.04026949778199196,1
1771616096602931712,0.0001825237850425765,1,0.008949947543442249,1,0.03957396745681763,1
1771616096612972544,-0.002031942130997777,1,0.008683322928845882,1,0.03975968062877655,1
1771616096623003392,-0.0007272574584931135,1,0.01143545284867287,1,0.03996217623353004,1
1771616096633024256,-0.000396066257962957,1,0.009445503354072571,1,0.04004627093672752,1
1771616096643035136,-0.001732317032292485,1,0.009632520377635956,1,0.04187501221895218,1
1771616096653035776,-0.0004078661440871656,1,0.00851840153336525,1,0.04125844314694405,1
1771616096663026688,-0.00087416369933635,1,0.009251031093299389,1,0.04289907962083817,1
1771616096673007616,0.0005162225570529699,1,0.01029036473482847,1,0.04038652032613754,1
1771616096682978560,-0.001717199105769396,1,0.009859113954007626,1,0.04114371910691261,1
1771616096692939776,-0.002191515173763037,1,0.01187925972044468,1,0.04211702197790146,1
1771616096702891264,-0.004101975355297327,1,0.008576992899179459,1,0.03862316906452179,1
1771616096712833280,-0.004868558142334223,1,0.007474888581782579,1,0.0402388721704483,1
1771616096722765312,-0.004184689372777939,1,0.007968817837536335,1,0.04113755375146866,1
1771616096732687360,-0.001151722855865955,1,0.0113601703196764,1,0.03982908651232719,1
1771616096742599424,-0.0007757965940982103,1,0.01025570929050446,1,0.0413336418569088,1
1771616096752501760,0.0001629089965717867,1,0.009393882937729359,1,0.04236533865332603,1
1771616096762394112,0.0007505727699026465,1,0.008200856857001781,1,0.04141185432672501,1
1771616096772276736,-0.003849876346066594,1,0.007075892761349678,1,0.03991124406456947,1
1771616096782385664,-0.002782753668725491,1,0.008249981328845024,1,0.04004934802651405,1
1771616096792484608,-0.003386416006833315,1,0.01057716552168131,1,0.04030625149607658,1
1771616096802573824,-0.002318909857422113,1,0.01074018608778715,1,0.03807902708649635,1
1771616096812652800,-0.001106843817979097,1,0.01204253453761339,1,0.03867814689874649,1
1771616096822722304,-0.002694473369047046,1,0.010033936239779,1,0.04039442166686058,1
1771616096832781568,-0.002696298062801361,1,0.009263426065444946,1,0.04074962064623833,1
1771616096842830848,-0.002011218806728721,1,0.006876361090689898,1,0.04034104570746422,1
1771616096852870912,-0.001847225474193692,1,0.00901628565043211,1,0.03952495008707047,1
1771616096862901248,-0.0008586815092712641,1,0.01041540410369635,1,0.04015826061367989,1
1771616096872921344,-0.00049107416998595,1,0.009010280482470989,1,0.04219181090593338,1
1771616096882931968,-0.002732221968472004,1,0.01004463620483875,1,0.04308094456791878,1
1771616096892932608,-0.003199703292921185,1,0.009672886691987514,1,0.04151595011353493,1
1771616096902923264,-0.001641043345443904,1,0.009753179736435413,1,0.04431306570768356,1
1771616096912903936,-0.003364161355420947,1,0.009937900118529797,1,0.04155182465910912,1
1771616096922874880,-0.004400872625410557,1,0.009068340994417667,1,0.04111263155937195,1
1771616096932835584,-0.002695601666346192,1,0.00843000877648592,1,0.04009127616882324,1
1771616096942786560,-0.00487103033810854,1,0.008751742541790009,1,0.04130542278289795,1
1771616096952727552,-0.002226900774985552,1,0.008492560125887394,1,0.04014245420694351,1
1771616096962658816,-0.0005717751337215304,1,0.007100607734173536,1,0.03875274211168289,1
1771616096972580352,-0.001728057744912803,1,0.006773553323000669,1,0.03776225075125694,1
1771616096982491904,-0.001005979254841805,1,0.008470557630062103,1,0.03949366137385368,1
1771616096992393728,-0.002787133911624551,1,0.007157584186643362,1,0.03950157389044762,1
1771616097002285312,-0.004182334523648024,1,0.007465140428394079,1,0.03989532589912415,1
1771616097012167424,-0.001470913644880056,1,0.007076878566294909,1,0.03808578848838806,1
1771616097022275328,-0.00167575478553772,1,0.009673822671175003,1,0.03837094083428383,1
1771616097032373504,-0.002104468643665314,1,0.01040215138345957,1,0.03942014649510384,1
1771616097042461440,-0.002116197720170021,1,0.008503537625074387,1,0.03949150815606117,1
1771616097052539648,-0.005221219267696142,1,0.008147578686475754,1,0.03915916383266449,1
1771616097062607616,-0.003947664983570576,1,0.005647142883390188,1,0.03648544102907181,1
1771616097072665600,-0.001133979531005025,1,0.00773316714912653,1,0.03980300948023796,1
1771616097082713344,-0.001384280272759497,1,0.01040637120604515,1,0.03963623940944672,1
1771616097092752128,-0.0008400440565310419,1,0.01056225877255201,1,0.03919389471411705,1
1771616097102780672,0.001002826960757375,1,0.01116198115050793,1,0.03894741460680962,1
1771616097112799488,-9.367999155074358e-05,1,0.009396298788487911,1,0.03864341229200363,1
1771616097122808320,-0.001607018755748868,1,0.009008613415062428,1,0.03858507052063942,1
1771616097132806912,-0.004066774155944586,1,0.005777573212981224,1,0.0370732955634594,1
1771616097142795776,-0.003928733058273792,1,0.008769354782998562,1,0.03873612731695175,1
1771616097152774656,-0.002610241062939167,1,0.00742668192833662,1,0.03914941847324371,1
1771616097162743552,-0.002435057889670134,1,0.008216132409870625,1,0.04185932502150536,1
1771616097172702720,-0.002060191240161657,1,0.009848271496593952,1,0.04060913622379303,1
1771616097182651648,-0.002957136370241642,1,0.009756047278642654,1,0.04103963822126389,1
1771616097192590848,-0.002185248769819736,1,0.009956164285540581,1,0.04066186025738716,1
1771616097202520064,-0.00293017434887588,1,0.008361387066543102,1,0.03918908163905144,1
1771616097212439552,-0.002131040673702955,1,0.01000564359128475,1,0.03970647603273392,1
1771616097222349056,-0.001495668198913336,1,0.009703353047370911,1,0.03808514028787613,1
1771616097232249088,-0.004489596001803875,1,0.008116019889712334,1,0.03993119671940804,1
1771616097242139136,-0.00371109414845705,1,0.01063019968569279,1,0.03920368477702141,1
1771616097252256512,-0.00296681490726769,1,0.007561435457319021,1,0.03831969574093819,1
1771616097262364160,-0.001758432714268565,1,0.009655825793743134,1,0.03933697566390038,1
1771616097272461824,-0.001248788554221392,1,0.009802528657019138,1,0.03746873140335083,1
1771616097282549248,-0.001725311391055584,1,0.009395226836204529,1,0.03859797865152359,1
1771616097292626944,-0.002522771479561925,1,0.00671422341838479,1,0.03903688490390778,1
1771616097302694912,-0.003418188076466322,1,0.005156864412128925,1,0.0398666076362133,1
1771616097312752640,-0.003953608684241772,1,0.00609067315235734,1,0.03745769336819649,1
1771616097322800640,-0.004393243696540594,1,0.007657440379261971,1,0.03856073692440987,1
1771616097332838656,-0.001055143540725112,1,0.01079925429075956,1,0.04056346416473389,1
1771616097342867200,-0.0005867582513019443,1,0.01149637252092361,1,0.04208680987358093,1
1771616097352885504,0.0002131853252649307,1,0.01266594231128693,1,0.04138091579079628,1
1771616097362894080,-0.003553443821147084,1,0.01060651801526546,1,0.04155810549855232,1
1771616097372892672,-0.006649832706898451,1,0.009347810409963131,1,0.03994656354188919,1
1771616097382881024,-0.006958653219044209,1,0.008450857363641262,1,0.04206682369112968,1
1771616097392860672,-0.002823081100359559,1,0.009313839487731457,1,0.04241335019469261,1
1771616097402830336,-0.003157699247822165,1,0.009070631116628647,1,0.04174844920635223,1
1771616097412790272,-0.002756700152531266,1,0.007964642718434334,1,0.03908862546086311,1
1771616097422740224,-0.003521415870636702,1,0.005128020420670509,1,0.03926334902644157,1
1771616097432680448,-0.003838865086436272,1,0.005947898607701063,1,0.03919128701090813,1
1771616097442610944,-0.002868497977033257,1,0.008769124746322632,1,0.04005284607410431,1
1771616097452531968,-0.0008286909433081746,1,0.00907398946583271,1,0.04031162708997726,1
1771616097462443008,0.0007018393371254206,1,0.00996123906224966,1,0.04168669506907463,1
1771616097472343808,-0.001030735787935555,1,0.0103159211575985,1,0.04098973423242569,1
1771616097482235392,-0.002123275538906455,1,0.01044068764895201,1,0.03957351669669151,1
1771616097492352512,-0.003071262966841459,1,0.01031376235187054,1,0.04069819301366806,1
1771616097502459648,-0.002807268407195807,1,0.009728374890983105,1,0.04067102447152138,1
1771616097512557056,-0.001074071973562241,1,0.01211076136678457,1,0.04099822416901588,1
1771616097522644480,0.0001832098350860178,1,0.01412664819508791,1,0.04395567998290062,1
1771616097532721920,-0.0004241103597451001,1,0.01118711661547422,1,0.04098386317491531,1
1771616097542789632,-0.001972296042367816,1,0.01033598091453314,1,0.03895806521177292,1
1771616097552847104,-0.003218211233615875,1,0.007561917416751385,1,0.03896283358335495,1
1771616097562894848,-0.003720472333952785,1,0.005254777614027262,1,0.03969734534621239,1
1771616097572932608,-0.004422136582434177,1,0.01001250650733709,1,0.03839174285531044,1
1771616097582960896,-0.003451695665717125,1,0.008760474622249603,1,0.03628211468458176,1
1771616097592979456,-0.003568497253581882,1,0.01054671965539455,1,0.0390956774353981,1
1771616097602987776,-0.001694260397925973,1,0.01215245947241783,1,0.03801048547029495,1
1771616097612986624,-0.001734886784106493,1,0.009981253184378147,1,0.04032027348875999,1
1771616097622975488,-0.001027452410198748,1,0.01083472184836864,1,0.04205397889018059,1
1771616097632954368,-0.00288969581015408,1,0.008467152714729309,1,0.04098368808627129,1
1771616097642923264,-0.001857683178968728,1,0.008564237505197525,1,0.0425061509013176,1
1771616097652882688,-0.004705270752310753,1,0.008044632151722908,1,0.04061394557356834,1
1771616097662832128,-0.002436843700706959,1,0.01005432941019535,1,0.03959449008107185,1
1771616097672771328,-0.00249218218959868,1,0.009470574557781219,1,0.03923775628209114,1
1771616097682701568,-0.001777473604306579,1,0.009786728769540787,1,0.04013896360993385,1
1771616097692621824,0.0006214502500370145,1,0.01140778232365847,1,0.04185409843921661,1
1771616097702531840,-0.001444463152438402,1,0.0107035068795085,1,0.03968134522438049,1
1771616097712432384,-0.002448049141094089,1,0.009168881922960281,1,0.03887428343296051,1
1771616097722323200,-0.001046978053636849,1,0.0079033263027668,1,0.03723496571183205,1
1771616097732440320,-0.00141095113940537,1,0.007189928088337183,1,0.03730420768260956,1
1771616097742547712,0.0005338925984688103,1,0.008355052210390568,1,0.03877288103103638,1
1771616097752644864,0.00181641336530447,1,0.00757242739200592,1,0.03885844722390175,1
1771616097762732288,7.288239430636168e-05,1,0.01131508126854897,1,0.04025064408779144,1
1771616097772809728,0.00145887432154268,1,0.01099973451346159,1,0.03851441666483879,1
1771616097782876928,0.002177066868171096,1,0.01037005893886089,1,0.04076405242085457,1
1771616097792934400,-0.0007901621866039932,1,0.009115247987210751,1,0.04079955071210861,1
1771616097802981376,-0.001416484010405838,1,0.007371363695710897,1,0.04149617627263069,1
1771616097813018624,-0.002200566465035081,1,0.008610944263637066,1,0.04146062582731247,1
1771616097823045888,-0.0007551884045824409,1,0.009431023150682449,1,0.04090521112084389,1
1771616097833063680,-0.001591155421920121,1,0.01006182562559843,1,0.04087341204285622,1
1771616097843071744,-0.00209626741707325,1,0.00927459541708231,1,0.03923479467630386,1
1771616097853069568,-0.002162758726626635,1,0.007706076372414827,1,0.03912042453885078,1
1771616097863057408,-0.002534233499318361,1,0.007001975551247597,1,0.03987706452608109,1
1771616097873035008,0.0001120265224017203,1,0.007227662950754166,1,0.04211145266890526,1
1771616097883003136,0.002585010835900903,1,0.006631592288613319,1,0.04071536660194397,1
1771616097892961280,0.0007134407060220838,1,0.01018413063138723,1,0.04114860668778419,1
1771616097902909440,0.0001368390076095238,1,0.01078432146459818,1,0.0406608060002327,1
1771616097912847616,-2.745611709542572e-06,1,0.01081819552928209,1,0.04148728400468826,1
1771616097922776320,0.0001573948538862169,1,0.0105275996029377,1,0.04187742248177528,1
1771616097932695040,-0.0007850842084735632,1,0.01002418342977762,1,0.04245949909090996,1
1771616097942603520,-0.002047256100922823,1,0.009362916462123394,1,0.03906774520874023,1
1771616097952502784,-0.0006524666678160429,1,0.00910932756960392,1,0.04047726467251778,1
1771616097962391808,-0.000374237570213154,1,0.008810612373054028,1,0.03604975715279579,1
1771616097972508672,-0.002397090196609497,1,0.00755047332495451,1,0.03831585869193077,1
1771616097982615296,-0.00167311925906688,1,0.009541858918964863,1,0.03872669115662575,1
1771616097992712192,-0.0022482352796942,1,0.008490432985126972,1,0.04117681086063385,1
1771616098002798848,-0.002305740956217051,1,0.01083271019160748,1,0.04297198355197906,1
1771616098012875520,-0.001928552752360702,1,0.008318751119077206,1,0.0389120802283287,1
1771616098022942464,-0.0008051070035435259,1,0.01138421520590782,1,0.04051677882671356,1
1771616098032999424,-0.0002407149877399206,1,0.009990210644900799,1,0.03499617427587509,1
1771616098043046144,-0.0005808192072436213,1,0.01016601175069809,1,0.03994522616267204,1
1771616098053083136,-0.0001794431445887312,1,0.008987185545265675,1,0.0394144095480442,1
1771616098063109888,-0.002815712941810489,1,0.01216353755444288,1,0.04198639467358589,1
1771616098073126912,-0.001496498705819249,1,0.01387365814298391,1,0.03960388153791428,1
1771616098083133696,0.0001785859349183738,1,0.01137472409754992,1,0.03764104098081589,1
1771616098093130752,-0.003411306533962488,1,0.0114220604300499,1,0.04122434183955193,1
1771616098103117824,-0.00136017391923815,1,0.01005212590098381,1,0.04015506431460381,1
1771616098113094912,-0.002771503292024136,1,0.009341200813651085,1,0.04175937175750732,1
1771616098123062272,-0.003989384975284338,1,0.01017714850604534,1,0.0392274297773838,1
1771616098133019392,-0.001735124737024307,1,0.009566236287355423,1,0.03953131288290024,1
1771616098142967040,-0.002391638467088342,1,0.009484105743467808,1,0.04262689128518105,1
1771616098152904704,-8.193393296096474e-05,1,0.01048149447888136,1,0.04055327177047729,1
1771616098162832640,-7.274055678863078e-05,1,0.008536684326827526,1,0.04160568490624428,1
1771616098172750848,0.000587512506172061,1,0.009186751209199429,1,0.0394207239151001,1
1771616098182659328,-0.0004042945802211761,1,0.00983414426445961,1,0.04076121374964714,1
1771616098192558080,0.0003851927176583558,1,0.01023159269243479,1,0.04090644791722298,1
1771616098202446592,-0.001130659598857164,1,0.009101203642785549,1,0.04140660166740417,1
1771616098212563456,-0.0007756619015708566,1,0.01200878340750933,1,0.04038025066256523,1
1771616098222669824,-0.001184468157589436,1,0.01095650065690279,1,0.03865618258714676,1
1771616098232766464,-0.001014772336930037,1,0.008939075283706188,1,0.04129131510853767,1
1771616098242852864,-0.002238416578620672,1,0.009964818134903908,1,0.03998877108097076,1
1771616098252929536,-0.002937359735369682,1,0.009263835847377777,1,0.04082214832305908,1
1771616098262995968,-0.00181306863669306,1,0.009657601825892925,1,0.03938692808151245,1
1771616098273052416,-0.005170594900846481,1,0.007300696801394224,1,0.03907795250415802,1
1771616098283099136,-0.005254093557596207,1,0.008053178898990154,1,0.04096441343426704,1
1771616098293135616,-0.003079707268625498,1,0.008464326150715351,1,0.03942936286330223,1
1771616098303162368,-0.001703945221379399,1,0.01027770899236202,1,0.03840583935379982,1
1771616098313178880,-0.001211344031617045,1,0.009860309772193432,1,0.03654983639717102,1
1771616098323185664,-0.001780810300260782,1,0.009589591063559055,1,0.03841602057218552,1
1771616098333182208,-0.001993547659367323,1,0.008283928036689758,1,0.03834575414657593,1
1771616098343169024,-0.0023062729742378,1,0.007769045419991016,1,0.03766568377614021,1
1771616098353145856,0.0005330514977686107,1,0.008044110611081123,1,0.04059270396828651,1
1771616098363112704,0.0009581256890669465,1,0.009570726193487644,1,0.04232513159513474,1
1771616098373070336,-7.553865725640208e-05,1,0.01240680553019047,1,0.0391133651137352,1
1771616098383017984,-0.0005837216740474105,1,0.01385761238634586,1,0.03956808894872665,1
1771616098392955648,-0.0002327757247257978,1,0.01292922534048557,1,0.03649920597672462,1
1771616098402883584,-0.001415410777553916,1,0.01237413100898266,1,0.03794471174478531,1
1771616098412801536,-0.0009798697428777814,1,0.01117887906730175,1,0.03904280811548233,1
1771616098422709760,-0.002706642029806972,1,0.01108410581946373,1,0.04153227433562279,1
1771616098432608000,-0.001208350760862231,1,0.01242468971759081,1,0.03776979073882103,1
1771616098442496768,-0.001396196661517024,1,0.00893764104694128,1,0.03806681558489799,1
1771616098452611584,-0.003627410857006907,1,0.008459677919745445,1,0.03937659040093422,1
1771616098462715904,-0.003042779397219419,1,0.006735272239893675,1,0.04045853018760681,1
1771616098472810496,-0.001994611462578177,1,0.006202057003974915,1,0.03930917754769325,1
1771616098482895104,-0.001277629984542727,1,0.008140720427036285,1,0.03870933875441551,1
1771616098492969984,0.001297105685807765,1,0.01040384080260992,1,0.0378984622657299,1
1771616098503034624,0.001438785577192903,1,0.01107063144445419,1,0.04009044170379639,1
1771616098513089280,0.001413009245879948,1,0.01028261985629797,1,0.03875989466905594,1
1771616098523133952,-8.173192327376455e-06,1,0.009442473761737347,1,0.038737703114748,1
1771616098533168640,0.0002255953731946647,1,0.008602835237979889,1,0.04234471172094345,1
1771616098543193344,-0.003441473469138145,1,0.008890122175216675,1,0.04021982103586197,1
1771616098553208832,-0.002333351178094745,1,0.00963605847209692,1,0.03954193741083145,1
1771616098563213824,-0.001469057868234813,1,0.01020139455795288,1,0.03908525034785271,1
1771616098573208832,-0.0009693344472907484,1,0.01268769986927509,1,0.04163263738155365,1
1771616098583194112,-0.001151623553596437,1,0.009242304600775242,1,0.040219496935606,1
1771616098593169408,-0.003621067153289914,1,0.009900525212287903,1,0.04239265248179436,1
1771616098603134720,-0.005819086916744709,1,0.007926031947135925,1,0.04043175280094147,1
1771616098613090304,-0.003776003140956163,1,0.006087551359087229,1,0.03854276239871979,1
1771616098623035904,0.0002242634363938123,1,0.01006724685430527,1,0.0400526225566864,1
1771616098632971776,9.244155080523342e-05,1,0.009915024973452091,1,0.04121985286474228,1
1771616098642897664,0.001277531264349818,1,0.01133085042238235,1,0.03954988718032837,1
1771616098652813824,0.0008374249446205795,1,0.00854247622191906,1,0.03977550938725471,1
1771616098662720000,-0.001298877177760005,1,0.00852400716394186,1,0.04401348158717155,1
1771616098672616448,-0.001467471243813634,1,0.01028138399124146,1,0.04391048848628998,1
1771616098682502912,-0.001869000261649489,1,0.01019906252622604,1,0.04336258769035339,1
1771616098692615680,0.001361211412586272,1,0.01042069494724274,1,0.04074043035507202,1
1771616098702718208,0.0009754817001521587,1,0.01018961239606142,1,0.03995977342128754,1
1771616098712811008,-0.0004447110695764422,1,0.009233537130057812,1,0.0382431298494339,1
1771616098722893568,-0.001090950798243284,1,0.007975115440785885,1,0.03591369464993477,1
1771616098732966656,-0.002918723970651627,1,0.006233475636690855,1,0.0375712551176548,1
1771616098743029504,-0.001044347533024848,1,0.007511779200285673,1,0.03739749267697334,1
1771616098753082368,0.0004666970344260335,1,0.00822722353041172,1,0.04145351052284241,1
1771616098763124992,0.0009050815715454519,1,0.01075592450797558,1,0.0414033867418766,1
1771616098773157632,0.0004286126932129264,1,0.009871486574411392,1,0.04012427851557732,1
1771616098783180544,-0.0009164162911474705,1,0.008159834891557693,1,0.04027432203292847,1
1771616098793193472,-0.003684886265546083,1,0.007468134630471468,1,0.04013638570904732,1
1771616098803196160,-0.004479336552321911,1,0.009246581234037876,1,0.04052108153700829,1
1771616098813189376,-0.003196377772837877,1,0.01082683354616165,1,0.04055649414658546,1
1771616098823173632,-0.0001165536814369261,1,0.01147703360766172,1,0.03999368101358414,1
1771616098833147648,0.001556144678033888,1,0.01146635040640831,1,0.04190061241388321,1
1771616098843111936,0.001125061186030507,1,0.01111400686204433,1,0.03846576064825058,1
1771616098853065984,-0.001781933475285769,1,0.008726375177502632,1,0.03867824003100395,1
1771616098863010304,-0.003510865150019526,1,0.009587226435542107,1,0.03983400017023087,1
1771616098872944640,-0.0012448166962713,1,0.00785108283162117,1,0.03978883475065231,1
1771616098882868992,0.00066667067585513,1,0.01084111910313368,1,0.03946304321289062,1
1771616098892783872,0.0005938768736086786,1,0.01064781658351421,1,0.04170152172446251,1
1771616098902688768,-0.0003131591074634343,1,0.008798310533165932,1,0.04099020734429359,1
1771616098912583424,-0.0005399359506554902,1,0.01106141693890095,1,0.03999560698866844,1
1771616098922468864,-0.001063673524186015,1,0.009595612995326519,1,0.04345696419477463,1
1771616098932579328,-1.499645077274181e-05,1,0.01055984012782574,1,0.04334835708141327,1
1771616098942680064,-0.0004499323840718716,1,0.008350284770131111,1,0.04092195257544518,1
1771616098952770560,0.00105184770654887,1,0.00903825368732214,1,0.04202999174594879,1
1771616098962851072,0.0007719086133874953,1,0.006283748894929886,1,0.03861359506845474,1
1771616098972921856,-0.000156206006067805,1,0.004920606035739183,1,0.03794332221150398,1
1771616098982982656,0.0003699942026287317,1,0.005842700600624084,1,0.04082052037119865,1
1771616098993033472,-0.001517599681392312,1,0.006750443950295448,1,0.04029528796672821,1
1771616099003074304,-0.002093412447720766,1,0.01020585186779499,1,0.03970010206103325,1
1771616099013105152,-0.0004230856720823795,1,0.009536691941320896,1,0.03968959674239159,1
1771616099023126016,-0.002767800819128752,1,0.01064743008464575,1,0.03966429457068443,1
1771616099033136896,-0.005153149366378784,1,0.006465440150350332,1,0.03799064084887505,1
1771616099043138048,-0.005181555636227131,1,0.008930506184697151,1,0.04081185534596443,1
1771616099053128960,-0.006000441033393145,1,0.007131343707442284,1,0.03853650763630867,1
1771616099063110144,-0.003120533190667629,1,0.008512163534760475,1,0.04143653064966202,1
1771616099073081344,-7.043394725769758e-05,1,0.007919685915112495,1,0.0393340215086937,1
1771616099083043072,-0.002876153914257884,1,0.006861570756882429,1,0.04123732820153236,1
1771616099092995072,-0.0008212990360334516,1,0.005521180108189583,1,0.03878080099821091,1
1771616099102936832,-0.001581763150170445,1,0.008786656893789768,1,0.04361819848418236,1
1771616099112869120,-0.003488113638013601,1,0.006133027840405703,1,0.04054248705506325,1
1771616099122791424,6.333028431981802e-05,1,0.01037335023283958,1,0.04353794455528259,1
1771616099132703744,0.0004564284172374755,1,0.008287661708891392,1,0.03613720834255219,1
1771616099142606080,-0.001132121309638023,1,0.0128370076417923,1,0.04212876036763191,1
1771616099152498688,-0.001251684152521193,1,0.01072620507329702,1,0.03720346093177795,1
1771616099162381056,-0.004455911461263895,1,0.009543005377054214,1,0.04270574450492859,1
1771616099172489984,-0.0006502007017843425,1,0.008648206479847431,1,0.04312964528799057,1
1771616099182588928,0.0003566897939890623,1,0.009508206509053707,1,0.04321535676717758,1
1771616099192677632,0.002267648931592703,1,0.01153386011719704,1,0.04033112525939941,1
1771616099202756864,0.0006462919409386814,1,0.01253472827374935,1,0.04423598945140839,1
1771616099212826112,0.0005200211890041828,1,0.0114647438749671,1,0.04114565625786781,1
1771616099222885120,0.000212155282497406,1,0.008996600285172462,1,0.04097543284296989,1
1771616099232934400,-4.787056241184473e-05,1,0.00894597452133894,1,0.04081255570054054,1
1771616099242973184,-0.001970744226127863,1,0.01265679206699133,1,0.0420331098139286,1
1771616099253002240,-0.001599511364474893,1,0.008746988140046597,1,0.0375477559864521,1
1771616099263021312,-8.765840902924538e-06,1,0.01221343316137791,1,0.04246924817562103,1
1771616099273030656,-0.0005168385687284172,1,0.009358049370348454,1,0.03943262621760368,1
1771616099283029760,-0.000323427637340501,1,0.01200385112315416,1,0.0415029376745224,1
1771616099293019136,-0.001284229569137096,1,0.009480768814682961,1,0.0381755568087101,1
1771616099302998528,-0.003602453507483006,1,0.009298260323703289,1,0.04061538726091385,1
1771616099312967936,-0.001241812948137522,1,0.01026854757219553,1,0.04058453068137169,1
1771616099322927616,-0.0004156112263444811,1,0.008837909437716007,1,0.04321097582578659,1
1771616099332877824,-0.000794973922893405,1,0.008900024928152561,1,0.04005502164363861,1
1771616099342818048,-0.002517631975933909,1,0.0101862121373415,1,0.04381269961595535,1
1771616099352748544,-0.003523469436913729,1,0.007902384735643864,1,0.04277769848704338,1
1771616099362668800,-0.001513941562734544,1,0.01102049462497234,1,0.03933633491396904,1
1771616099372579840,0.0006367112509906292,1,0.01059694401919842,1,0.03627553209662437,1
1771616099382480640,-0.001637769630178809,1,0.01146389916539192,1,0.03987037390470505,1
1771616099392371712,-0.000999026233330369,1,0.008638806641101837,1,0.03570916131138802,1
1771616099402252544,0.0008061921107582748,1,0.01196983642876148,1,0.04203486815094948,1
1771616099412361472,-0.0009031550725921988,1,0.007974833250045776,1,0.04015206545591354,1
1771616099422460416,-0.001555043854750693,1,0.009927244856953621,1,0.04264416545629501,1
1771616099432549120,2.346605469938368e-05,1,0.008535990491509438,1,0.0385809950530529,1
1771616099442628096,-0.0006232658633962274,1,0.0102581400424242,1,0.04135984182357788,1
1771616099452696832,0.001196303055621684,1,0.01150425523519516,1,0.03842893615365028,1
1771616099462755840,0.0007256268872879446,1,0.009604168124496937,1,0.03786849230527878,1
1771616099472804608,-0.0005689839017577469,1,0.01062026340514421,1,0.03899598866701126,1
1771616099482843392,-0.003130506025627255,1,0.01160054747015238,1,0.03847191482782364,1
1771616099492872448,-0.002024364890530705,1,0.01179133635014296,1,0.03774793446063995,1
1771616099502891776,-0.002388134598731995,1,0.01246481761336327,1,0.04115661978721619,1
1771616099512901120,-0.002597052371129394,1,0.01029181201010942,1,0.04105246812105179,1
1771616099522900224,-0.00391033198684454,1,0.008243218064308167,1,0.04215541481971741,1
1771616099532889856,-0.00255628558807075,1,0.006974056363105774,1,0.04197719693183899,1
1771616099542869504,-0.002176370471715927,1,0.009462838992476463,1,0.04096845909953117,1
1771616099552838912,0.0004127539868932217,1,0.01063762605190277,1,0.04175392538309097,1
1771616099562798592,0.0001790170936146751,1,0.01172687672078609,1,0.04024402052164078,1
1771616099572748032,0.0007360057788901031,1,0.01139993779361248,1,0.03750795498490334,1
1771616099582688000,-0.0004238092515151948,1,0.008427960798144341,1,0.03763152286410332,1
1771616099592617984,-0.001164772198535502,1,0.009158206172287464,1,0.04022569954395294,1
1771616099602537728,-0.002679064869880676,1,0.008496096357703209,1,0.04088502004742622,1
1771616099612448000,-0.003916523419320583,1,0.007859219796955585,1,0.04008561745285988,1
1771616099622348544,-0.004407964646816254,1,0.01007259264588356,1,0.04062969982624054,1
1771616099632239104,-0.003906368277966976,1,0.009116454049944878,1,0.04083405062556267,1
1771616099642119424,-0.0020386534743011,1,0.009782791137695312,1,0.04002478718757629,1
1771616099652227328,-0.002841566689312458,1,0.01072143856436014,1,0.03904495015740395,1
1771616099662324992,-0.004578720312565565,1,0.007333884015679359,1,0.03940209373831749,1
1771616099672412928,-0.001407129224389791,1,0.007269478868693113,1,0.03766274824738503,1
1771616099682490880,0.0008644807385280728,1,0.01152490172535181,1,0.03940617293119431,1
1771616099692558336,-0.0007759197033010423,1,0.01290570199489594,1,0.03734124451875687,1
1771616099702616064,0.0006861783331260085,1,0.01231824979186058,1,0.03608532622456551,1
1771616099712663808,0.00741600850597024,1,0.0147091168910265,1,0.04007011651992798,1
1771616099722701568,-0.003296460723504424,1,0.007535094395279884,1,0.04142846912145615,1
1771616099732729600,-0.005101515911519527,1,0.007203863002359867,1,0.03999411687254906,1
1771616099742747904,-0.0006748901796527207,1,0.01140967477113008,1,0.03605324029922485,1
1771616099752756224,-0.004625223577022552,1,0.009596031159162521,1,0.04292433708906174,1
1771616099762754304,-0.002837502397596836,1,0.008315726183354855,1,0.03889836370944977,1
1771616099772742656,-0.0009150523692369461,1,0.007715801242738962,1,0.03632056340575218,1
1771616099782721024,-0.005450214259326458,1,0.007268116809427738,1,0.03874216601252556,1
1771616099792689408,-0.0009572607232257724,1,0.01308229845017195,1,0.03906631842255592,1
1771616099802648064,0.003760944586247206,1,0.01392090041190386,1,0.03970855474472046,1
1771616099812596480,-0.0001892258296720684,1,0.01142927538603544,1,0.04025164246559143,1
1771616099822535168,-0.001840431708842516,1,0.008576470427215099,1,0.03958439826965332,1
1771616099832463872,-0.004333013668656349,1,0.008066408336162567,1,0.04086597263813019,1
1771616099842382592,-0.005506778135895729,1,0.007154380902647972,1,0.04187403991818428,1
1771616099852291840,-0.002969336230307817,1,0.009459777735173702,1,0.03750137612223625,1
1771616099862191104,-2.983573358505964e-05,1,0.01051279157400131,1,0.038597222417593,1
1771616099872080384,0.002403915859758854,1,0.01259990967810154,1,0.04092030227184296,1
1771616099882197760,0.004333272110670805,1,0.01456673815846443,1,0.04143641889095306,1
1771616099892305408,-0.0006608558469451964,1,0.01164549216628075,1,0.04001857340335846,1
1771616099902402816,-0.001236497075296938,1,0.008576380088925362,1,0.04056701064109802,1
1771616099912490240,-0.002777894958853722,1,0.007901858538389206,1,0.04051845893263817,1
1771616099922567936,-0.003988008480519056,1,0.006180527154356241,1,0.04036478698253632,1
1771616099932635648,-0.003221212886273861,1,0.009367531165480614,1,0.03945225104689598,1
1771616099942693120,-0.003489048685878515,1,0.01019066292792559,1,0.03972107172012329,1
1771616099952741120,-0.002609648276120424,1,0.009911147877573967,1,0.04209974408149719,1
1771616099962779136,-0.003292635781690478,1,0.009150378406047821,1,0.03944627568125725,1
1771616099972806912,-0.002347135450690985,1,0.00967636052519083,1,0.03888304904103279,1
1771616099982825216,-7.506448309868574e-05,1,0.01322352327406406,1,0.04030616581439972,1
1771616099992833536,0.001930134138092399,1,0.01299944333732128,1,0.04319997876882553,1
1771616100002831872,0.001103532500565052,1,0.01155237574130297,1,0.03964709490537643,1
1771616100012820224,-0.0004343204782344401,1,0.008523507975041866,1,0.03978295251727104,1
1771616100022798848,-0.001775432843714952,1,0.009217286482453346,1,0.03944805264472961,1
1771616100032767744,-0.003512136405333877,1,0.007933776825666428,1,0.03876157850027084,1
1771616100042728192,-0.003859238000586629,1,0.007921438664197922,1,0.03761157765984535,1
1771616100052678656,-0.00312700355425477,1,0.011455780826509,1,0.04142703488469124,1
1771616100062618880,0.0007291581714525819,1,0.01069159805774689,1,0.04032658040523529,1
1771616100072549376,0.003368284786120057,1,0.01336176507174969,1,0.042158093303442,1
1771616100082470144,0.0004350306116975844,1,0.0123191112652421,1,0.03862051293253899,1
1771616100092381184,-0.002932250732555985,1,0.008321018889546394,1,0.04057816788554192,1
1771616100102281984,-0.00470341881737113,1,0.008381515741348267,1,0.03921457752585411,1
1771616100112173056,-0.004835601896047592,1,0.00691326055675745,1,0.04072552919387817,1
1771616100122290688,-0.002603493630886078,1,0.01068178936839104,1,0.04077980294823647,1
1771616100132398336,-0.003058415371924639,1,0.01186912041157484,1,0.03837251290678978,1
1771616100142496512,-0.00377841736190021,1,0.01383603271096945,1,0.03809184208512306,1
1771616100152584448,-0.003559065517038107,1,0.01091276947408915,1,0.03688051179051399,1
1771616100162662400,-0.000881097512319684,1,0.008970731869339943,1,0.04206277802586555,1
1771616100172730624,0.0009053240064531565,1,0.01024397276341915,1,0.04187405109405518,1
1771616100182788864,-0.002379073295742273,1,0.008698215708136559,1,0.03982587158679962,1
1771616100192837376,-0.001992156263440847,1,0.01002485956996679,1,0.03994639217853546,1
1771616100202875904,-0.004529951605945826,1,0.0119106937199831,1,0.03913818299770355,1
1771616100212903936,-0.00290509988553822,1,0.009376270696520805,1,0.03754616528749466,1
1771616100222922240,-0.003928056918084621,1,0.009829619899392128,1,0.03653343021869659,1
1771616100232930816,-0.00366646028123796,1,0.009121225215494633,1,0.04009485617280006,1
1771616100242929408,-0.001254977309145033,1,0.00836916733533144,1,0.0405622124671936,1
1771616100252918272,-0.0004515086184255779,1,0.007973089814186096,1,0.03960815444588661,1
1771616100262896896,0.000499497284181416,1,0.009973697364330292,1,0.03895226866006851,1
1771616100272866048,-0.001178992912173271,1,0.01054870896041393,1,0.03778069093823433,1
1771616100282825216,-0.003252651542425156,1,0.00868852436542511,1,0.04034993052482605,1
1771616100292774400,-0.00254583521746099,1,0.008518069982528687,1,0.03971885144710541,1
1771616100302714368,-0.0006116274744272232,1,0.008295850828289986,1,0.04161937162280083,1
1771616100312644352,0.0008285401854664087,1,0.01105611771345139,1,0.04191724956035614,1
1771616100322565120,0.0007878005271777511,1,0.01232077833265066,1,0.04138162359595299,1
1771616100332475648,-0.0001293767127208412,1,0.009111915715038776,1,0.04104479402303696,1
1771616100342376448,-0.000802209076937288,1,0.01023273169994354,1,0.04160749539732933,1
1771616100352267520,7.321493467316031e-05,1,0.005169427487999201,1,0.04033900424838066,1
1771616100362384640,-0.001799973077140749,1,0.008298126049339771,1,0.03935573995113373,1
1771616100372491776,-0.002520362846553326,1,0.006936636287719011,1,0.04005730152130127,1
1771616100382588672,-0.00106414407491684,1,0.01047840900719166,1,0.04177813977003098,1
1771616100392675840,0.001420572982169688,1,0.0104355588555336,1,0.04040092974901199,1
1771616100402752768,0.0004219585389364511,1,0.009208150207996368,1,0.04116079583764076,1
1771616100412819968,0.001717414474114776,1,0.009077082388103008,1,0.03982846438884735,1
1771616100422877184,-0.0002240118628833443,1,0.008786863647401333,1,0.03837034478783607,1
1771616100432924416,-0.0006205932586453855,1,0.01116689201444387,1,0.03928843513131142,1
1771616100442961920,0.0002555993560235947,1,0.009035286493599415,1,0.03677328303456306,1
1771616100452989184,0.0002494140353519469,1,0.00910831056535244,1,0.03943946585059166,1
1771616100463006464,0.0003011455992236733,1,0.01101758237928152,1,0.03948162123560905,1
1771616100473014016,-0.001819397090002894,1,0.008449692279100418,1,0.04027188569307327,1
1771616100483011584,-0.001797062694095075,1,0.01114768348634243,1,0.0408019982278347,1
1771616100492998912,-0.0006139305187389255,1,0.01150602474808693,1,0.04031926766037941,1
1771616100502976512,-0.0006253852043300867,1,0.01241499278694391,1,0.04158300533890724,1
1771616100512944128,-0.0003226956177968532,1,0.01031714119017124,1,0.03861819207668304,1
1771616100522901760,0.0003131336416117847,1,0.009042021818459034,1,0.04136911034584045,1
1771616100532849664,-0.0001162253902293742,1,0.01026737038046122,1,0.03748994693160057,1
1771616100542787328,-0.001161485211923718,1,0.008205939084291458,1,0.03870544582605362,1
1771616100552716288,-0.002673526294529438,1,0.01163373049348593,1,0.04096682369709015,1
1771616100562635008,-0.001964072696864605,1,0.008237024769186974,1,0.03891035169363022,1
1771616100572544000,-0.002483050106093287,1,0.01206083409488201,1,0.04280223324894905,1
1771616100582443008,-0.0008557307883165777,1,0.01277660392224789,1,0.04160472750663757,1
1771616100592332288,-0.002068117493763566,1,0.01124810799956322,1,0.04007672145962715,1
1771616100602448896,-0.002820648951455951,1,0.01166678126901388,1,0.04080317169427872,1
1771616100612555520,-0.001214696327224374,1,0.01052724942564964,1,0.04060764983296394,1
1771616100622652416,-0.004712124820798635,1,0.01086392812430859,1,0.04189497604966164,1
1771616100632739072,-0.003876761300489306,1,0.009557015262544155,1,0.04038961231708527,1
1771616100642816000,-0.001227518660016358,1,0.01023650169372559,1,0.04126613959670067,1
1771616100652882688,0.001231561880558729,1,0.009815296158194542,1,0.04274928942322731,1
1771616100662939648,0.0001079791691154242,1,0.008723856881260872,1,0.0402359776198864,1
1771616100672986368,0.002038619015365839,1,0.01189586333930492,1,0.04274944216012955,1
1771616100683023360,0.0004417306045070291,1,0.01061955839395523,1,0.041209876537323,1
1771616100693050112,-0.0001139802916441113,1,0.01106344349682331,1,0.04203597456216812,1
1771616100703067392,-0.0002684708160813898,1,0.009462752379477024,1,0.04216506332159042,1
1771616100713074688,-8.198374416679144e-05,1,0.008956067264080048,1,0.04209219291806221,1
1771616100723071488,-0.001129437470808625,1,0.01067739631980658,1,0.04367865994572639,1
1771616100733059072,-0.00182907737325877,1,0.009426464326679707,1,0.04096231609582901,1
1771616100743036672,0.0004507097182795405,1,0.009808091446757317,1,0.04093277826905251,1
1771616100753004544,-0.001313671469688416,1,0.009202084504067898,1,0.04136402532458305,1
1771616100762962688,0.0003456125559750944,1,0.01049998216331005,1,0.04215655848383904,1
1771616100772911104,0.0009634916787035763,1,0.01042282395064831,1,0.04062638431787491,1
1771616100782849280,-0.0004490552237257361,1,0.009310444816946983,1,0.0409349761903286,1
1771616100792777984,-0.002590468386188149,1,0.01242776773869991,1,0.04057319834828377,1
1771616100802696704,-0.00381684466265142,1,0.01219994574785233,1,0.03774407505989075,1
1771616100812605184,-0.003279435914009809,1,0.01305589824914932,1,0.03965440765023232,1
1771616100822504448,-0.001938907080329955,1,0.01295805536210537,1,0.04198911041021347,1
1771616100832393472,-0.001915772329084575,1,0.01224502921104431,1,0.04240783303976059,1
1771616100842508288,-0.001910656923428178,1,0.01170346047729254,1,0.04024669155478477,1
1771616100852612864,-0.002236204920336604,1,0.009623234160244465,1,0.0415942594408989,1
1771616100862707712,-0.003124875482171774,1,0.01169516053050756,1,0.04098378866910934,1
1771616100872792576,-0.002458618255332112,1,0.007746956776827574,1,0.03933891654014587,1
1771616100882867456,-0.001757401623763144,1,0.009222229942679405,1,0.03931193798780441,1
1771616100892932608,-0.002656899858266115,1,0.009121015667915344,1,0.03679338097572327,1
1771616100902987520,-0.002297785831615329,1,0.009018108248710632,1,0.03690650314092636,1
1771616100913032704,-0.00401839567348361,1,0.01098315231502056,1,0.03683938086032867,1
1771616100923067648,-0.002963822335004807,1,0.009940046817064285,1,0.03591307625174522,1
1771616100933092864,-0.001453082775697112,1,0.0132672805339098,1,0.03801928460597992,1
1771616100943108864,-0.001641024136915803,1,0.01070426218211651,1,0.03847302868962288,1
1771616100953115136,-0.002654927782714367,1,0.012169124558568,1,0.04085614532232285,1
1771616100963111168,-0.002457953058183193,1,0.01072101108729839,1,0.03883681446313858,1
1771616100973097472,-0.001936384593136609,1,0.008734610863029957,1,0.0414038859307766,1
1771616100983073792,-0.003024930134415627,1,0.01184081006795168,1,0.04284239187836647,1
1771616100993040128,-0.002738455310463905,1,0.009084110148251057,1,0.04316260293126106,1
1771616101002996736,0.001076260232366621,1,0.01058470364660025,1,0.04447304084897041,1
1771616101012943104,0.0003481732273939997,1,0.01168940681964159,1,0.04625631123781204,1
1771616101022879744,0.0003245158586651087,1,0.01111881248652935,1,0.04262067377567291,1
1771616101032806144,-0.0001773977710399777,1,0.0130502600222826,1,0.04388407990336418,1
1771616101042723328,-0.001049563521519303,1,0.009503467008471489,1,0.03973652422428131,1
1771616101052630272,-0.001356237917207181,1,0.008556915447115898,1,0.0393451415002346,1
1771616101062527488,-0.002205701544880867,1,0.009288736619055271,1,0.03859047219157219,1
1771616101072414464,-0.003741099499166012,1,0.007563939783722162,1,0.03942778334021568,1
1771616101082527488,-0.003222357714548707,1,0.01153847575187683,1,0.03926599025726318,1
1771616101092630528,-0.001805746578611434,1,0.01117303036153316,1,0.03933056816458702,1
1771616101102723584,0.0007319512660615146,1,0.01412759721279144,1,0.03988302126526833,1
1771616101112806400,-0.001695792307145894,1,0.01190964691340923,1,0.04011330008506775,1
1771616101122879488,-0.000442548916907981,1,0.01216596271842718,1,0.04285401105880737,1
1771616101132942848,-0.002884529298171401,1,0.008272731676697731,1,0.04297860711812973,1
1771616101142996224,-0.002209470607340336,1,0.006447517778724432,1,0.04244359955191612,1
1771616101153039872,-0.002286329865455627,1,0.00925460085272789,1,0.03931530565023422,1
1771616101163073536,0.0001418839965481311,1,0.008593497797846794,1,0.03840020671486855,1
1771616101173097472,-0.0003402834408916533,1,0.01260359212756157,1,0.04068849608302116,1
1771616101183111424,-0.001356652472168207,1,0.01173869427293539,1,0.0417875237762928,1
1771616101193115648,-0.001338780275546014,1,0.01179670356214046,1,0.0404411107301712,1
1771616101203109632,-0.003558493452146649,1,0.01149389147758484,1,0.03826944530010223,1
1771616101213094912,-0.002657649572938681,1,0.01138188876211643,1,0.04164198413491249,1
1771616101223069952,-0.0007802147301845253,1,0.01148208696395159,1,0.0421922504901886,1
1771616101233035520,-0.002421187004074454,1,0.01000871974974871,1,0.04162881150841713,1
1771616101242991104,-0.004752679262310266,1,0.009829459711909294,1,0.04260129854083061,1
1771616101252936448,-0.002492784289643168,1,0.009987611323595047,1,0.04046939685940742,1
1771616101262872576,-0.001222620252519846,1,0.008877653628587723,1,0.04017400741577148,1
1771616101272798464,-0.000106125466118101,1,0.01255777012556791,1,0.04024594277143478,1
1771616101282714880,-0.001114743296056986,1,0.009693775326013565,1,0.03975914418697357,1
1771616101292621312,-0.001202679588459432,1,0.01063424721360207,1,0.04059185832738876,1
1771616101302518016,-0.001712688128463924,1,0.009422535076737404,1,0.04027668014168739,1
1771616101312405248,-0.001078905654139817,1,0.01104929205030203,1,0.04115238040685654,1
1771616101322516224,-0.0002301397471455857,1,0.01061416510492563,1,0.04033710807561874,1
1771616101332617472,-0.001501439372077584,1,0.009710664860904217,1,0.03919792547821999,1
1771616101342708480,-0.0009263132815249264,1,0.01120915170758963,1,0.03897369652986526,1
1771616101352789760,-0.0008366353577002883,1,0.01196924969553947,1,0.03983166813850403,1
1771616101362861056,-0.001041450770571828,1,0.01430883444845676,1,0.03981061279773712,1
1771616101372921856,-0.002673500450327992,1,0.01154977455735207,1,0.04029731824994087,1
1771616101382972928,-0.000400953198550269,1,0.01125825569033623,1,0.03833213821053505,1
1771616101393014528,-3.76329553546384e-05,1,0.01036312337964773,1,0.03890099376440048,1
1771616101403046400,-0.0003908040234819055,1,0.008174028247594833,1,0.03943243995308876,1
1771616101413068032,-0.001161888707429171,1,0.009174897335469723,1,0.03989801183342934,1
1771616101423079936,-0.003981329966336489,1,0.007528677117079496,1,0.03871199488639832,1
1771616101433081856,-0.004152383655309677,1,0.01257473416626453,1,0.04029718413949013,1
1771616101443073792,-0.002175791887566447,1,0.0129732470959425,1,0.03822541981935501,1
1771616101453056000,-0.0008875314379110932,1,0.01026847027242184,1,0.03826408460736275,1
1771616101463028224,-0.0009486722410656512,1,0.01086199842393398,1,0.04159270972013474,1
1771616101472990464,-0.002758128801360726,1,0.01031975448131561,1,0.0373099222779274,1
1771616101482942976,-0.002449784660711884,1,0.01099523436278105,1,0.04272262006998062,1
1771616101492885504,-0.003285215236246586,1,0.006753997877240181,1,0.04059167578816414,1
1771616101502818048,-0.00383217865601182,1,0.008733215741813183,1,0.03969773277640343,1
1771616101512741376,-0.00355156883597374,1,0.00905181560665369,1,0.03901248797774315,1
1771616101522654464,-0.001704330556094646,1,0.009446572512388229,1,0.0403532087802887,1
1771616101532558080,-0.0002769036800600588,1,0.01208174601197243,1,0.03890856355428696,1
1771616101542451712,-0.0005000081728212535,1,0.01004599779844284,1,0.03974517434835434,1
1771616101552335360,-0.000298492464935407,1,0.01119590271264315,1,0.04063346982002258,1
1771616101562445824,-2.411968307569623e-05,1,0.009155879728496075,1,0.0369594469666481,1
1771616101572546560,-0.001260860706679523,1,0.009620497934520245,1,0.03716852143406868,1
1771616101582637056,-0.001362178474664688,1,0.01012810971587896,1,0.03813178464770317,1
1771616101592717568,-0.002642094623297453,1,0.008251556195318699,1,0.04012263938784599,1
1771616101602788352,-0.001136193750426173,1,0.01091316994279623,1,0.04084158688783646,1
1771616101612848896,-0.001745994202792645,1,0.01005115453153849,1,0.03908120095729828,1
1771616101622899968,-7.887345418566838e-05,1,0.01289595104753971,1,0.04269594326615334,1
1771616101632940800,-0.0001097613785532303,1,0.0128974998369813,1,0.04052162170410156,1
1771616101642971648,-0.002324992790818214,1,0.01213698275387287,1,0.04153474047780037,1
1771616101652992256,-0.002179897157475352,1,0.01209928281605244,1,0.04045649617910385,1
1771616101663003392,-0.005005317740142345,1,0.008800136856734753,1,0.03877939656376839,1
1771616101673004544,-0.00330973812378943,1,0.01072419062256813,1,0.03894824907183647,1
1771616101682995456,-0.002678791992366314,1,0.01069243624806404,1,0.03753143921494484,1
1771616101692976640,-0.001211464521475136,1,0.01141915936022997,1,0.04060245305299759,1
1771616101702947840,-0.00231183273717761,1,0.01035703718662262,1,0.04048556089401245,1
1771616101712909056,-0.001812077010981739,1,0.009729345329105854,1,0.04079263284802437,1
1771616101722860544,-0.001060541952028871,1,0.009624511934816837,1,0.0414460264146328,1
1771616101732802560,-0.001456741476431489,1,0.008584977127611637,1,0.04317333549261093,1
1771616101742734592,-0.002009306801483035,1,0.008959735743701458,1,0.03808209300041199,1
1771616101752656896,-0.003239081474021077,1,0.00925113633275032,1,0.03997717797756195,1
1771616101762569216,-0.004579507280141115,1,0.008740401826798916,1,0.04018403589725494,1
1771616101772471552,-0.002426301361992955,1,0.009875454939901829,1,0.04257086664438248,1
1771616101782364416,-0.002651372458785772,1,0.008268250152468681,1,0.04317285120487213,1
1771616101792247552,-0.0005257095326669514,1,0.01004518195986748,1,0.043332789093256,1
1771616101802356736,-0.00108453375287354,1,0.0106982160359621,1,0.04278866574168205,1
1771616101812455680,-0.002162990160286427,1,0.01203736010938883,1,0.04062768071889877,1
1771616101822544896,-0.002701016841456294,1,0.01149375643581152,1,0.03891487419605255,1
1771616101832623872,-0.005135639104992151,1,0.008296141400933266,1,0.03930912166833878,1
1771616101842693120,-0.003831567475572228,1,0.01039156876504421,1,0.0394338071346283,1
1771616101852752384,-0.00432591000571847,1,0.009290325455367565,1,0.03720143064856529,1
1771616101862801664,-0.003690930549055338,1,0.009511487558484077,1,0.04067469015717506,1
1771616101872840960,-0.001374946674332023,1,0.01071911212056875,1,0.04038609564304352,1
1771616101882870272,-0.003031708532944322,1,0.01073301583528519,1,0.04031122848391533,1
1771616101892889600,-0.001608655671589077,1,0.01219260599464178,1,0.04314532876014709,1
1771616101902898944,-0.002689271932467818,1,0.01159874442964792,1,0.041292954236269,1
1771616101912898560,-0.002174123656004667,1,0.01025724690407515,1,0.0416472926735878,1
1771616101922888192,-0.002291264943778515,1,0.009991905651986599,1,0.04002376273274422,1
1771616101932867840,0.0001156285434262827,1,0.01118497923016548,1,0.04030757769942284,1
1771616101942838016,0.0003195735916960984,1,0.0106159383431077,1,0.03963189199566841,1
1771616101952798208,0.0003945010248571634,1,0.01032621785998344,1,0.04011701419949532,1
1771616101962748160,0.0001984917471418157,1,0.008953616954386234,1,0.03943541273474693,1
1771616101972688384,-0.0008300704648718238,1,0.009090875275433064,1,0.03980910032987595,1
1771616101982618368,-0.0004932682495564222,1,0.01099098101258278,1,0.03987700492143631,1
1771616101992538880,-0.0005809402791783214,1,0.00935086328536272,1,0.04126056283712387,1
1771616102002449664,-0.001649416633881629,1,0.009511624462902546,1,0.03994183242321014,1
1771616102012350464,-0.001712122117169201,1,0.01108464971184731,1,0.03817809373140335,1
1771616102022241024,-0.002622699830681086,1,0.009813688695430756,1,0.03999056294560432,1
1771616102032122368,-0.001035330933518708,1,0.009319794364273548,1,0.04077258333563805,1
1771616102042230016,2.48375981755089e-05,1,0.009569909423589706,1,0.04038004204630852,1
1771616102052327680,0.001711863791570067,1,0.01177954114973545,1,0.04067255184054375,1
1771616102062415616,0.002096557058393955,1,0.0124647468328476,1,0.03749046847224236,1
1771616102072493568,0.002446596743538976,1,0.01226127240806818,1,0.04013636335730553,1
1771616102082561024,0.0005039130919612944,1,0.01383511628955603,1,0.04002505168318748,1
1771616102092618752,0.0003702245885506272,1,0.01181511580944061,1,0.03925080224871635,1
1771616102102666496,0.0007112729363143444,1,0.01309229806065559,1,0.03900036960840225,1
1771616102112704512,-0.001967595890164375,1,0.01210968196392059,1,0.03832333534955978,1
1771616102122732288,0.001780830672942102,1,0.01186057552695274,1,0.04351840540766716,1
1771616102132750592,-0.001446678070351481,1,0.01244249194860458,1,0.04310369119048119,1
1771616102142758912,-0.002349428599700332,1,0.0116888927295804,1,0.0414985716342926,1
1771616102152756992,-0.0006308500887826085,1,0.01290909573435783,1,0.04101106524467468,1
1771616102162745344,-0.001371627673506737,1,0.01239178422838449,1,0.04013952612876892,1
1771616102172723456,-0.002279848325997591,1,0.0112041337415576,1,0.04035644233226776,1
1771616102182692096,-0.003532974980771542,1,0.01001492608338594,1,0.0391809269785881,1
1771616102192650752,-0.0008108018082566559,1,0.008959606289863586,1,0.04028980433940887,1
1771616102202599168,-0.002506672637537122,1,0.01123246364295483,1,0.03976923599839211,1
1771616102212537856,-0.0009958912851288915,1,0.01062987186014652,1,0.04185335710644722,1
1771616102222466560,-0.0022693972568959,1,0.01241005305200815,1,0.03979359194636345,1
1771616102232385280,-0.001533580478280783,1,0.009957524016499519,1,0.04029110446572304,1
1771616102242294528,-0.001649874961003661,1,0.008788218721747398,1,0.03944724053144455,1
1771616102252193792,-0.004777016118168831,1,0.0093657486140728,1,0.03883601725101471,1
1771616102262082816,-0.004263843409717083,1,0.00682528130710125,1,0.03910756856203079,1
1771616102272200448,-0.002898181322962046,1,0.009432271122932434,1,0.04113297164440155,1
1771616102282308096,-0.003506593871861696,1,0.009654415771365166,1,0.04089387506246567,1
1771616102292405504,-0.004088077694177628,1,0.009393858723342419,1,0.04250763356685638,1
1771616102302492928,-0.001491139642894268,1,0.008624101057648659,1,0.04356216639280319,1
1771616102312570624,-0.001508892280980945,1,0.01231440808624029,1,0.04363548383116722,1
1771616102322638080,-0.002014672150835395,1,0.01198935508728027,1,0.04503364488482475,1
1771616102332695808,-0.001276586903259158,1,0.01256160903722048,1,0.04211291298270226,1
1771616102342743552,-0.001999627100303769,1,0.0150154922157526,1,0.04168703407049179,1
1771616102352781056,-0.001946039614267647,1,0.0114314379170537,1,0.04257954657077789,1
1771616102362808576,-0.002574672689661384,1,0.009935437701642513,1,0.04172317683696747,1
1771616102372826368,-0.002145874314010143,1,0.009910579770803452,1,0.0417860634624958,1
1771616102382834176,-0.001356557942926884,1,0.01113848015666008,1,0.03955328837037086,1
1771616102392831744,-0.002034451579675078,1,0.01039273291826248,1,0.03982808068394661,1
1771616102402819584,0.0008519783150404692,1,0.008132908493280411,1,0.04140109196305275,1
1771616102412797440,0.001008776132948697,1,0.01061113830655813,1,0.04109076038002968,1
1771616102422765824,0.0002524126903153956,1,0.009713649749755859,1,0.04085185751318932,1
1771616102432724480,-0.002577509731054306,1,0.01095584873110056,1,0.04117191955447197,1
1771616102442672896,-0.001721192267723382,1,0.01049788948148489,1,0.03924322500824928,1
1771616102452611840,-0.002863150322809815,1,0.01044945046305656,1,0.03937754780054092,1
1771616102462540800,-0.003251121379435062,1,0.0124597167596221,1,0.04035520553588867,1
1771616102472459776,-0.00380031275562942,1,0.0119375316426158,1,0.03821833059191704,1
1771616102482368768,-0.004061520099639893,1,0.01137171126902103,1,0.04033529385924339,1
1771616102492268288,-0.004219784401357174,1,0.01017947774380445,1,0.03975273668766022,1
1771616102502158080,-0.002240765374153852,1,0.01096203923225403,1,0.03830620646476746,1
1771616102512275712,-0.002533654449507594,1,0.01198555622249842,1,0.03736143559217453,1
1771616102522383104,-0.005674879066646099,1,0.01161908730864525,1,0.03835142031311989,1
1771616102532480512,-0.002736349822953343,1,0.01113408617675304,1,0.03870048746466637,1
1771616102542567680,-0.002396462485194206,1,0.01260207686573267,1,0.03909102454781532,1
1771616102552645120,-0.002256919397041202,1,0.01251793652772903,1,0.03848390653729439,1
1771616102562712320,-0.002287228591740131,1,0.01163909025490284,1,0.03744939714670181,1
1771616102572769792,-0.002359275706112385,1,0.01146403513848782,1,0.03720156103372574,1
1771616102582817280,-0.003118558553978801,1,0.01109936181455851,1,0.03848515823483467,1
1771616102592854784,-0.001611776067875326,1,0.009456007741391659,1,0.04168770462274551,1
1771616102602882560,-0.001317285699769855,1,0.01002357620745897,1,0.04008514434099197,1
1771616102612899840,-0.002164099365472794,1,0.01076134387403727,1,0.03915903717279434,1
1771616102622907392,-0.003373621497303247,1,0.008622126653790474,1,0.04297066479921341,1
1771616102632904960,-0.003201595274731517,1,0.01008910406380892,1,0.04163260012865067,1
1771616102642892800,-0.001720011001452804,1,0.00835808739066124,1,0.0399773046374321,1
1771616102652870656,-0.001916656270623207,1,0.01137080881744623,1,0.0434412956237793,1
1771616102662838528,-0.002184978686273098,1,0.00840954203158617,1,0.04164049401879311,1
1771616102672796928,-0.003053886350244284,1,0.009658178314566612,1,0.03997271507978439,1
1771616102682745344,-0.0004926312249153852,1,0.01089809834957123,1,0.03942824527621269,1
1771616102692683520,-0.001514384290203452,1,0.01018947269767523,1,0.03941326960921288,1
1771616102702612736,-0.001117773237638175,1,0.009697671979665756,1,0.0400499515235424,1
1771616102712532224,-0.002222352894023061,1,0.008635389618575573,1,0.03946070373058319,1
1771616102722441728,-0.003429311327636242,1,0.01123506389558315,1,0.04153909534215927,1
1771616102732340992,-0.003385326359421015,1,0.01055959612131119,1,0.04009773954749107,1
1771616102742230784,-0.003700350178405643,1,0.009870211593806744,1,0.03997749090194702,1
1771616102752347904,-0.002244722563773394,1,0.01111522503197193,1,0.04249361157417297,1
1771616102762455296,-0.00156174844596535,1,0.0134027162566781,1,0.04310091584920883,1
1771616102772552448,-0.00193106138613075,1,0.01622059382498264,1,0.04430616274476051,1
1771616102782639616,-0.002904413267970085,1,0.01162616442888975,1,0.04020638018846512,1
1771616102792716800,-0.00378892314620316,1,0.01034820359200239,1,0.04009192064404488,1
1771616102802784000,-0.002656929660588503,1,0.01099208649247885,1,0.03838058933615685,1
1771616102812841472,-0.001657421234995127,1,0.01145036239176989,1,0.04051700606942177,1
1771616102822888448,-2.190249506384134e-05,1,0.00849492009729147,1,0.04028696939349174,1
1771616102832925440,-0.001592432148754597,1,0.01010314747691154,1,0.04225067049264908,1
1771616102842952960,-0.001884737866930664,1,0.01070584636181593,1,0.04225960746407509,1
1771616102852970496,-0.003350846702232957,1,0.007821532897651196,1,0.04156430810689926,1
1771616102862977792,-0.003052737331017852,1,0.01200098264962435,1,0.04301213100552559,1
1771616102872975104,-0.003409884171560407,1,0.01053865533322096,1,0.04074592515826225,1
1771616102882962688,-0.005743392743170261,1,0.01122903730720282,1,0.04139683768153191,1
1771616102892940800,-0.005433608777821064,1,0.010298952460289,1,0.04063618928194046,1
1771616102902908672,-0.004893511068075895,1,0.009043669328093529,1,0.04372837767004967,1
1771616102912866816,-0.003737354418262839,1,0.007843886502087116,1,0.04160971939563751,1
1771616102922815232,-0.002558005508035421,1,0.009881386533379555,1,0.04074379801750183,1
1771616102932753920,-0.002727444283664227,1,0.01122756954282522,1,0.04246592149138451,1
1771616102942682368,-0.0006914514815434813,1,0.01205754466354847,1,0.04190711304545403,1
1771616102952601088,-0.001830739667639136,1,0.01252805441617966,1,0.04312516748905182,1
1771616102962509824,-0.002297000028192997,1,0.01078406255692244,1,0.04288457706570625,1
1771616102972408832,-0.003101534210145473,1,0.01207777950912714,1,0.04094976186752319,1
1771616102982297856,-0.002423219615593553,1,0.01148637942969799,1,0.04306242242455482,1
1771616102992414720,-0.002562124282121658,1,0.01170214265584946,1,0.04088430106639862,1
1771616103002521600,-0.002229750622063875,1,0.01126083172857761,1,0.04166606813669205,1
1771616103012618240,-0.0009933192050084472,1,0.01279763411730528,1,0.03975623100996017,1
1771616103022704896,-0.004685348365455866,1,0.01081863045692444,1,0.04005511477589607,1
1771616103032781824,-0.003704524366185069,1,0.01116600539535284,1,0.04007342457771301,1
1771616103042848768,-0.002740547992289066,1,0.009965820237994194,1,0.03956547752022743,1
1771616103052905728,-0.003286009887233377,1,0.01120218820869923,1,0.03996163979172707,1
1771616103062952960,-0.002467331476509571,1,0.01365937758237123,1,0.03833990916609764,1
1771616103072989696,-0.001603101030923426,1,0.01129675190895796,1,0.04206207767128944,1
1771616103083016448,-0.0002759084454737604,1,0.01058776769787073,1,0.04149241000413895,1
1771616103093033728,-0.001536617986857891,1,0.01141514163464308,1,0.04341116175055504,1
1771616103103041024,-0.0007510306895710528,1,0.01023531705141068,1,0.04395396262407303,1
1771616103113038080,-0.0004982335958629847,1,0.009635506197810173,1,0.04363589733839035,1
1771616103123025408,-0.001722256536595523,1,0.01060786563903093,1,0.04341619089245796,1
1771616103133002752,-0.0009032579837366939,1,0.01158773712813854,1,0.04281897842884064,1
1771616103142970112,-0.0003968963865190744,1,0.008741240948438644,1,0.04231671616435051,1
1771616103152928768,-0.0003594402223825455,1,0.01050675474107265,1,0.04249534755945206,1
1771616103162877184,-0.0002316042664460838,1,0.01074328366667032,1,0.03927141800522804,1
1771616103172816128,-0.001303708413615823,1,0.01083972491323948,1,0.04085677117109299,1
1771616103182745344,-0.002777487272396684,1,0.009409946389496326,1,0.0418052114546299,1
1771616103192664576,-0.0008059216197580099,1,0.01034984923899174,1,0.04489730298519135,1
1771616103202574080,0.0001186641020467505,1,0.0112852780148387,1,0.04166416451334953,1
1771616103212474112,0.0001518414646852762,1,0.01069665607064962,1,0.04254300147294998,1
1771616103222364160,0.001480358769185841,1,0.008411621674895287,1,0.04009826481342316,1
1771616103232478976,-0.0006397799588739872,1,0.007441101595759392,1,0.04102965071797371,1
1771616103242583808,-0.002511531114578247,1,0.008302865549921989,1,0.04099795967340469,1
1771616103252678912,3.143661888316274e-05,1,0.01005487330257893,1,0.0419967882335186,1
1771616103262764032,-0.001427346607670188,1,0.009251140058040619,1,0.04169413819909096,1
1771616103272838912,-0.001719253719784319,1,0.01162845082581043,1,0.0405069924890995,1
1771616103282903808,-0.002993582980707288,1,0.01093242689967155,1,0.04033278673887253,1
1771616103292958720,-0.00328528112731874,1,0.01252901088446379,1,0.03943046554923058,1
1771616103303003648,-0.003801558632403612,1,0.01075098849833012,1,0.03754835948348045,1
1771616103313038592,-0.002610438736155629,1,0.01113407593220472,1,0.04003840312361717,1
1771616103323063552,-0.001869915286079049,1,0.01224165409803391,1,0.03881143406033516,1
1771616103333078528,-0.0005933644133619964,1,0.008740969933569431,1,0.03793494030833244,1
1771616103343083264,-0.001306297723203897,1,0.01149858348071575,1,0.04079101234674454,1
1771616103353078528,-0.0002055386430583894,1,0.01248940546065569,1,0.03871290758252144,1
1771616103363063808,-3.402461152290925e-05,1,0.01171185541898012,1,0.03594763949513435,1
1771616103373039360,-0.0009627731051295996,1,0.01424577087163925,1,0.03769385069608688,1
1771616103383005440,-0.001120551838539541,1,0.01284329127520323,1,0.038394745439291,1
1771616103392961536,-0.003345336765050888,1,0.01446453388780355,1,0.03788328543305397,1
1771616103402907392,-0.003226167988032103,1,0.01114832237362862,1,0.03591069579124451,1
1771616103412843520,-0.005407920572906733,1,0.00864129327237606,1,0.0412299819290638,1
1771616103422769920,-0.003907578065991402,1,0.007806796114891768,1,0.04302921146154404,1
1771616103432686592,-0.001482519903220236,1,0.007582513615489006,1,0.04058514907956123,1
1771616103442593024,-0.002102980855852365,1,0.01039440277963877,1,0.04255770146846771,1
1771616103452489728,0.002914944896474481,1,0.01417277101427317,1,0.04030824452638626,1
1771616103462376448,0.001691328594461083,1,0.01242298819124699,1,0.03985070437192917,1
1771616103472491008,-0.003292636247351766,1,0.008857025764882565,1,0.03805548697710037,1
1771616103482595584,-0.004811696242541075,1,0.004361614119261503,1,0.039881382137537,1
1771616103492690176,-0.006908934563398361,1,0.003354690968990326,1,0.03828174620866776,1
1771616103502775040,-0.00537863839417696,1,0.006221509538590908,1,0.04043668136000633,1
1771616103512849920,0.002653892152011395,1,0.01167232543230057,1,0.04252354428172112,1
1771616103522914560,0.004611928481608629,1,0.01478369068354368,1,0.04121549054980278,1
1771616103532969472,0.003934126812964678,1,0.01580998115241528,1,0.0413980521261692,1
1771616103543013888,-0.002239778405055404,1,0.008077287115156651,1,0.03680313006043434,1
1771616103553048320,-0.007020674180239439,1,0.006351553369313478,1,0.03931399807333946,1
1771616103563073280,-0.004527241457253695,1,0.005528700072318316,1,0.03831213340163231,1
1771616103573088256,-0.0005601607845164835,1,0.009037044830620289,1,0.0410829521715641,1
1771616103583092992,0.0009622504003345966,1,0.01228411961346865,1,0.03973103687167168,1
1771616103593087744,0.001770941307768226,1,0.01386539079248905,1,0.04159417003393173,1
1771616103603072768,-0.002398558892309666,1,0.01222570892423391,1,0.04104377329349518,1
1771616103613047808,-0.005178244784474373,1,0.009492591954767704,1,0.0422818511724472,1
1771616103623012608,-0.005750021897256374,1,0.00537966750562191,1,0.04108334705233574,1
1771616103632968704,-0.00369564862921834,1,0.007044972851872444,1,0.03627368807792664,1
1771616103642914560,0.0005474712233990431,1,0.01331404875963926,1,0.03713743761181831,1
1771616103652850688,0.002853909740224481,1,0.01633062772452831,1,0.0394790954887867,1
1771616103662776576,0.001624722848646343,1,0.01198372524231672,1,0.03911889716982841,1
1771616103672692992,-0.001662322320044041,1,0.008725650608539581,1,0.03897861018776894,1
1771616103682599424,-0.004152777139097452,1,0.007953224703669548,1,0.03939439356327057,1
1771616103692495872,-0.004877602215856314,1,0.007894138805568218,1,0.0398854948580265,1
1771616103702382336,-0.001128718256950378,1,0.0125185027718544,1,0.0407397523522377,1
1771616103712495104,0.00301229883916676,1,0.01161969266831875,1,0.03927965462207794,1
1771616103722597632,0.003357809269800782,1,0.01233328133821487,1,0.04126811772584915,1
1771616103732690432,-0.0008613921818323433,1,0.01021114271134138,1,0.04109048470854759,1
1771616103742772992,-0.003953701816499233,1,0.00772893475368619,1,0.03862543404102325,1
1771616103752846080,-0.004395295400172472,1,0.009240418672561646,1,0.03866487741470337,1
1771616103762908928,-0.00304091302677989,1,0.01090553961694241,1,0.03776279464364052,1
1771616103772961792,0.0004759205039590597,1,0.01380656100809574,1,0.04091791436076164,1
1771616103783004416,0.001523257582448423,1,0.01285354420542717,1,0.04138873890042305,1
1771616103793037312,0.0005405566189438105,1,0.01061196066439152,1,0.03918435052037239,1
1771616103803059968,-1.23700883705169e-05,1,0.009852970018982887,1,0.03990503400564194,1
1771616103813072896,-0.002853903686627746,1,0.007409802637994289,1,0.03958804160356522,1
1771616103823075584,-0.00411086855456233,1,0.006353600416332483,1,0.03997447714209557,1
1771616103833068544,-0.006989783607423306,1,0.006465532351285219,1,0.04111680388450623,1
1771616103843051264,-0.0004134517803322524,1,0.01452071126550436,1,0.04110274463891983,1
1771616103853025024,0.0009752304758876562,1,0.004529285244643688,1,0.0371679812669754,1
1771616103862988800,0.005137893371284008,1,0.01142205111682415,1,0.05556554719805717,1
1771616103872942336,-0.003549902932718396,1,0.009056275710463524,1,0.03488121554255486,1
1771616103882886144,-0.01012613996863365,1,0.008683281019330025,1,0.03688516467809677,1
1771616103892819968,0.0127770509570837,1,0.01358218677341938,1,0.03837500512599945,1
1771616103902744064,-0.002935719909146428,1,0.004567008465528488,1,0.04649630934000015,1
1771616103912658176,-0.007085231132805347,1,0.01260550040751696,1,0.04102556779980659,1
1771616103922562560,0.002631821902468801,1,0.01036175712943077,1,0.03105589374899864,1
1771616103932456704,0.001175314537249506,1,0.0145720187574625,1,0.05085284635424614,1
1771616103942341632,-0.00558571657165885,1,0.003848616732284427,1,0.0375387966632843,1
1771616103952452608,-0.006233785301446915,1,0.00547193456441164,1,0.03910522907972336,1
1771616103962553856,-0.009460278786718845,1,0.003043537493795156,1,0.04185993224382401,1
1771616103972644864,-0.003343660850077868,1,0.009246266447007656,1,0.04247726872563362,1
1771616103982726144,0.007442042231559753,1,0.01876446418464184,1,0.03820303454995155,1
1771616103992797184,-0.0001086757984012365,1,0.01513401232659817,1,0.04107106849551201,1
1771616104002858496,-0.003994971513748169,1,0.01210607774555683,1,0.0379461832344532,1
1771616104012909824,-0.0005164874019101262,1,0.006855393759906292,1,0.03795666992664337,1
1771616104022951424,-0.006294115446507931,1,0.006210142280906439,1,0.04370939359068871,1
1771616104032982784,-0.006711885333061218,1,0.008865289390087128,1,0.03914696723222733,1
1771616104043004416,-0.004270476754754782,1,0.01080806739628315,1,0.04002568125724792,1
1771616104053016064,0.002582183573395014,1,0.01569104380905628,1,0.03987354785203934,1
1771616104063017984,0.005919566377997398,1,0.01784336939454079,1,0.04071569070219994,1
1771616104073009920,0.0003771594492718577,1,0.01337279006838799,1,0.0377483032643795,1
1771616104082992128,-0.007124880328774452,1,0.004789403639733791,1,0.04098959267139435,1
1771616104092964096,-0.006202566437423229,1,0.007101615890860558,1,0.04147498682141304,1
1771616104102926336,-0.002817191649228334,1,0.009158196859061718,1,0.0387827642261982,1
1771616104112878592,0.002222267910838127,1,0.01501058973371983,1,0.04069014266133308,1
1771616104122820864,0.00489707849919796,1,0.01553082093596458,1,0.04071773961186409,1
1771616104132753408,0.002162103075534105,1,0.01378463394939899,1,0.04093396291136742,1
1771616104142675712,-0.002596334787085652,1,0.01022914610803127,1,0.04143119603395462,1
1771616104152588544,-0.006152047775685787,1,0.009882893413305283,1,0.0395023450255394,1
1771616104162491648,-0.004195528570562601,1,0.01030409894883633,1,0.03973374515771866,1
1771616104172384768,-0.0005308208055794239,1,0.01353749074041843,1,0.04196634143590927,1
1771616104182267904,0.0002697136078495532,1,0.01256060414016247,1,0.04156021401286125,1
1771616104192376576,-0.001000697026029229,1,0.01053496636450291,1,0.04437693208456039,1
1771616104202475520,-0.0009817032841965556,1,0.010522092692554,1,0.04111425951123238,1
1771616104212564224,-0.00260583870112896,1,0.00665310537442565,1,0.04040542244911194,1
1771616104222643456,-0.006579470820724964,1,0.00690571079030633,1,0.03985587507486343,1
1771616104232712448,-0.003844915190711617,1,0.005850714165717363,1,0.03939858824014664,1
1771616104242771456,-0.0001427572278771549,1,0.01028972584754229,1,0.0400705561041832,1
1771616104252820480,0.0006210001884028316,1,0.01364653836935759,1,0.03817575424909592,1
1771616104262859264,-0.0009168246760964394,1,0.01022336259484291,1,0.0379658080637455,1
1771616104272888064,-0.002311641816049814,1,0.007840907201170921,1,0.03863988444209099,1
1771616104282907392,-0.00300975376740098,1,0.006928380578756332,1,0.03818763792514801,1
1771616104292916736,-0.001466798828914762,1,0.008431576192378998,1,0.03798528388142586,1
1771616104302915840,-0.00150706700515002,1,0.01198544912040234,1,0.04095679521560669,1
1771616104312905216,-0.0007686412427574396,1,0.01190401334315538,1,0.04200378060340881,1
1771616104322884864,-0.0002791075385175645,1,0.01410657726228237,1,0.0406569130718708,1
1771616104332855040,-0.004379591438919306,1,0.009327102452516556,1,0.03992887586355209,1
1771616104342815232,-0.003382315626367927,1,0.00937067624181509,1,0.03600721433758736,1
1771616104352765184,-0.00312693091109395,1,0.01099654193967581,1,0.03679260239005089,1
1771616104362705408,-0.003261097241193056,1,0.009376543574035168,1,0.03729996457695961,1
1771616104372635648,-0.001457814360037446,1,0.009170264005661011,1,0.03896916657686234,1
1771616104382555904,5.870235327165574e-05,1,0.009528831578791142,1,0.03686416521668434,1
1771616104392466688,0.001879033516161144,1,0.01162091828882694,1,0.03798937425017357,1
1771616104402367488,-0.001629420439712703,1,0.008573144674301147,1,0.0373113602399826,1
1771616104412258048,-0.003861542092636228,1,0.009341774508357048,1,0.03998731076717377,1
1771616104422139392,-0.00147904793266207,1,0.008858212269842625,1,0.03913770616054535,1
1771616104432247040,-0.0009447954362258315,1,0.009879360906779766,1,0.04256655648350716,1
1771616104442344960,0.001733207143843174,1,0.01209054235368967,1,0.04071421921253204,1
1771616104452432640,0.001611749990843236,1,0.01126842945814133,1,0.0391630046069622,1
1771616104462510592,-0.00143618241418153,1,0.01160315051674843,1,0.03932029753923416,1
1771616104472578304,-0.005247796885669231,1,0.01004999503493309,1,0.03908417746424675,1
1771616104482636288,-0.003959668800234795,1,0.01214680075645447,1,0.03730356693267822,1
1771616104492684032,-0.004594050813466311,1,0.01107933279126883,1,0.03880808874964714,1
1771616104502721792,-0.002139027928933501,1,0.01136516034603119,1,0.04227940365672112,1
1771616104512749824,-0.003862552344799042,1,0.009612039662897587,1,0.04171136766672134,1
1771616104522767872,-0.006443549878895283,1,0.007953166961669922,1,0.04160767793655396,1
1771616104532775680,-0.004490835126489401,1,0.00747315026819706,1,0.04107276722788811,1
1771616104542774784,-0.006090017035603523,1,0.008907399140298367,1,0.04112568125128746,1
1771616104552763648,-0.005336981266736984,1,0.01110961474478245,1,0.04013479501008987,1
1771616104562742784,-0.001064868061803281,1,0.009011027403175831,1,0.03989972174167633,1
1771616104572711680,-0.001681853667832911,1,0.008880555629730225,1,0.03854111209511757,1
1771616104582670848,-0.001123757218010724,1,0.01080184802412987,1,0.03926381096243858,1
1771616104592620032,-0.000897665973752737,1,0.01021214202046394,1,0.03931018710136414,1
1771616104602559232,-0.001457070698961616,1,0.01073339767754078,1,0.03894790261983871,1
1771616104612488704,-0.003357517998665571,1,0.01133558806031942,1,0.03903504461050034,1
1771616104622407936,-0.002570005832239985,1,0.01234000455588102,1,0.03937450423836708,1
1771616104632317696,-0.001849662396125495,1,0.01320002786815166,1,0.04055731743574142,1
1771616104642217728,-0.002228005323559046,1,0.01296220812946558,1,0.04065677151083946,1
1771616104652107776,-0.003587477607652545,1,0.01117239985615015,1,0.03957951068878174,1
1771616104662225408,-0.002807871205732226,1,0.008960502222180367,1,0.03960579633712769,1
1771616104672333056,-0.0005505316075868905,1,0.008975083939731121,1,0.04089256376028061,1
1771616104682430976,-0.001073099207133055,1,0.00825791247189045,1,0.04085930436849594,1
1771616104692518400,-0.002185316290706396,1,0.009008319117128849,1,0.04306385293602943,1
1771616104702596096,-0.003529706271365285,1,0.009460464119911194,1,0.03965286910533905,1
1771616104712663552,-0.002706802915781736,1,0.007635255344212055,1,0.04029945284128189,1
1771616104722721280,-0.002011814853176475,1,0.007782786153256893,1,0.04068635031580925,1
1771616104732769024,-0.003710581921041012,1,0.006245430093258619,1,0.04015716910362244,1
1771616104742807040,-0.002793229417875409,1,0.008350366726517677,1,0.04115431383252144,1
1771616104752834560,-0.0004635870573110878,1,0.008841500617563725,1,0.04182598739862442,1
1771616104762852608,0.001375645282678306,1,0.01140895206481218,1,0.0399128794670105,1
1771616104772860928,0.0008595760446041822,1,0.01156890857964754,1,0.04121971875429153,1
1771616104782859008,-0.003427751129493117,1,0.01034352369606495,1,0.04011557251214981,1
1771616104792847360,-0.003062541130930185,1,0.01009069941937923,1,0.04065386950969696,1
1771616104802825728,7.301647201529704e-06,1,0.00854799710214138,1,0.0401701033115387,1
1771616104812794112,-0.0002830677840393037,1,0.00914489384740591,1,0.03730329498648643,1
1771616104822752768,0.000293943885480985,1,0.01189777441322803,1,0.03959573060274124,1
1771616104832701184,-0.003868868574500084,1,0.01009476836770773,1,0.04074035584926605,1
1771616104842639872,-0.002869333606213331,1,0.008488518185913563,1,0.04140585660934448,1
1771616104852568576,-0.004136273637413979,1,0.009285952895879745,1,0.03911663964390755,1
1771616104862487552,-0.003582454286515713,1,0.009166683070361614,1,0.03877129405736923,1
1771616104872396544,-0.003142101457342505,1,0.01001193467527628,1,0.03895188868045807,1
1771616104882296064,-0.001709367264993489,1,0.008843568153679371,1,0.03920581191778183,1
1771616104892185600,-0.001086188247427344,1,0.008524517528712749,1,0.03962447494268417,1
1771616104902302720,-0.001875897170975804,1,0.008066190406680107,1,0.04010867327451706,1
1771616104912409856,-0.0008511595078743994,1,0.009776931256055832,1,0.03912592306733131,1
1771616104922507264,-0.001468814443796873,1,0.0094101307913661,1,0.03955941274762154,1
1771616104932594432,-0.001621864037588239,1,0.009258921258151531,1,0.03832541406154633,1
1771616104942671872,-0.0031408432405442,1,0.01184988208115101,1,0.04122501984238625,1
1771616104952739072,-0.003429620293900371,1,0.01387860812246799,1,0.03906097635626793,1
1771616104962796544,-0.0002808038843795657,1,0.01439887005835772,1,0.03975525870919228,1
1771616104972843776,-0.0004095415933988988,1,0.01192158274352551,1,0.04043862968683243,1
1771616104982881536,-0.001042740768752992,1,0.01192444656044245,1,0.04110294952988625,1
1771616104992909312,-0.001432299381121993,1,0.008237960748374462,1,0.040269885212183,1
1771616105002926848,-0.001505708787590265,1,0.009474867023527622,1,0.04020878672599792,1
1771616105012934656,0.0002751588763203472,1,0.01079319231212139,1,0.03984342887997627,1
1771616105022932224,-0.001280710566788912,1,0.0092712277546525,1,0.03910638391971588,1
1771616105032920064,-0.003360825590789318,1,0.008630729280412197,1,0.04206846654415131,1
1771616105042897920,-0.001497908844612539,1,0.007888703607022762,1,0.0410221666097641,1
1771616105052865792,-0.002759856637567282,1,0.01129089295864105,1,0.03825739398598671,1
1771616105062823936,-0.002496978500857949,1,0.01303980685770512,1,0.0375111997127533,1
1771616105072771840,-0.001410278026014566,1,0.0121867349371314,1,0.03976856544613838,1
1771616105082710016,-0.0032373012509197,1,0.01118841581046581,1,0.04158705472946167,1
1771616105092638464,-0.002390919486060739,1,0.01164256315678358,1,0.04087435826659203,1
1771616105102557184,-0.003742259461432695,1,0.01342719234526157,1,0.04051035642623901,1
1771616105112465664,-0.004303812514990568,1,0.009140109643340111,1,0.03929043188691139,1
1771616105122364416,-0.001350165461190045,1,0.00845812913030386,1,0.03999430313706398,1
1771616105132253440,-0.002566257026046515,1,0.01047827396541834,1,0.03900275751948357,1
1771616105142370560,-0.003178113140165806,1,0.008697194047272205,1,0.03974444791674614,1
1771616105152477952,-0.001186446752399206,1,0.008252603933215141,1,0.04066523909568787,1
1771616105162575104,-0.001674149883911014,1,0.008760196156799793,1,0.0406380295753479,1
1771616105172662272,-0.0002107452892232686,1,0.01053908001631498,1,0.04198914393782616,1
1771616105182739200,-0.001692674122750759,1,0.01237249281257391,1,0.03990095853805542,1
1771616105192806400,-0.0009260905208066106,1,0.01097351126372814,1,0.04096868634223938,1
1771616105202864384,-0.00162558164447546,1,0.01334360893815756,1,0.0397300198674202,1
1771616105212912384,-0.002068286994472146,1,0.009204472415149212,1,0.03797765821218491,1
1771616105222950400,-0.002610776806250215,1,0.01016740873456001,1,0.03896289318799973,1
1771616105232978176,-0.003694705199450254,1,0.01009126752614975,1,0.0390038974583149,1
1771616105242996224,-0.004732905887067318,1,0.01099428068846464,1,0.04196737706661224,1
1771616105253004032,-0.002241114620119333,1,0.01060966774821281,1,0.04098475351929665,1
1771616105263002112,-0.003104039467871189,1,0.009911083616316319,1,0.04197519272565842,1
1771616105272989952,-0.001401793444529176,1,0.01011662278324366,1,0.04430985450744629,1
1771616105282968320,-0.003246224950999022,1,0.008770890533924103,1,0.04170648008584976,1
1771616105292936704,-0.001908564008772373,1,0.009753010235726833,1,0.04122177511453629,1
1771616105302895104,-0.00306161493062973,1,0.009618173353374004,1,0.04082421585917473,1
1771616105312843520,-0.002151992172002792,1,0.008044530637562275,1,0.04250579699873924,1
1771616105322782464,-0.00115273566916585,1,0.008060729131102562,1,0.04340074956417084,1
1771616105332711424,-0.00238735624589026,1,0.009678684175014496,1,0.04276622459292412,1
1771616105342630400,-0.001594654750078917,1,0.01193900872021914,1,0.04361880943179131,1
1771616105352539392,-0.003435679478570819,1,0.01210134383291006,1,0.04237126186490059,1
1771616105362438912,-0.004215855617076159,1,0.009722605347633362,1,0.04347106441855431,1
1771616105372328448,-0.00411930913105607,1,0.01017849799245596,1,0.04162837564945221,1
1771616105382445056,-0.005360123235732317,1,0.00957923661917448,1,0.0441478043794632,1
1771616105392551936,-0.004645233042538166,1,0.00991103146225214,1,0.04420483857393265,1
1771616105402648576,-0.003627885831519961,1,0.01051910128444433,1,0.04186579585075378,1
1771616105412735232,-0.00336183630861342,1,0.0107286786660552,1,0.04162256047129631,1
1771616105422812160,-0.001169699709862471,1,0.01101472694426775,1,0.03933079540729523,1
1771616105432879104,0.0007086641853675246,1,0.01001181919127703,1,0.0412832647562027,1
1771616105442936064,-0.001318599563091993,1,0.01071295421570539,1,0.04225718602538109,1
1771616105452983040,-0.001044216332957149,1,0.009837782010436058,1,0.0427497923374176,1
1771616105463020032,-0.0008517507812939584,1,0.01091997139155865,1,0.04349783435463905,1
1771616105473047040,-0.0001121653622249141,1,0.00930465292185545,1,0.04033865034580231,1
1771616105483064064,-0.0008016451029106975,1,0.009619550779461861,1,0.04038166627287865,1
1771616105493071360,-0.001046084566041827,1,0.01030868105590343,1,0.0382184311747551,1
1771616105503068416,-0.0002454159257467836,1,0.01022789534181356,1,0.03852188214659691,1
1771616105513056000,-0.000895687029697001,1,0.009246142581105232,1,0.03897444531321526,1
1771616105523033600,-0.004027115181088448,1,0.008967452682554722,1,0.04163360968232155,1
1771616105533000960,-0.002281572436913848,1,0.01130073517560959,1,0.0404045432806015,1
1771616105542958592,-0.003876299597322941,1,0.009290009737014771,1,0.03851612657308578,1
1771616105552906240,-0.002687086351215839,1,0.007617706898599863,1,0.03700442612171173,1
1771616105562844416,-0.003350527724251151,1,0.01033196877688169,1,0.03871458023786545,1
1771616105572772864,-0.00302053289487958,1,0.00925871916115284,1,0.04047095030546188,1
1771616105582691072,-0.00195767916738987,1,0.01044153049588203,1,0.04097666963934898,1
1771616105592600064,-0.002127904677763581,1,0.009725315496325493,1,0.04051821306347847,1
1771616105602498816,-0.003174359211698174,1,0.01202671695500612,1,0.04073545709252357,1
1771616105612387840,-0.001802947139367461,1,0.01055718958377838,1,0.0422331690788269,1
1771616105622504448,0.0002177976275561377,1,0.008756326511502266,1,0.04277707263827324,1
1771616105632610816,-0.002329363487660885,1,0.009721380658447742,1,0.04356784373521805,1
1771616105642707456,-0.003013816196471453,1,0.008554616011679173,1,0.04066308215260506,1
1771616105652793856,-0.00263144145719707,1,0.009793982841074467,1,0.04067642614245415,1
1771616105662870272,-0.002820452908053994,1,0.009966708719730377,1,0.03758269175887108,1
1771616105672936704,-0.001580498530529439,1,0.009305610321462154,1,0.04198439419269562,1
1771616105682993408,-0.00316665880382061,1,0.009420612826943398,1,0.03953003510832787,1
1771616105693040128,-0.002807603683322668,1,0.009524357505142689,1,0.04052100330591202,1
1771616105703076352,-0.00185976130887866,1,0.008265091106295586,1,0.04230092465877533,1
1771616105713102848,-0.0009195380844175816,1,0.008296017535030842,1,0.04011991247534752,1
1771616105723119360,-0.001738182618282735,1,0.01126495189964771,1,0.04163702577352524,1
1771616105733126144,-0.001294959452934563,1,0.01006080955266953,1,0.04008571431040764,1
1771616105743122944,-0.001683535054326057,1,0.01103272847831249,1,0.0416182279586792,1
1771616105753110272,-0.001739843166433275,1,0.009159307926893234,1,0.03734347596764565,1
1771616105763087872,-0.00088082579895854,1,0.006651792209595442,1,0.03761966899037361,1
1771616105773055232,-0.001229258021339774,1,0.01008357759565115,1,0.03814263641834259,1
1771616105783013120,-0.001160792540758848,1,0.00992768257856369,1,0.03824953734874725,1
1771616105792961024,-0.001106896554119885,1,0.01071539986878633,1,0.03912478685379028,1
1771616105802898688,-0.002761074109002948,1,0.00874283816665411,1,0.04080784320831299,1
1771616105812826624,-0.002265563001856208,1,0.01020571403205395,1,0.04437344148755074,1
1771616105822744576,-0.002754116663709283,1,0.01103799324482679,1,0.04329830408096313,1
1771616105832652800,-0.004661600105464458,1,0.009541479870676994,1,0.0423114001750946,1
1771616105842551040,-0.004191257525235415,1,0.01064069662243128,1,0.04269522055983543,1
1771616105852439552,-0.00456222565844655,1,0.009735205210745335,1,0.03984460979700089,1
1771616105862554112,-0.002952131908386946,1,0.0111143309623003,1,0.04327626898884773,1
1771616105872658432,-0.003651420120149851,1,0.01063984259963036,1,0.04196593165397644,1
1771616105882753024,-0.002605064772069454,1,0.009153652004897594,1,0.04035064578056335,1
1771616105892837376,-0.001154895522631705,1,0.009342913515865803,1,0.03838939964771271,1
1771616105902911744,-0.002130437642335892,1,0.006480171345174313,1,0.03529001399874687,1
1771616105912976384,-0.002395476680248976,1,0.008290313184261322,1,0.03764386475086212,1
1771616105923030784,-0.003643576055765152,1,0.00798223540186882,1,0.03914905339479446,1
1771616105933075712,-0.002964978571981192,1,0.007097221910953522,1,0.03868702426552773,1
1771616105943110656,-0.002152587287127972,1,0.01089238002896309,1,0.03893494233489037,1
1771616105953135616,-0.001707955030724406,1,0.0110650435090065,1,0.03982573002576828,1
1771616105963150336,-0.001064777141436934,1,0.009724779054522514,1,0.0401572547852993,1
1771616105973155328,-0.0007213887292891741,1,0.008882812224328518,1,0.04097262769937515,1
1771616105983150336,-0.003277976531535387,1,0.009484130889177322,1,0.04058090969920158,1
1771616105993135872,-0.002521150046959519,1,0.009920797310769558,1,0.03820675611495972,1
1771616106003111424,-0.002086639869958162,1,0.009772845543920994,1,0.03883238881826401,1
1771616106013076992,-0.002942857798188925,1,0.01000863779336214,1,0.042128786444664,1
1771616106023033344,-0.002918476238846779,1,0.0102220606058836,1,0.04307581856846809,1
1771616106032979712,-0.003274468472227454,1,0.0123559832572937,1,0.04104643315076828,1
1771616106042916608,-0.0005577834090217948,1,0.0105638699606061,1,0.0403638631105423,1
1771616106052843520,-0.001806508167646825,1,0.01009328290820122,1,0.03916378691792488,1
1771616106062760448,-0.001239249599166214,1,0.01216140016913414,1,0.03869319334626198,1
1771616106072667392,-0.002423739992082119,1,0.006717220414429903,1,0.03455065563321114,1
1771616106082564864,-0.003392308484762907,1,0.007886333391070366,1,0.0374206006526947,1
1771616106092452352,-0.003345702541992068,1,0.008598871529102325,1,0.03933918848633766,1
1771616106102564864,-0.003284791484475136,1,0.01126893516629934,1,0.04107654094696045,1
1771616106112667648,-0.002836494706571102,1,0.01090045180171728,1,0.03922414779663086,1
1771616106122760192,-0.001317394082434475,1,0.01104783266782761,1,0.04083701223134995,1
1771616106132843008,-0.0004508613492362201,1,0.01219107955694199,1,0.04245137050747871,1
1771616106142916352,0.0004191578773315996,1,0.01008195709437132,1,0.04312607645988464,1
1771616106152979712,0.0004095785552635789,1,0.01144423056393862,1,0.0426187552511692,1
1771616106163033088,-0.001714611775241792,1,0.009080199524760246,1,0.03925564512610435,1
1771616106173076480,-0.001820283010601997,1,0.01139715313911438,1,0.03985749185085297,1
1771616106183109632,-0.002512358827516437,1,0.008596866391599178,1,0.04055910930037498,1
1771616106193132800,-0.002889155177399516,1,0.007783703040331602,1,0.03838628157973289,1
1771616106203146496,-0.0023455994669348,1,0.008524964563548565,1,0.03913483023643494,1
1771616106213150208,-0.000213923369301483,1,0.008553802035748959,1,0.03703658282756805,1
1771616106223143680,-0.0006927166832610965,1,0.01181714329868555,1,0.03912166878581047,1
1771616106233127680,0.0003025500336661935,1,0.01070261746644974,1,0.03813159093260765,1
1771616106243101696,-0.0004956707125529647,1,0.009634609334170818,1,0.0398746058344841,1
1771616106253065728,-0.0005293685244396329,1,0.01006253622472286,1,0.04080849140882492,1
1771616106263019776,-0.002774956403300166,1,0.009565395303070545,1,0.04193892329931259,1
1771616106272964096,-0.001615441404283047,1,0.009858760982751846,1,0.04378801211714745,1
1771616106282898432,-0.002487001940608025,1,0.01012197975069284,1,0.04151366278529167,1
1771616106292822784,-0.00256215245462954,1,0.0113137774169445,1,0.03930645808577538,1
1771616106302739712,-0.001382772927172482,1,0.01029539201408625,1,0.03973274677991867,1
1771616106312646656,-0.0003988540556747466,1,0.01060421857982874,1,0.03966877609491348,1
1771616106322543360,-0.001889245002530515,1,0.0100245401263237,1,0.04016702994704247,1
1771616106332430592,-0.00346097070723772,1,0.008920229040086269,1,0.04022509232163429,1
1771616106342541568,-0.002354522235691547,1,0.008853774517774582,1,0.04002630710601807,1
1771616106352642304,-0.003046935424208641,1,0.00743532832711935,1,0.03730539605021477,1
1771616106362733312,-0.004128679167479277,1,0.009018314070999622,1,0.03717830032110214,1
1771616106372814336,-0.003686808282509446,1,0.01103420089930296,1,0.03656158968806267,1
1771616106382884864,-0.002501205075532198,1,0.01003835629671812,1,0.04026586562395096,1
1771616106392945664,-0.001708449795842171,1,0.01074924040585756,1,0.0403093695640564,1
1771616106402996224,-0.004319282248616219,1,0.007346360012888908,1,0.04023914039134979,1
1771616106413037056,-0.003539389465004206,1,0.0103909308090806,1,0.04103290289640427,1
1771616106423067904,-0.00234665279276669,1,0.008171785622835159,1,0.03961760178208351,1
1771616106433089024,-0.002583245746791363,1,0.009164406917989254,1,0.04085312411189079,1
1771616106443099904,-0.003089393489062786,1,0.007860960438847542,1,0.04020001739263535,1
1771616106453101312,-0.003287367289885879,1,0.005630912724882364,1,0.04100078716874123,1
1771616106463092736,-0.002691511996090412,1,0.009458206593990326,1,0.04244945198297501,1
1771616106473073664,-0.002183470642194152,1,0.01024026144295931,1,0.04045344516634941,1
1771616106483044608,-0.0005424412665888667,1,0.01062536891549826,1,0.04230054840445518,1
1771616106493006336,-0.0010895129526034,1,0.01121620181947947,1,0.04064885154366493,1
1771616106502958336,-0.0001517985801910982,1,0.009342985227704048,1,0.03947362303733826,1
1771616106512900608,-0.001042672898620367,1,0.009977441281080246,1,0.0430530272424221,1
1771616106522832640,-0.00243437523022294,1,0.01074447762221098,1,0.0418211929500103,1
1771616106532755200,-0.002147150691598654,1,0.0121254650875926,1,0.04386966302990913,1
1771616106542667776,-0.002004127250984311,1,0.01069123391062021,1,0.04260583594441414,1
1771616106552570368,-0.001816641772165895,1,0.01320224814116955,1,0.04167687147855759,1
1771616106562462976,-0.001781285856850445,1,0.01071097329258919,1,0.04121176153421402,1
1771616106572346112,-0.001891138264909387,1,0.008722564205527306,1,0.04174934327602386,1
1771616106582455296,0.0008848144207149744,1,0.009454399347305298,1,0.04036540910601616,1
1771616106592553984,0.003165904199704528,1,0.008509360253810883,1,0.03988808020949364,1
1771616106602642688,-0.0007017526077106595,1,0.007769796065986156,1,0.03998818248510361,1
1771616106612721664,-0.002920609666034579,1,0.008910347707569599,1,0.04059256985783577,1
1771616106622790400,-0.005193787626922131,1,0.009390649385750294,1,0.04037181288003922,1
1771616106632849664,-0.002041998784989119,1,0.01001907419413328,1,0.03785441443324089,1
1771616106642898688,-0.0009832722134888172,1,0.008594129234552383,1,0.0383838377892971,1
1771616106652937728,-0.002390166278928518,1,0.01231670752167702,1,0.04056575521826744,1
1771616106662966784,-0.001611972227692604,1,0.01171002630144358,1,0.03698821738362312,1
1771616106672985856,0.0002409875451121479,1,0.01318835373967886,1,0.03934801742434502,1
1771616106682995200,0.0001769749214872718,1,0.01083731837570667,1,0.03996867313981056,1
1771616106692994048,0.001994822407141328,1,0.009265311993658543,1,0.03856163844466209,1
1771616106702982912,2.323970147699583e-05,1,0.009832076728343964,1,0.0395464301109314,1
1771616106712962304,-0.001084011979401112,1,0.008023343048989773,1,0.03914696350693703,1
1771616106722931712,0.0001089296420104802,1,0.008922938257455826,1,0.04023994505405426,1
1771616106732890880,-0.000353458191966638,1,0.009681518189609051,1,0.04257204383611679,1
1771616106742840576,-0.001074052765034139,1,0.006953849922865629,1,0.04255059361457825,1
1771616106752780544,-0.001732739736326039,1,0.008696725592017174,1,0.04111751914024353,1
1771616106762711040,-0.00264281197451055,1,0.006312141194939613,1,0.04101437330245972,1
1771616106772631296,-0.001860990305431187,1,0.0100705586373806,1,0.04089990258216858,1
1771616106782541824,-0.002066170098260045,1,0.00787624716758728,1,0.03867572546005249,1
1771616106792442624,-0.001978453248739243,1,0.009922212921082973,1,0.04053741693496704,1
1771616106802333696,-0.00223050219938159,1,0.00950329564511776,1,0.04065302014350891,1
1771616106812214528,-0.002197212306782603,1,0.01014972571283579,1,0.0396697036921978,1
1771616106822323456,-0.0007957196212373674,1,0.00921633280813694,1,0.03914850205183029,1
1771616106832422400,0.0001458831393392757,1,0.007925564423203468,1,0.03765101730823517,1
1771616106842511104,-0.001188157009892166,1,0.009558353573083878,1,0.03912806883454323,1
1771616106852589824,-0.003218454075977206,1,0.008118940517306328,1,0.03860407695174217,1
1771616106862658816,-0.00363960349932313,1,0.00570018170401454,1,0.04132325574755669,1
1771616106872717824,-0.002060607308521867,1,0.005221663974225521,1,0.04202284291386604,1
1771616106882766592,-0.001972303027287126,1,0.005340457893908024,1,0.04183314368128777,1
1771616106892805632,0.0006652935990132391,1,0.00853271596133709,1,0.04305668920278549,1
1771616106902834432,0.0009017969714477658,1,0.01017385628074408,1,0.04101093113422394,1
1771616106912853504,0.001392040052451193,1,0.01010939851403236,1,0.04215502366423607,1
1771616106922862592,-0.0008958159596659243,1,0.008737813681364059,1,0.03991667553782463,1
1771616106932861440,-0.002476552501320839,1,0.007596490439027548,1,0.04079757258296013,1
1771616106942850304,-0.002876819344237447,1,0.009631216526031494,1,0.04059938713908195,1
1771616106952829440,-0.004320177715271711,1,0.006987345870584249,1,0.0389997586607933,1
1771616106962798848,-0.003057953203096986,1,0.01184708811342716,1,0.04019644856452942,1
1771616106972758528,-0.002935092663392425,1,0.008660959079861641,1,0.03962014988064766,1
1771616106982708224,-0.003329732222482562,1,0.009002631530165672,1,0.04169970378279686,1
1771616106992648192,-0.004357747733592987,1,0.00993788056075573,1,0.04067695885896683,1
1771616107002578176,-0.003924232441931963,1,0.009479456581175327,1,0.04146773740649223,1
1771616107012498432,-0.001244195853359997,1,0.009533011354506016,1,0.04189180582761765,1
1771616107022408704,-0.001773427007719874,1,0.008296843618154526,1,0.04103494808077812,1
1771616107032309248,0.0001679162378422916,1,0.009944102726876736,1,0.04265117645263672,1
1771616107042199808,-0.001441799337044358,1,0.009869151748716831,1,0.03943637758493423,1
1771616107052080640,-0.002083378611132503,1,0.01053303293883801,1,0.04125533625483513,1
1771616107062188288,-0.001071713166311383,1,0.01029371283948421,1,0.04276987537741661,1
1771616107072285952,-0.001400733017362654,1,0.009998089633882046,1,0.04228667542338371,1
1771616107082373888,-0.0001998591469600797,1,0.01245551090687513,1,0.04079842567443848,1
1771616107092451584,-0.001641273847781122,1,0.01131181232631207,1,0.03734401613473892,1
1771616107102519552,-0.001402636524289846,1,0.0105527238920331,1,0.04283814504742622,1
1771616107112577536,-0.002384437946602702,1,0.009255692362785339,1,0.04193434491753578,1
1771616107122625024,-0.001711588120087981,1,0.007847126573324203,1,0.04215005040168762,1
1771616107132662528,-0.002042847918346524,1,0.009149519726634026,1,0.0399777889251709,1
1771616107142690560,-0.001251934212632477,1,0.008652363903820515,1,0.03929084166884422,1
1771616107152708864,-0.002000623615458608,1,0.009555943310260773,1,0.04174124076962471,1
1771616107162717184,-0.002957254415377975,1,0.008754347451031208,1,0.04121086373925209,1
1771616107172715264,-0.0007260832353495061,1,0.01299218460917473,1,0.04202945902943611,1
1771616107182703616,-0.0008229217492043972,1,0.01195405516773462,1,0.03920339420437813,1
1771616107192681472,-0.001534246490336955,1,0.01173149980604649,1,0.04027134552598,1
1771616107202649856,-0.001312182284891605,1,0.0117523530498147,1,0.03906310349702835,1
1771616107212608512,-0.002839004853740335,1,0.01050032209604979,1,0.03661838173866272,1
1771616107222556928,-0.001851330045610666,1,0.0114011550322175,1,0.04115172848105431,1
1771616107232495616,-0.002229817910119891,1,0.009607075713574886,1,0.04006685316562653,1
1771616107242424064,-0.0009974102722480893,1,0.008585155941545963,1,0.04124142974615097,1
1771616107252343040,-0.0008691215189173818,1,0.00936525035649538,1,0.03929206356406212,1
1771616107262252032,-0.002733233384788036,1,0.008010836318135262,1,0.04062614589929581,1
1771616107272151040,0.0001469730777898803,1,0.01139597408473492,1,0.04246586188673973,1
1771616107282040064,-0.00183186715003103,1,0.008894624188542366,1,0.04186564683914185,1
1771616107292157696,-0.002054144395515323,1,0.01017109025269747,1,0.04102841764688492,1
1771616107302265600,-0.001372143742628396,1,0.009728174656629562,1,0.03914772346615791,1
1771616107312363264,-0.0024619169998914,1,0.009080329909920692,1,0.03929571062326431,1
1771616107322451200,-0.0005129175260663033,1,0.01166026201099157,1,0.04040484875440598,1
1771616107332529152,-0.0004349460359662771,1,0.009663501754403114,1,0.04091958329081535,1
1771616107342596864,-0.002598534105345607,1,0.009933805093169212,1,0.0410451702773571,1
1771616107352654848,-0.002297974191606045,1,0.00961009319871664,1,0.03900327533483505,1
1771616107362702592,-0.003021645825356245,1,0.009207923896610737,1,0.0389443077147007,1
1771616107372740608,-0.00200967350974679,1,0.01000757608562708,1,0.04064540565013885,1
1771616107382768384,0.002341032959520817,1,0.01046059839427471,1,0.039964959025383,1
1771616107392786432,0.001327532343566418,1,0.01266278885304928,1,0.0398850217461586,1
1771616107402794240,5.106376192998141e-05,1,0.01161929685622454,1,0.03903394192457199,1
1771616107412793088,0.0001239464472746477,1,0.01271747052669525,1,0.03897508606314659,1
1771616107422781952,-0.002340794075280428,1,0.01127511635422707,1,0.03772915527224541,1
1771616107432760832,-0.002374992240220308,1,0.009433218277990818,1,0.03859949484467506,1
1771616107442729728,-0.002666681073606014,1,0.007780482526868582,1,0.03810606151819229,1
1771616107452688896,-0.004074112512171268,1,0.007561101112514734,1,0.03734157979488373,1
1771616107462638080,-0.003751350101083517,1,0.008836661465466022,1,0.04146923869848251,1
1771616107472577280,-0.004078034311532974,1,0.007517908699810505,1,0.0400390662252903,1
1771616107482507008,-0.004657130222767591,1,0.007499081548303366,1,0.03946147486567497,1
1771616107492426752,-0.003127282252535224,1,0.009251522831618786,1,0.03979191929101944,1
1771616107502336512,-0.002992645837366581,1,0.009271546266973019,1,0.04281474277377129,1
1771616107512236544,0.0008273252751678228,1,0.01112289633601904,1,0.04221824556589127,1
1771616107522126592,0.002036807592958212,1,0.01143333967775106,1,0.04069967195391655,1
1771616107532243968,0.0006716819480061531,1,0.01283890474587679,1,0.04336153343319893,1
1771616107542351104,-0.001011124812066555,1,0.01114920154213905,1,0.0395614393055439,1
1771616107552448512,-0.002269281540066004,1,0.01031030248850584,1,0.04076921194791794,1
1771616107562535680,-0.002586938906461,1,0.0104479044675827,1,0.04129170998930931,1
1771616107572613120,-0.003072286723181605,1,0.007015526760369539,1,0.04074810445308685,1
1771616107582680064,-0.001094343955628574,1,0.009015820920467377,1,0.04176243022084236,1
1771616107592737280,-0.003100583562627435,1,0.008343311958014965,1,0.04345070943236351,1
1771616107602784512,-0.0006973085692152381,1,0.01138333231210709,1,0.04243971407413483,1
1771616107612822016,-0.00195782701484859,1,0.01114790793508291,1,0.04188505187630653,1
1771616107622849024,-0.002251192461699247,1,0.009013249538838863,1,0.04185730963945389,1
1771616107632866304,-0.001023976481519639,1,0.01161335501819849,1,0.04073715209960938,1
1771616107642873856,0.000508495548274368,1,0.01152147632092237,1,0.03924841433763504,1
1771616107652871424,0.002583092078566551,1,0.01362660061568022,1,0.04119427502155304,1
1771616107662859264,7.475318852812052e-06,1,0.01030203048139811,1,0.0393192358314991,1
1771616107672837120,-0.00500516640022397,1,0.006666388362646103,1,0.03972929716110229,1
1771616107682804992,-0.006813465151935816,1,0.00703037902712822,1,0.03700109198689461,1
1771616107692763136,-0.005778175778687,1,0.005415478721261024,1,0.03624044731259346,1
1771616107702711040,-0.002662175567820668,1,0.008722188882529736,1,0.03837535157799721,1
1771616107712649216,-0.001451864023692906,1,0.0107716852799058,1,0.04188931360840797,1
1771616107722577408,0.0005086250021122396,1,0.01453729439526796,1,0.04183507710695267,1
1771616107732495872,-0.0005692426348105073,1,0.01334383804351091,1,0.03921876847743988,1
1771616107742404352,-0.001988403731957078,1,0.01091664936393499,1,0.03830691054463387,1
1771616107752303104,-0.00314883328974247,1,0.008694890886545181,1,0.04004320129752159,1
1771616107762191872,-0.004618914797902107,1,0.005094279535114765,1,0.04078806936740875,1
1771616107772308736,-0.002644275082275271,1,0.009411300532519817,1,0.04325062409043312,1
1771616107782415872,-0.001867640530690551,1,0.01066189724951982,1,0.03994539380073547,1
1771616107792512768,-0.0007422458729706705,1,0.01164389494806528,1,0.04215598851442337,1
1771616107802599936,-6.957816367503256e-05,1,0.01224715728312731,1,0.04053499177098274,1
1771616107812676864,0.001030743005685508,1,0.01035310234874487,1,0.04111873358488083,1
1771616107822744320,-1.353328116238117e-07,1,0.009288250468671322,1,0.04125659540295601,1
1771616107832801536,-0.001076594111509621,1,0.00684692244976759,1,0.03937255963683128,1
1771616107842848768,0.0001648404868319631,1,0.008605550043284893,1,0.03982307016849518,1
1771616107852886016,-0.002047944348305464,1,0.005856054835021496,1,0.03886396437883377,1
1771616107862913536,-0.001616658410057425,1,0.006504866760224104,1,0.03985792398452759,1
1771616107872930816,-0.001536520780064166,1,0.009497080929577351,1,0.0381849929690361,1
1771616107882938368,-0.002868546172976494,1,0.01231908798217773,1,0.04043136164546013,1
1771616107892935936,-0.001910830033011734,1,0.01369428541511297,1,0.04054388776421547,1
1771616107902923776,-0.002732866210862994,1,0.01055113319307566,1,0.03748174011707306,1
1771616107912901376,-0.004635059740394354,1,0.01250007934868336,1,0.03961650282144547,1
1771616107922869504,-0.00546414777636528,1,0.01039079576730728,1,0.04115930199623108,1
1771616107932827648,-0.002095943782478571,1,0.01089379750192165,1,0.0409245677292347,1
1771616107942775552,-0.002585859969258308,1,0.01081175170838833,1,0.04108832031488419,1
1771616107952713728,-0.003973911982029676,1,0.009823421016335487,1,0.04144506528973579,1
1771616107962641920,-0.003634339431300759,1,0.008991614915430546,1,0.04068218916654587,1
1771616107972560384,-0.00216540927067399,1,0.01059500779956579,1,0.04032208397984505,1
1771616107982468864,-0.003998146392405033,1,0.009992701932787895,1,0.04042115807533264,1
1771616107992367616,-0.002822621027007699,1,0.009168127551674843,1,0.03961273655295372,1
1771616108002256384,-0.001709872274659574,1,0.007215446326881647,1,0.03946134448051453,1
1771616108012372992,-0.0008489643223583698,1,0.008357866667211056,1,0.04133752733469009,1
1771616108022479872,-0.002067916560918093,1,0.006168936844915152,1,0.03895284235477448,1
1771616108032576512,-0.0001532018650323153,1,0.007421920076012611,1,0.03890452161431313,1
1771616108042663424,-0.001116658095270395,1,0.009542696177959442,1,0.03517469391226768,1
1771616108052740096,-0.001046092947944999,1,0.009926512837409973,1,0.03954239934682846,1
1771616108062806784,-0.0002908604219555855,1,0.01074681431055069,1,0.04272036999464035,1
1771616108072863744,0.0007912918226793408,1,0.01040067058056593,1,0.04073883593082428,1
1771616108082910208,-0.001177739468403161,1,0.01310573425143957,1,0.0406484454870224,1
1771616108092946944,-0.0007585363928228617,1,0.01078047789633274,1,0.04256029054522514,1
1771616108102973696,-0.00100635108537972,1,0.00925246998667717,1,0.04055967181921005,1
1771616108112990976,-0.001852820394560695,1,0.01002303883433342,1,0.04216469824314117,1
1771616108122998272,-0.001696375315077603,1,0.008069559931755066,1,0.04075228795409203,1
1771616108132995328,-0.002109905704855919,1,0.0110685471445322,1,0.03886250406503677,1
1771616108142982656,-0.0009853709489107132,1,0.008463804610073566,1,0.0379972979426384,1
1771616108152959744,0.001209888490848243,1,0.009941725060343742,1,0.04019899293780327,1
1771616108162927104,0.0006427478510886431,1,0.009049373678863049,1,0.03948089480400085,1
1771616108172884480,3.132189158350229e-05,1,0.009182006120681763,1,0.0389217846095562,1
1771616108182832128,-0.000239943852648139,1,0.009333740919828415,1,0.03925959393382072,1
1771616108192769792,-0.001830405206419528,1,0.007483578752726316,1,0.03918036818504333,1
1771616108202697728,-0.000581836502533406,1,0.008851414546370506,1,0.04002299904823303,1
1771616108212615680,-0.0008711720583960414,1,0.009570266120135784,1,0.0394626297056675,1
1771616108222523648,0.0001355925924144685,1,0.007709940895438194,1,0.04091919586062431,1
1771616108232422144,-0.001752566313371062,1,0.006526827346533537,1,0.03873217478394508,1
1771616108242310656,-0.0004035052552353591,1,0.01024340651929379,1,0.03949718549847603,1
1771616108252425728,-0.001277080038562417,1,0.0106456121429801,1,0.03837363794445992,1
1771616108262531072,-0.0007530294242314994,1,0.01197936944663525,1,0.03857207670807838,1
1771616108272626176,0.0006412981310859323,1,0.01433370728045702,1,0.0408538393676281,1
1771616108282711552,-0.003197571961209178,1,0.008897949010133743,1,0.0422358512878418,1
1771616108292787200,-0.00365925719961524,1,0.008351322263479233,1,0.04533500969409943,1
1771616108302852608,-0.004068807233124971,1,0.008069426752626896,1,0.04163028672337532,1
1771616108312908032,-0.003041272284463048,1,0.006514249369502068,1,0.04587560519576073,1
1771616108322953984,-0.0005430092569440603,1,0.01114841736853123,1,0.0433744303882122,1
1771616108332989696,-0.0002785171673167497,1,0.01129725761711597,1,0.04143436625599861,1
1771616108343015680,0.003142429515719414,1,0.01519174501299858,1,0.04072351381182671,1
1771616108353031680,-0.001507458509877324,1,0.01272859144955873,1,0.03921078145503998,1
1771616108363037440,-0.004063388798385859,1,0.00827499944716692,1,0.04008288681507111,1
1771616108373033472,-0.003485517110675573,1,0.00745187746360898,1,0.03879119083285332,1
1771616108383019520,-0.002865886082872748,1,0.007126110140234232,1,0.03985139727592468,1
1771616108392995840,-0.0003511974355205894,1,0.01005339622497559,1,0.04063210263848305,1
1771616108402962944,0.0008585269097238779,1,0.01208500936627388,1,0.03864099085330963,1
1771616108412920064,-0.0001638319081394002,1,0.008850932121276855,1,0.04296554252505302,1
1771616108422867456,-0.001550320535898209,1,0.007891654036939144,1,0.04207298532128334,1
1771616108432804864,-0.001275547314435244,1,0.008735425770282745,1,0.04007750377058983,1
1771616108442732288,-0.002328076865524054,1,0.01194222923368216,1,0.04173896089196205,1
1771616108452650496,0.001175799174234271,1,0.0127188004553318,1,0.04011048749089241,1
1771616108462558464,0.002598267514258623,1,0.01382248010486364,1,0.03974933922290802,1
1771616108472456704,0.0007568831788375974,1,0.01172236539423466,1,0.04034403339028358,1
1771616108482344960,-0.001463620457798243,1,0.009432002902030945,1,0.03853340819478035,1
1771616108492457984,-0.002666744170710444,1,0.007748877163976431,1,0.03871529921889305,1
1771616108502560768,-0.005092838313430548,1,0.004916714504361153,1,0.03980373591184616,1
1771616108512653568,0.0001205898588523269,1,0.01077657844871283,1,0.0404520146548748,1
1771616108522736640,0.003366313874721527,1,0.01233207434415817,1,0.03888657689094543,1
1771616108532809472,0.004511517472565174,1,0.01436465885490179,1,0.0396563708782196,1
1771616108542872576,0.00181358540430665,1,0.01117192301899195,1,0.03957878053188324,1
1771616108552925184,-0.002492480678483844,1,0.007052008528262377,1,0.04109630733728409,1
1771616108562968064,-0.002995769958943129,1,0.008062021806836128,1,0.04310347512364388,1
1771616108573000960,-0.003791666589677334,1,0.005710490047931671,1,0.03921666368842125,1
1771616108583024128,-0.0006629217532463372,1,0.009946676902472973,1,0.04173018038272858,1
1771616108593036800,0.001174642471596599,1,0.01028300169855356,1,0.04101110249757767,1
1771616108603039744,-0.0006426572217606008,1,0.01076490338891745,1,0.04131098464131355,1
1771616108613032960,-0.001314695924520493,1,0.009195541031658649,1,0.03902808204293251,1
1771616108623016192,-0.003054084256291389,1,0.008271019905805588,1,0.04132428765296936,1
1771616108632989696,-0.003718490246683359,1,0.00769305694848299,1,0.04014527052640915,1
1771616108642952960,-0.002508118748664856,1,0.007855518721044064,1,0.0415075458586216,1
1771616108652906496,0.001591472770087421,1,0.01078261435031891,1,0.04068516939878464,1
1771616108662850304,0.000655140436720103,1,0.01065172720700502,1,0.04148030281066895,1
1771616108672784384,-8.914095815271139e-05,1,0.008712644688785076,1,0.03968194872140884,1
1771616108682708224,-0.003229644149541855,1,0.008322011679410934,1,0.03937327861785889,1
1771616108692622336,-0.003680866444483399,1,0.007082847878336906,1,0.04060144349932671,1
1771616108702526208,-0.00132130621932447,1,0.01050669979304075,1,0.04166500270366669,1
1771616108712420864,0.00129616039339453,1,0.009157152846455574,1,0.04116068407893181,1
1771616108722305280,0.00064390420448035,1,0.01249470096081495,1,0.0419250950217247,1
1771616108732418048,0.0005681646871380508,1,0.0131821371614933,1,0.03940429911017418,1
1771616108742520576,-0.00247233035042882,1,0.009427393786609173,1,0.03682299330830574,1
1771616108752613376,-0.00299612944945693,1,0.007466572336852551,1,0.03798950091004372,1
1771616108762695936,-0.005166544578969479,1,0.005555508192628622,1,0.03909637778997421,1
1771616108772769024,-0.002975247567519546,1,0.006382578983902931,1,0.03828330338001251,1
