Time,inertial-6286.188861:estLinearAccelX,inertial-6286.188861:estLinearAccelX:valid,inertial-6286.188861:estLinearAccelY,inertial-6286.188861:estLinearAccelY:valid,inertial-6286.188861:estLinearAccelZ,inertial-6286.188861:estLinearAccelZ:valid
1771619747436651264,-0.1727090030908585,1,-0.09998249262571335,1,0.3064643442630768,1
1771619747446646528,-0.08352590352296829,1,0.05224862694740295,1,-0.1412214636802673,1
1771619747456631552,0.04249445721507072,1,0.05478251352906227,1,0.1430614739656448,1
1771619747466606848,0.04481590166687965,1,0.07853875309228897,1,-0.1027251705527306,1
1771619747476572928,-0.03403281047940254,1,0.0007097098277881742,1,0.1285006403923035,1
1771619747486529536,0.001119923661462963,1,-0.03189925476908684,1,0.0348486453294754,1
1771619747496475904,0.01038493774831295,1,-0.04524781182408333,1,0.07206059992313385,1
1771619747506412800,-0.03380412980914116,1,0.03893988579511642,1,0.02865475416183472,1
1771619747516339712,0.01555484347045422,1,-0.0258692279458046,1,0.07469284534454346,1
1771619747526256640,0.01629193499684334,1,-0.01873742043972015,1,0.03606507927179337,1
1771619747536163584,0.01615699008107185,1,0.006254198029637337,1,0.06183398142457008,1
1771619747546061056,0.009215756319463253,1,-0.01109283044934273,1,0.02982286550104618,1
1771619747555948544,0.01039272639900446,1,0.002092691604048014,1,0.02732155099511147,1
1771619747566062592,-0.01017384603619576,1,-0.001718702842481434,1,0.04029817879199982,1
1771619747576166656,0.01563358493149281,1,-0.009244794957339764,1,0.04086499288678169,1
1771619747586261248,0.01036714110523462,1,0.01081374287605286,1,0.05193042382597923,1
1771619747596345600,-0.006947746966034174,1,-0.01242404896765947,1,0.04872991144657135,1
1771619747606420480,-0.007059147581458092,1,-0.0190719235688448,1,0.03286545723676682,1
1771619747616484864,0.004740711767226458,1,0.003574439091607928,1,0.04421573132276535,1
1771619747626539520,0.00693298177793622,1,0.00855929683893919,1,0.02948851697146893,1
1771619747636584192,-0.005158860236406326,1,0.02207177504897118,1,0.05704662948846817,1
1771619747646619136,-0.01386587787419558,1,0.006508029997348785,1,0.04513005539774895,1
1771619747656643840,-0.0007619097013957798,1,-0.006569154094904661,1,0.04691940173506737,1
1771619747666659072,0.004526359960436821,1,-0.0006755338399671018,1,0.02855454385280609,1
1771619747676664320,-0.001710112323053181,1,0.01694391295313835,1,0.04808450490236282,1
1771619747686659328,0.008996418677270412,1,0.008866878226399422,1,0.05013923719525337,1
1771619747696644864,0.006576514802873135,1,0.0160396546125412,1,0.04201342910528183,1
1771619747706620416,-0.003906803671270609,1,0.005965911317616701,1,0.03850719332695007,1
1771619747716587264,-0.01344309840351343,1,0.0002873678167816252,1,0.03886111825704575,1
1771619747726544384,-0.003070439677685499,1,-0.000765239994507283,1,0.04270251467823982,1
1771619747736491520,0.003167846007272601,1,0.01456755492836237,1,0.03275187313556671,1
1771619747746428672,0.007060173898935318,1,0.008869772776961327,1,0.03035330958664417,1
1771619747756356352,0.01300691626966,1,0.0139087550342083,1,0.04917316138744354,1
1771619747766274304,-0.008217471651732922,1,0.01212152652442455,1,0.04296739399433136,1
1771619747776182528,0.002149690641090274,1,-0.001559325377456844,1,0.02947531268000603,1
1771619747786080768,-0.004411271307617426,1,0.02225060760974884,1,0.03392995521426201,1
1771619747795969024,-0.01150858961045742,1,0.01062926650047302,1,0.04120334982872009,1
1771619747806081024,-0.003763454267755151,1,0.001938196248374879,1,0.03368202224373817,1
1771619747816183040,0.002435335190966725,1,0.00699133612215519,1,0.03333576768636703,1
1771619747826275328,-0.01904667913913727,1,0.01029432192444801,1,0.03971419110894203,1
1771619747836357376,-0.01470411662012339,1,-0.003665068419650197,1,0.04965224862098694,1
1771619747846429696,0.003069658996537328,1,0.006088785361498594,1,0.03571967035531998,1
1771619747856492032,-0.007019985001534224,1,0.003085886128246784,1,0.04324948787689209,1
1771619747866544384,-0.0008503742865286767,1,0.01770423538982868,1,0.03993944451212883,1
1771619747876587008,0.002433968475088477,1,0.009538573212921619,1,0.04799680411815643,1
1771619747886619392,0.001819212455302477,1,-0.00233910814858973,1,0.05430709570646286,1
1771619747896642048,-0.003256803145632148,1,0.008083384484052658,1,0.03996707126498222,1
1771619747906654720,-0.001682392321527004,1,-0.0009420813294127584,1,0.03095138445496559,1
1771619747916657408,-0.001920234295539558,1,0.0008732359856367111,1,0.02947686240077019,1
1771619747926650112,1.46249403769616e-05,1,0.0208231508731842,1,0.04802117124199867,1
1771619747936633088,-0.00337658915668726,1,0.02055193856358528,1,0.04566954076290131,1
1771619747946606080,0.01072846166789532,1,0.001846486469730735,1,0.03842072188854218,1
1771619747956569344,-0.00543903699144721,1,-0.003796604229137301,1,0.04179298132658005,1
1771619747966522880,0.002794885076582432,1,-0.00138706318102777,1,0.04263289272785187,1
1771619747976466688,0.007253674324601889,1,0.01235609222203493,1,0.04229984059929848,1
1771619747986401024,0.0001617794478079304,1,0.01325993519276381,1,0.03936487063765526,1
1771619747996325376,0.0041761239990592,1,0.01383617054671049,1,0.04892102256417274,1
1771619748006239488,-0.007602219004184008,1,0.004293471574783325,1,0.04121710360050201,1
1771619748016144384,-0.002497583162039518,1,-0.006976308766752481,1,0.04358101263642311,1
1771619748026039040,0.004949823953211308,1,-0.002214858308434486,1,0.03786185756325722,1
1771619748035924224,-0.004933624994009733,1,0.004008077550679445,1,0.02887086197733879,1
1771619748046034688,-0.007562161888927221,1,0.01267327275127172,1,0.05167783051729202,1
1771619748056135168,0.001940588117577136,1,0.005021590739488602,1,0.05224335193634033,1
1771619748066225408,-0.001122481538914144,1,0.0002421487297397107,1,0.04354966059327126,1
1771619748076305920,0.001166541362181306,1,-0.01087749749422073,1,0.03516560420393944,1
1771619748086376448,-0.002127166604623199,1,0.002568150870501995,1,0.03099215775728226,1
1771619748096437248,0.003008716972544789,1,0.01393686234951019,1,0.04113573953509331,1
1771619748106487808,-0.008949795737862587,1,0.0183707382529974,1,0.03662959858775139,1
1771619748116528640,0.002305470174178481,1,0.01397776231169701,1,0.04863515496253967,1
1771619748126559488,-0.0002209654630860314,1,0.007364482153207064,1,0.03753416612744331,1
1771619748136580608,-0.01481694169342518,1,-0.005356165580451488,1,0.03823345899581909,1
1771619748146592000,-0.003330922918394208,1,0.003567300271242857,1,0.03068893030285835,1
1771619748156593664,0.008094430901110172,1,0.006543060764670372,1,0.03752255067229271,1
1771619748166585088,-0.003842098638415337,1,0.0235257800668478,1,0.04142054542899132,1
1771619748176567040,0.0005539972335100174,1,0.005037098657339811,1,0.05100853741168976,1
1771619748186539008,-0.004027960356324911,1,0.01098983827978373,1,0.04328195378184319,1
1771619748196500736,0.006143294274806976,1,0.004424941726028919,1,0.03393620252609253,1
1771619748206452992,-0.004375806543976068,1,-0.005119107197970152,1,0.03251795843243599,1
1771619748216395264,0.003285122336819768,1,0.004020960070192814,1,0.03935873880982399,1
1771619748226327808,0.0002604103065095842,1,0.02282648719847202,1,0.04443486034870148,1
1771619748236250624,-0.004415707662701607,1,0.0103446627035737,1,0.05553894862532616,1
1771619748246163200,0.006836272776126862,1,-0.001327453413978219,1,0.04118524864315987,1
1771619748256067328,-0.009935562498867512,1,-0.001133007928729057,1,0.03071342967450619,1
1771619748265961728,0.006261049769818783,1,-0.008166126906871796,1,0.03152612969279289,1
1771619748275846144,-0.009069059044122696,1,0.01805519126355648,1,0.03727593272924423,1
1771619748285954304,-0.004455157555639744,1,0.0087894257158041,1,0.05498511716723442,1
1771619748296052992,0.004581778775900602,1,0.006784240715205669,1,0.04806036129593849,1
1771619748306141440,-0.002877453807741404,1,0.007615066599100828,1,0.04535531625151634,1
1771619748316219904,-0.006166010163724422,1,-0.006328591145575047,1,0.04631185904145241,1
1771619748326288384,-0.005908115766942501,1,-0.01194490306079388,1,0.04511313512921333,1
1771619748336346880,-0.001414413098245859,1,0.005991869140416384,1,0.02739003859460354,1
1771619748346395904,0.01330387219786644,1,0.006945135537534952,1,0.0491933599114418,1
1771619748356434944,0.006180626340210438,1,0.01794740371406078,1,0.0504208505153656,1
1771619748366464000,0.0009848567424342036,1,0.001529790461063385,1,0.04204020649194717,1
1771619748376482816,-0.0008898669038899243,1,-0.004159844014793634,1,0.0321691706776619,1
1771619748386491904,0.002389879198744893,1,0.002942304825410247,1,0.03664556890726089,1
1771619748396491008,-0.0004952767631039023,1,0.003607204649597406,1,0.04145247116684914,1
1771619748406480384,-0.004685868509113789,1,0.02450750395655632,1,0.04358832165598869,1
1771619748416459776,0.001684902003034949,1,0.008674106560647488,1,0.05798595771193504,1
1771619748426429184,-0.008625037968158722,1,-0.004505161195993423,1,0.03222016990184784,1
1771619748436389120,0.01557886321097612,1,-0.008725089952349663,1,0.03569888323545456,1
1771619748446339072,0.004535086452960968,1,-0.007522187661379576,1,0.03037869744002819,1
1771619748456280064,0.01589382253587246,1,0.007768217008560896,1,0.02610690519213676,1
1771619748466211328,0.01772899180650711,1,0.004800090566277504,1,0.04320015013217926,1
1771619748476132864,0.003760727122426033,1,0.005926227197051048,1,0.06065598502755165,1
1771619748486044416,0.009862909093499184,1,0.0005005705170333385,1,0.0444316454231739,1
1771619748495946496,0.006315757520496845,1,-0.01317398343235254,1,0.03367555886507034,1
1771619748505838848,0.0009937353897839785,1,-0.01896428875625134,1,0.04180167615413666,1
1771619748515721472,0.006912682205438614,1,0.001582231605425477,1,0.03545928001403809,1
1771619748525828864,0.00558087695389986,1,0.01065411232411861,1,0.05703664198517799,1
1771619748535926528,0.01654718816280365,1,0.02104123681783676,1,0.04738599434494972,1
1771619748546013952,0.005397619679570198,1,-0.001398754538968205,1,0.03903848677873611,1
1771619748556091648,0.0029019711073488,1,-0.007616086397320032,1,0.05138035491108894,1
1771619748566159616,0.004243095405399799,1,-0.007123089395463467,1,0.03124604746699333,1
1771619748576217600,-0.011008245870471,1,0.0009309715242125094,1,0.02475918643176556,1
1771619748586265600,-0.004095435608178377,1,0.01135288365185261,1,0.04026595875620842,1
1771619748596303616,0.01189648173749447,1,0.01618221960961819,1,0.06297304481267929,1
1771619748606332160,-0.0002124375314451754,1,0.008873770013451576,1,0.03720655292272568,1
1771619748616350464,-0.003350211540237069,1,-0.01166019402444363,1,0.03339720144867897,1
1771619748626359040,-0.004558274522423744,1,0.007075170055031776,1,0.03127306699752808,1
1771619748636357632,-0.008009357377886772,1,-0.002537235850468278,1,0.03823475539684296,1
1771619748646345984,0.004430577158927917,1,0.01988526433706284,1,0.0554826408624649,1
1771619748656324864,-0.004814531654119492,1,0.01182104460895061,1,0.04778119921684265,1
1771619748666293760,-0.0009769735625013709,1,-0.001011816784739494,1,0.04326622188091278,1
1771619748676253952,0.006333366967737675,1,0.01030543353408575,1,0.03749249130487442,1
1771619748686204416,-0.001340987393632531,1,0.004012214485555887,1,0.03484846651554108,1
1771619748696144896,0.008569385856389999,1,-0.002167307306081057,1,0.0375017523765564,1
1771619748706075648,0.01245907600969076,1,0.02074115350842476,1,0.04734340682625771,1
1771619748715996416,-0.003307681065052748,1,0.01032727025449276,1,0.05192281305789948,1
1771619748725907712,0.01177955791354179,1,-0.006383969448506832,1,0.03960889577865601,1
1771619748735809280,-0.001443833811208606,1,0.003755796467885375,1,0.04382216557860374,1
1771619748745701120,-0.008969958871603012,1,-0.01050570607185364,1,0.02259248308837414,1
1771619748755818240,0.003372771432623267,1,-0.005728868767619133,1,0.02859286963939667,1
1771619748765925632,0.004247254226356745,1,0.02537044510245323,1,0.04533368349075317,1
1771619748776023040,-0.003166799666360021,1,0.004865243099629879,1,0.05648922175168991,1
1771619748786110208,-0.01068457029759884,1,0.006356091238558292,1,0.05167388916015625,1
1771619748796187648,-0.007175706326961517,1,-0.007554532960057259,1,0.03642266616225243,1
1771619748806254848,-0.00413380516692996,1,-0.03021246939897537,1,0.04302162677049637,1
1771619748816312320,-0.0008951345225796103,1,0.001112906611524522,1,0.0445043221116066,1
1771619748826359552,-0.005954303313046694,1,0.02289118431508541,1,0.04503186047077179,1
1771619748836397824,-0.007469969801604748,1,0.009144287556409836,1,0.0403103232383728,1
1771619748846426112,0.01167033147066832,1,0.01622194424271584,1,0.03383101150393486,1
1771619748856444160,-0.0003185826353728771,1,-9.492840035818517e-05,1,0.05977588519454002,1
1771619748866452480,-0.00317405303940177,1,-0.005850151181221008,1,0.03219433501362801,1
1771619748876450560,-0.002944479929283261,1,-0.003828153479844332,1,0.03218356519937515,1
1771619748886439168,-0.01030941400676966,1,0.007411783561110497,1,0.03946039825677872,1
1771619748896417792,-0.007727683521807194,1,0.01830996572971344,1,0.05104801803827286,1
1771619748906386176,0.01233589556068182,1,0.004846990574151278,1,0.04441147670149803,1
1771619748916345088,-0.003215554403141141,1,-0.009477720595896244,1,0.03161966055631638,1
1771619748926294016,-0.012282176874578,1,-0.001982367131859064,1,0.02591792494058609,1
1771619748936233216,0.003129321383312345,1,0.01117565389722586,1,0.04683374240994453,1
1771619748946162944,-0.01389720011502504,1,0.03536968678236008,1,0.04722048342227936,1
1771619748956082688,-0.005289369262754917,1,0.01422571577131748,1,0.05464127287268639,1
1771619748965992192,0.006028641946613789,1,-0.006337518803775311,1,0.02886271849274635,1
1771619748975892480,-0.002628260292112827,1,-0.004422537516802549,1,0.03456912189722061,1
1771619748985782528,0.003034189576283097,1,0.003305960679426789,1,0.04536130279302597,1
1771619748995899392,-0.01072586886584759,1,-0.008049316704273224,1,0.04570653662085533,1
1771619749006006272,0.008634359575808048,1,0.007480848580598831,1,0.04742269217967987,1
1771619749016102912,0.004210364539176226,1,0.02271601185202599,1,0.04894285276532173,1
1771619749026189824,0.003888602368533611,1,-0.003504232037812471,1,0.04684970155358315,1
1771619749036266752,0.00136279035359621,1,0.005116410553455353,1,0.0303613543510437,1
1771619749046333952,0.005643362179398537,1,-0.005522868596017361,1,0.04475110024213791,1
1771619749056390912,-0.0009980137692764401,1,-0.008541284129023552,1,0.03460275009274483,1
1771619749066438144,0.001695326180197299,1,0.02905875071883202,1,0.04440043866634369,1
1771619749076475392,-0.009955898858606815,1,0.01293769758194685,1,0.05015094205737114,1
1771619749086502656,0.00681978277862072,1,-0.006748940795660019,1,0.06005580350756645,1
1771619749096520704,0.004063969943672419,1,-0.003208550857380033,1,0.04025010392069817,1
1771619749106528512,0.0003200500796083361,1,-0.003570628119632602,1,0.02317310497164726,1
1771619749116526848,0.01139160618185997,1,0.01082843542098999,1,0.03185238316655159,1
1771619749126514944,0.001014442415907979,1,0.02067117020487785,1,0.04801464453339577,1
1771619749136493056,-0.003591735614463687,1,0.01356017775833607,1,0.05349393934011459,1
1771619749146461440,0.001176711404696107,1,-0.001715007936581969,1,0.0357646532356739,1
1771619749156420096,0.01400097738951445,1,-0.01103147864341736,1,0.03396618738770485,1
1771619749166368512,0.0003760896215680987,1,-0.008951663039624691,1,0.03754200786352158,1
1771619749176307456,0.005099966656416655,1,0.01067786943167448,1,0.04019290581345558,1
1771619749186236416,-0.006179690361022949,1,0.004071696195751429,1,0.04871531575918198,1
1771619749196155136,0.005376546643674374,1,0.005846770945936441,1,0.04471601545810699,1
1771619749206064384,0.004173748195171356,1,0.01365623902529478,1,0.03900227695703506,1
1771619749215963904,-0.007207586895674467,1,-0.008405388332903385,1,0.03635217621922493,1
1771619749225853440,-0.008420233614742756,1,-0.01206219848245382,1,0.03160028904676437,1
1771619749235969792,0.009764987975358963,1,0.01069641951471567,1,0.02967592515051365,1
1771619749246076672,-0.003286830149590969,1,0.008421582169830799,1,0.05286755040287971,1
1771619749256173312,-0.006473408546298742,1,0.01014931313693523,1,0.05617343634366989,1
1771619749266260224,0.0005420477245934308,1,0.01722465083003044,1,0.03842029720544815,1
1771619749276337408,0.00531742675229907,1,-0.019158985465765,1,0.02620585262775421,1
1771619749286404352,0.009774597361683846,1,-0.005074750166386366,1,0.03393453732132912,1
1771619749296461568,-0.005186277907341719,1,0.009243099018931389,1,0.03520302101969719,1
1771619749306508800,-0.005535595118999481,1,0.009515328332781792,1,0.04895588383078575,1
1771619749316546048,-0.0009270646260119975,1,0.01791495829820633,1,0.05102910473942757,1
1771619749326573568,-0.008806220255792141,1,-0.001228735083714128,1,0.03999587520956993,1
1771619749336591104,-0.01113495323807001,1,-0.009024016559123993,1,0.04783345013856888,1
1771619749346598912,0.004342671018093824,1,-0.002753026084974408,1,0.03637565672397614,1
1771619749356596736,-0.0060777198523283,1,0.01302420999854803,1,0.0405663438141346,1
1771619749366584576,0.01131260395050049,1,0.02162273414433002,1,0.04947073012590408,1
1771619749376562688,-3.314782588859089e-05,1,0.01569654606282711,1,0.06185341998934746,1
1771619749386530816,-0.001829629531130195,1,-0.00791499949991703,1,0.04268508777022362,1
1771619749396488960,0.001418032916262746,1,-0.01061945594847202,1,0.03400016203522682,1
1771619749406437376,0.00250926474109292,1,-0.002261055866256356,1,0.0264777522534132,1
1771619749416375808,0.003666558535769582,1,0.01568193919956684,1,0.0303084310144186,1
1771619749426304256,0.007310464512556791,1,0.005568015389144421,1,0.05464246869087219,1
1771619749436222976,-0.001903623691760004,1,0.01694571040570736,1,0.04626080393791199,1
1771619749446131968,-0.003862819401547313,1,-0.007160408888012171,1,0.04927022755146027,1
1771619749456031232,0.001731169410049915,1,-0.003226110944524407,1,0.04148484393954277,1
1771619749465920256,0.008767448365688324,1,-0.001468960661441088,1,0.02885906770825386,1
1771619749476036864,0.005841750185936689,1,0.009228588081896305,1,0.03723827749490738,1
1771619749486143232,-0.004643659107387066,1,0.02916502766311169,1,0.04263832047581673,1
1771619749496239872,-0.002968319691717625,1,0.003800171427428722,1,0.04656415060162544,1
1771619749506326528,0.006581305991858244,1,0.008332264609634876,1,0.03961970657110214,1
1771619749516402944,-0.0066251908428967,1,-0.009601801633834839,1,0.03401707112789154,1
1771619749526469632,0.001489042537286878,1,0.001380675355903804,1,0.03032449632883072,1
1771619749536526080,-0.0003210437716916203,1,0.009200170636177063,1,0.04445139691233635,1
1771619749546573056,-0.005457885097712278,1,0.01702060177922249,1,0.04535525664687157,1
1771619749556610304,-0.00239921361207962,1,0.01194600202143192,1,0.0510464645922184,1
1771619749566637312,-0.003108076751232147,1,0.005567957181483507,1,0.03159190341830254,1
1771619749576655104,-0.001623227610252798,1,0.001382263493724167,1,0.03550421074032784,1
1771619749586663168,0.003532734699547291,1,-0.005441952031105757,1,0.04474565759301186,1
1771619749596661248,0.007008299231529236,1,0.01843461021780968,1,0.04107744991779327,1
1771619749606649344,0.002384686842560768,1,0.0151644553989172,1,0.04384288936853409,1
1771619749616627456,0.007372663822025061,1,0.004105556756258011,1,0.03810789808630943,1
1771619749626596096,-0.006413325667381287,1,-0.001519369659945369,1,0.03130138665437698,1
1771619749636555008,0.002644440857693553,1,0.0008300432236865163,1,0.04023914411664009,1
1771619749646503936,0.004366885405033827,1,-0.00422535790130496,1,0.04029544442892075,1
1771619749656442624,0.009932895191013813,1,0.003521073376759887,1,0.0279020182788372,1
1771619749666371840,-0.009480797685682774,1,0.005091848317533731,1,0.0375572144985199,1
1771619749676291328,0.0003401919384486973,1,-0.0003683686663862318,1,0.04866169020533562,1
1771619749686201088,-0.004983215592801571,1,0.001908007659949362,1,0.04655689001083374,1
1771619749696101120,0.004734889604151249,1,0.006070026662200689,1,0.03575548902153969,1
1771619749705991424,-0.0007020190241746604,1,-0.01150115579366684,1,0.03215128928422928,1
1771619749716107520,-0.001209916779771447,1,0.006436256226152182,1,0.03451930731534958,1
1771619749726213632,0.0006210798746906221,1,0.01149480417370796,1,0.04472845047712326,1
1771619749736309760,-0.007053965236991644,1,0.01138917822390795,1,0.05044861882925034,1
1771619749746395904,-0.006533912848681211,1,0.009349992498755455,1,0.03666497766971588,1
1771619749756472320,-0.003477143356576562,1,-0.01251443941146135,1,0.03730940073728561,1
1771619749766538752,0.01085145212709904,1,0.005087696947157383,1,0.03001409582793713,1
1771619749776594944,-0.004964392632246017,1,0.002460291143506765,1,0.04987283796072006,1
1771619749786641152,0.003076891181990504,1,0.01977468654513359,1,0.04352549090981483,1
1771619749796677888,0.003419359913095832,1,0.008246070705354214,1,0.04649701714515686,1
1771619749806704896,-0.0106758726760745,1,0.002252870239317417,1,0.03670800849795341,1
1771619749816721664,0.001915018539875746,1,0.000201754693989642,1,0.04264921694993973,1
1771619749826729216,-0.007694436237215996,1,0.002933553187176585,1,0.03492703288793564,1
1771619749836727040,-0.004456528462469578,1,0.01539320964366198,1,0.05104468762874603,1
1771619749846714880,0.002946025924757123,1,0.01067280117422342,1,0.05278480425477028,1
1771619749856692736,0.001694600214250386,1,0.01185256149619818,1,0.04712284728884697,1
1771619749866660608,-0.002214230364188552,1,0.007122763432562351,1,0.02977803908288479,1
1771619749876619008,-0.01126370951533318,1,-0.001324216136708856,1,0.04059252142906189,1
1771619749886567424,-0.00186159391887486,1,-0.004510292783379555,1,0.04296388849616051,1
1771619749896505856,0.001020707073621452,1,0.01217898819595575,1,0.03906268626451492,1
1771619749906434560,0.004968948662281036,1,0.02001826092600822,1,0.05036033317446709,1
1771619749916353280,-0.002175573026761413,1,0.01047898642718792,1,0.04418268799781799,1
1771619749926262528,-0.00425889203324914,1,-0.002412238158285618,1,0.04660117998719215,1
1771619749936162048,-0.01159772183746099,1,0.001187833957374096,1,0.02296268753707409,1
1771619749946051840,-0.003149575786665082,1,0.01630291901528835,1,0.03394786641001701,1
1771619749956165888,-0.001650948659516871,1,0.008445032872259617,1,0.03815866261720657,1
1771619749966270208,-0.004882786422967911,1,0.006267326418310404,1,0.04569732770323753,1
1771619749976364544,0.01514285802841187,1,0.01321960147470236,1,0.03684103861451149,1
1771619749986448640,-0.0001436682650819421,1,0.006423368584364653,1,0.03452998399734497,1
1771619749996522752,-0.003426666371524334,1,8.097023237496614e-05,1,0.04123059287667274,1
1771619750006587136,-0.01262729521840811,1,0.0111051993444562,1,0.0451175644993782,1
1771619750016641536,-0.004838674329221249,1,0.004875560756772757,1,0.0357903428375721,1
1771619750026685696,0.004775953013449907,1,-0.001975270686671138,1,0.03723958134651184,1
1771619750036720128,-0.002091452712193131,1,0.009611702524125576,1,0.04772787168622017,1
1771619750046744832,0.002891713287681341,1,0.008989118970930576,1,0.03574581816792488,1
1771619750056760064,0.009746191091835499,1,0.006412643473595381,1,0.02879690192639828,1
1771619750066765312,-0.005751461256295443,1,0.003475575475022197,1,0.03789379820227623,1
1771619750076760320,0.0006260467926040292,1,0.008138120174407959,1,0.04836319014430046,1
1771619750086745856,-0.007969486527144909,1,0.005449733696877956,1,0.05203300714492798,1
1771619750096721408,-0.001126352464780211,1,0.01378718484193087,1,0.03844892606139183,1
1771619750106686720,0.002397308824583888,1,-0.002301158849149942,1,0.05016889795660973,1
1771619750116642560,-0.001299220719374716,1,-0.001983603928238153,1,0.02978161908686161,1
1771619750126588416,0.002028349321335554,1,0.00285573722794652,1,0.03246000781655312,1
1771619750136524032,-0.01107030734419823,1,0.007568686734884977,1,0.03040391206741333,1
1771619750146450176,-0.004176061600446701,1,0.005721847992390394,1,0.04329168796539307,1
1771619750156366336,-0.005971256643533707,1,0.007792660966515541,1,0.04749714210629463,1
1771619750166272768,-0.01616126671433449,1,-0.003216344863176346,1,0.04211549833416939,1
1771619750176169472,-0.001447850954718888,1,-0.005502994637936354,1,0.03549113869667053,1
1771619750186055936,0.006634529680013657,1,0.008524954319000244,1,0.04386872053146362,1
1771619750196168448,-0.006805411074310541,1,0.01267423294484615,1,0.05221429467201233,1
1771619750206270976,-0.0003129388787783682,1,0.01835216395556927,1,0.04891834780573845,1
1771619750216363264,0.001690355245955288,1,0.0005474364734254777,1,0.03998982533812523,1
1771619750226445824,-0.003658895846456289,1,0.0008161686710081995,1,0.03547772020101547,1
1771619750236518144,-0.01010815426707268,1,-0.001793404575437307,1,0.04213318601250648,1
1771619750246580736,0.00385848362930119,1,0.006488282233476639,1,0.03486653789877892,1
1771619750256633600,-0.003293659770861268,1,0.006497052498161793,1,0.04324977099895477,1
1771619750266676736,0.001528453547507524,1,0.01580630429089069,1,0.04923892393708229,1
1771619750276709888,-0.0006801655981689692,1,-0.001548859640024602,1,0.03814806044101715,1
1771619750286733056,0.00260475161485374,1,0.001098364475183189,1,0.03725980222225189,1
1771619750296746496,-0.005562435835599899,1,-0.003338251961395144,1,0.02348485216498375,1
1771619750306749696,0.003759876824915409,1,0.002967835403978825,1,0.03518683463335037,1
1771619750316743168,-0.0003107721277046949,1,0.006890475284308195,1,0.04235588014125824,1
1771619750326726656,-0.001183341722935438,1,0.003848676569759846,1,0.0433010533452034,1
1771619750336700160,-0.007796299178153276,1,-0.0005669765523634851,1,0.04989843443036079,1
1771619750346663936,0.001405040617100894,1,-0.003525129286572337,1,0.02648810483515263,1
1771619750356617728,-0.006359653547406197,1,0.0007983025861904025,1,0.03216691687703133,1
1771619750366561792,-0.0002452879271004349,1,0.008003748953342438,1,0.04598329961299896,1
1771619750376496128,-0.009322687983512878,1,0.009704801253974438,1,0.04179279506206512,1
1771619750386420480,-0.002658004639670253,1,0.01453652512282133,1,0.05047255381941795,1
1771619750396335104,-0.004445162136107683,1,-0.00639100419357419,1,0.04543071240186691,1
1771619750406239744,-0.003690850455313921,1,-0.004038679413497448,1,0.02086229063570499,1
1771619750416134656,-0.006627269554883242,1,0.01536638848483562,1,0.03821207210421562,1
1771619750426019584,-0.005031897220760584,1,0.01986194960772991,1,0.04779378697276115,1
1771619750436129792,-0.008052182383835316,1,0.01841153204441071,1,0.04327518120408058,1
1771619750446230016,-0.01496387366205454,1,0.01483581960201263,1,0.04784323647618294,1
1771619750456320256,-0.01177738886326551,1,-0.003156009828671813,1,0.02805706672370434,1
1771619750466401280,-0.006288735661655664,1,-0.01317405328154564,1,0.03734175488352776,1
1771619750476472064,0.005123617127537727,1,0.009462159126996994,1,0.04262790456414223,1
1771619750486532864,0.002256738021969795,1,0.02347178757190704,1,0.03331195935606956,1
1771619750496583936,-0.002428531181067228,1,0.005332144442945719,1,0.04000362381339073,1
1771619750506625024,-0.01321608945727348,1,0.01759340427815914,1,0.05171279236674309,1
1771619750516655616,-0.007632910739630461,1,-0.005724986083805561,1,0.0364215150475502,1
1771619750526676224,-0.003244923893362284,1,-0.005646571051329374,1,0.02923100814223289,1
1771619750536687104,0.01532794255763292,1,0.009938961826264858,1,0.04050616919994354,1
1771619750546688000,3.525084684952162e-05,1,0.01554717030376196,1,0.03933275863528252,1
1771619750556678912,0.006981851533055305,1,0.02154807187616825,1,0.04894557967782021,1
1771619750566660096,-0.008080151863396168,1,0.005736879538744688,1,0.04600322991609573,1
1771619750576631552,0.003759139683097601,1,-0.001822435529902577,1,0.04176702722907066,1
1771619750586593792,-0.00663087610155344,1,-0.008612292818725109,1,0.04748938977718353,1
1771619750596546048,-0.005229575093835592,1,0.007169422227889299,1,0.03698650747537613,1
1771619750606488320,-0.009666448459029198,1,0.0009206781396642327,1,0.04035645350813866,1
1771619750616421120,-0.005401961505413055,1,0.01407020539045334,1,0.0439312756061554,1
1771619750626344192,-0.004778156522661448,1,0.01701663620769978,1,0.04991062730550766,1
1771619750636257280,-0.00454782834276557,1,0.007201725151389837,1,0.04359900206327438,1
1771619750646160384,-0.003681120462715626,1,-0.009548463858664036,1,0.0337061733007431,1
1771619750656053504,0.007370305713266134,1,0.00324516580440104,1,0.02795208245515823,1
1771619750665937152,0.01100184489041567,1,0.01539531070739031,1,0.0473920963704586,1
1771619750676047360,0.003249281318858266,1,0.0191984735429287,1,0.05400130152702332,1
1771619750686147584,-0.01198490429669619,1,0.01141155231744051,1,0.05079381912946701,1
1771619750696237568,-0.0004523069073911756,1,-0.004794974345713854,1,0.03576894849538803,1
1771619750706317824,-0.002600831212475896,1,-0.005151786841452122,1,0.02953571453690529,1
1771619750716387840,0.002116619609296322,1,0.009625008329749107,1,0.03216115012764931,1
1771619750726448384,-0.005068328231573105,1,0.005730579141527414,1,0.04540668055415154,1
1771619750736499200,0.0008508240571245551,1,0.01954791322350502,1,0.04531490430235863,1
1771619750746539776,-0.001576697337441146,1,0.003648833138868213,1,0.04146918281912804,1
1771619750756570624,-0.003053718945011497,1,-0.004077647347003222,1,0.04571684077382088,1
1771619750766591232,0.006405442953109741,1,-0.00375896948389709,1,0.03782286122441292,1
1771619750776602368,0.002286454429849982,1,-0.01206403598189354,1,0.03849832713603973,1
1771619750786603520,0.006113609299063683,1,0.009915030561387539,1,0.03092790395021439,1
1771619750796594688,-0.007343001198023558,1,0.01508590579032898,1,0.04599310085177422,1
1771619750806575872,-0.001885340898297727,1,0.01390264462679625,1,0.05380648747086525,1
1771619750816547328,0.008790700696408749,1,0.008780602365732193,1,0.0291338749229908,1
1771619750826508800,-0.004908200819045305,1,-0.006418659817427397,1,0.03669818118214607,1
1771619750836460544,-0.006072309799492359,1,-0.001067955978214741,1,0.04207929968833923,1
1771619750846402304,-0.009651724249124527,1,0.003356364788487554,1,0.03973235562443733,1
1771619750856334592,-4.629950490198098e-05,1,0.02647998183965683,1,0.04865662753582001,1
1771619750866258176,-0.006982203107327223,1,0.02019379287958145,1,0.04328437149524689,1
1771619750876172032,-0.005329476203769445,1,-0.0120714083313942,1,0.04453819617629051,1
1771619750886075904,0.01079245191067457,1,0.005240179132670164,1,0.03001000173389912,1
1771619750895969792,0.007950141094624996,1,-0.003994451835751534,1,0.04773679748177528,1
1771619750905853952,-0.0007882158388383687,1,0.01816435903310776,1,0.03484105691313744,1
1771619750915962112,0.0001475135359214619,1,0.01335078105330467,1,0.04444041103124619,1
1771619750926060544,-0.007615057285875082,1,0.01486591342836618,1,0.04357384517788887,1
1771619750936148736,-0.001062321360222995,1,0.005699736531823874,1,0.05252174660563469,1
1771619750946227456,0.002405887702479959,1,-0.006031132768839598,1,0.02977028302848339,1
1771619750956295936,0.003033058019354939,1,-0.0007326164632104337,1,0.03155375272035599,1
1771619750966354688,-0.004856250248849392,1,0.0133701479062438,1,0.05108736082911491,1
1771619750976403712,0.003661912167444825,1,0.0252826139330864,1,0.03215485811233521,1
1771619750986442752,-0.007308107800781727,1,0.01541189476847649,1,0.04506620019674301,1
1771619750996471552,0.004270975943654776,1,0.007399737369269133,1,0.04624034836888313,1
1771619751006490880,-0.006288111209869385,1,-0.005752964876592159,1,0.04004178941249847,1
1771619751016500224,-0.003893378190696239,1,-0.01458549685776234,1,0.03823832049965858,1
1771619751026499584,-0.004517419263720512,1,0.01794084347784519,1,0.0345410630106926,1
1771619751036488960,-0.005658309441059828,1,0.009641766548156738,1,0.0483936034142971,1
1771619751046468608,0.00632692314684391,1,0.01418528519570827,1,0.04890843853354454,1
1771619751056438272,0.007954766042530537,1,0.001931838458403945,1,0.03755403682589531,1
1771619751066397952,-0.006389451678842306,1,-0.01608424074947834,1,0.04423579573631287,1
1771619751076348160,0.002263383008539677,1,-0.007726754527539015,1,0.03187260404229164,1
1771619751086288384,-0.004015058279037476,1,0.01323515642434359,1,0.04474833235144615,1
1771619751096218624,0.005021312739700079,1,0.008701127953827381,1,0.04262777417898178,1
1771619751106138880,-0.005789481103420258,1,0.01795041374862194,1,0.05109129473567009,1
1771619751116049664,-0.006086753681302071,1,0.0124249616637826,1,0.04688967391848564,1
1771619751125950720,-0.003799970727413893,1,-0.0003978963359259069,1,0.03131222724914551,1
1771619751135841792,-0.005862516351044178,1,0.002399130258709192,1,0.03549880534410477,1
1771619751145724416,0.003453655866906047,1,0.01350831333547831,1,0.04868000745773315,1
1771619751155831552,0.001721680164337158,1,0.02354599349200726,1,0.0519494004547596,1
1771619751165928704,-0.0147913908585906,1,0.01818471401929855,1,0.04963469505310059,1
1771619751176016128,0.005494801327586174,1,-0.003606971120461822,1,0.04328171163797379,1
1771619751186093568,-0.005670828744769096,1,-0.01077952608466148,1,0.03764080256223679,1
1771619751196160768,0.004781102295964956,1,-0.003699745051562786,1,0.02888122573494911,1
1771619751206218496,0.00173953257035464,1,0.01518779993057251,1,0.05254547670483589,1
1771619751216266240,0.003951023332774639,1,0.02169427461922169,1,0.03576459363102913,1
1771619751226303488,-0.002650797832757235,1,0.01490902993828058,1,0.04689669236540794,1
1771619751236331008,-0.006467731669545174,1,0.008296494372189045,1,0.04029413685202599,1
1771619751246348544,0.0003481677267700434,1,-0.009925208985805511,1,0.02951248176395893,1
1771619751256356608,0.0009147156961262226,1,0.0007576383650302887,1,0.02708825282752514,1
1771619751266354688,0.01067450270056725,1,0.006792009808123112,1,0.02879777364432812,1
1771619751276342528,0.00434835022315383,1,0.02133035473525524,1,0.04947245493531227,1
1771619751286320896,-0.006266902666538954,1,0.01208242308348417,1,0.06336002796888351,1
1771619751296289280,-0.004333431832492352,1,0.008448402397334576,1,0.03247294574975967,1
1771619751306247936,-0.006216570734977722,1,-0.008433369919657707,1,0.03459200635552406,1
1771619751316196864,0.0003666642005555332,1,-0.002834153128787875,1,0.02858356945216656,1
1771619751326135808,-0.003993777558207512,1,0.02161801606416702,1,0.04747531935572624,1
1771619751336064768,0.001110286917537451,1,0.0158536471426487,1,0.04654315859079361,1
1771619751345984000,0.009154889732599258,1,0.01735413633286953,1,0.0438205786049366,1
1771619751355893504,-0.008567099459469318,1,0.009568837471306324,1,0.04025294259190559,1
1771619751365793280,0.01119502913206816,1,-0.008672464638948441,1,0.02978060580790043,1
1771619751375682816,0.002760910196229815,1,-0.01664835400879383,1,0.02800154313445091,1
1771619751385799936,0.01000548712909222,1,0.003988887649029493,1,0.03600552678108215,1
1771619751395907072,0.01173394732177258,1,0.0209827795624733,1,0.0527552105486393,1
1771619751406003968,-0.002657576696947217,1,0.01232642959803343,1,0.04350057989358902,1
1771619751416091136,-0.01317538414150476,1,0.01742522604763508,1,0.05439083278179169,1
1771619751426168320,-0.008217763155698776,1,-0.01503431610763073,1,0.03136330470442772,1
1771619751436235264,-0.004846221301704645,1,-0.006861774250864983,1,0.04301942884922028,1
1771619751446292480,0.001906751072965562,1,-0.0003273995243944228,1,0.03157732635736465,1
1771619751456339712,0.005593346897512674,1,0.02421432919800282,1,0.04743726551532745,1
1771619751466377472,-0.0005662059411406517,1,0.0182928554713726,1,0.05163879692554474,1
1771619751476404992,-0.001257990719750524,1,0.01111362967640162,1,0.05378326401114464,1
1771619751486423552,-0.004221681505441666,1,-0.009501357562839985,1,0.0325060673058033,1
1771619751496431872,-0.006895986385643482,1,3.645806646090932e-05,1,0.03072961047291756,1
1771619751506430720,0.001828535576350987,1,0.01958409510552883,1,0.04051746055483818,1
1771619751516419584,-0.01403086073696613,1,0.01676781103014946,1,0.04030914977192879,1
1771619751526398464,-0.00266012828797102,1,0.02122550085186958,1,0.0540497712790966,1
1771619751536367360,0.003071963554248214,1,0.003347785444930196,1,0.04837001115083694,1
1771619751546326784,-0.004191929008811712,1,-0.007571532856673002,1,0.02712086774408817,1
1771619751556276224,-0.003674249397590756,1,0.00941009633243084,1,0.03304820135235786,1
1771619751566215424,-0.0185544341802597,1,-0.00641559436917305,1,0.03707291185855865,1
1771619751576145152,-0.01308510918170214,1,0.01711540855467319,1,0.04689767211675644,1
1771619751586065152,-0.01164788659662008,1,0.01615821570158005,1,0.03759558871388435,1
1771619751595975424,0.004565737675875425,1,0.009773578494787216,1,0.04799984022974968,1
1771619751605875968,0.003009129082784057,1,-0.00612738449126482,1,0.02438494376838207,1
1771619751615766528,0.01293528918176889,1,-0.002275430830195546,1,0.032712172716856,1
1771619751625883136,-0.0001696177496341988,1,0.02220595441758633,1,0.04443700239062309,1
1771619751635989760,-0.004406945314258337,1,0.01353505905717611,1,0.05045954138040543,1
1771619751646086656,-0.009198408573865891,1,0.02245257422327995,1,0.04925248026847839,1
1771619751656173312,-0.005057367496192455,1,0.0007180431857705116,1,0.03424634784460068,1
1771619751666250496,0.01036397274583578,1,-0.009227273985743523,1,0.02912356704473495,1
1771619751676317952,0.004450654145330191,1,0.003432097379118204,1,0.03393237292766571,1
1771619751686375168,0.007995224557816982,1,0.008201613090932369,1,0.04347383975982666,1
1771619751696422400,0.0005597287090495229,1,0.01717834174633026,1,0.04589810967445374,1
1771619751706459904,-0.003638272639364004,1,0.01149209216237068,1,0.04146900773048401,1
1771619751716487936,-0.009257464669644833,1,0.003754408564418554,1,0.05406328663229942,1
1771619751726505728,-0.00271375966258347,1,-0.00431173387914896,1,0.04117613285779953,1
1771619751736513792,-0.001311380183324218,1,-0.0064547099173069,1,0.02616314962506294,1
1771619751746511872,0.003157679922878742,1,0.007547779008746147,1,0.03869803249835968,1
1771619751756499968,-0.009416035376489162,1,0.02071267738938332,1,0.04893508926033974,1
1771619751766478336,0.0004943805397488177,1,0.02015160396695137,1,0.04802653566002846,1
1771619751776446976,0.002786078723147511,1,0.003475146368145943,1,0.04264307022094727,1
1771619751786405632,0.004827615339308977,1,-0.008453520014882088,1,0.03607809171080589,1
1771619751796354816,-0.005876518785953522,1,0.002674139104783535,1,0.03550348803400993,1
1771619751806294016,0.0007192824850790203,1,0.003870569169521332,1,0.04354088753461838,1
1771619751816223232,-0.002097339136525989,1,0.02739960514008999,1,0.04921454936265945,1
1771619751826142720,-0.01409959606826305,1,0.01212330814450979,1,0.04874134063720703,1
1771619751836052224,-0.009626086801290512,1,0.01120594516396523,1,0.03848501667380333,1
1771619751845952512,-0.01201573852449656,1,-0.0007981548551470041,1,0.04239394143223763,1
1771619751855842816,-0.01287302747368813,1,-0.001713931676931679,1,0.03223931789398193,1
1771619751865959168,0.0009784352732822299,1,0.01148850377649069,1,0.04143719375133514,1
1771619751876065792,0.00813682097941637,1,0.01972800120711327,1,0.03476728871464729,1
1771619751886162176,-0.005878238007426262,1,0.007214844692498446,1,0.03516287729144096,1
1771619751896248832,0.003541655838489532,1,0.0006611587596125901,1,0.05344255268573761,1
1771619751906325248,-0.004060964565724134,1,0.00071758619742468,1,0.03904752805829048,1
1771619751916391936,-0.007136643398553133,1,0.002133269794285297,1,0.02079358696937561,1
1771619751926448640,-0.001268600113689899,1,0.005743090528994799,1,0.04053514823317528,1
1771619751936495104,0.007414683699607849,1,0.02054301649332047,1,0.05187035724520683,1
1771619751946531584,0.002887759823352098,1,0.007942875847220421,1,0.04708525538444519,1
1771619751956558592,-0.0009961738251149654,1,0.007675877772271633,1,0.04745714366436005,1
1771619751966575616,-0.01038172375410795,1,-0.007264425978064537,1,0.03251711279153824,1
1771619751976582144,0.002694322494789958,1,0.005890376400202513,1,0.02614278346300125,1
1771619751986578944,0.005782714113593102,1,0.01811778172850609,1,0.0398993082344532,1
1771619751996566016,-0.001075780484825373,1,0.01566634885966778,1,0.04052079096436501,1
1771619752006543360,-0.00251066917553544,1,0.01362267509102821,1,0.04622310772538185,1
1771619752016510720,-0.003505665808916092,1,-0.0001264777529286221,1,0.03427749499678612,1
1771619752026468352,0.003187046619132161,1,-0.009316408075392246,1,0.03631177172064781,1
1771619752036416256,-0.004370459821075201,1,-0.003978771157562733,1,0.03574075177311897,1
1771619752046354432,0.004576751962304115,1,0.0046656783670187,1,0.02611998096108437,1
1771619752056282624,0.007385623175650835,1,0.01987489126622677,1,0.04978343471884727,1
1771619752066200832,0.005949242971837521,1,0.03026364557445049,1,0.05545554310083389,1
1771619752076109312,0.0001640645059524104,1,-0.0002132588706444949,1,0.03810267522931099,1
1771619752086007808,-0.005877910181879997,1,0.008115602657198906,1,0.03005225770175457,1
1771619752095896576,-0.01198505703359842,1,0.001603383105248213,1,0.03820908442139626,1
1771619752106012416,-0.01291769556701183,1,0.008385943248867989,1,0.03875761851668358,1
1771619752116118784,-0.007928860373795033,1,0.02325799688696861,1,0.02700880914926529,1
1771619752126215168,-0.006740501616150141,1,0.0174673143774271,1,0.06574331223964691,1
1771619752136301312,0.01647978462278843,1,0.01532171387225389,1,0.0473388247191906,1
1771619752146377984,0.02235879004001617,1,0.0205831490457058,1,0.03622486814856529,1
1771619752156444416,0.01282232254743576,1,0.02030632831156254,1,0.0344209335744381,1
1771619752166501376,0.005794375203549862,1,0.01130981557071209,1,0.04135773330926895,1
1771619752176548096,0.01748663373291492,1,0.009592342190444469,1,0.05481914803385735,1
1771619752186585088,-0.007883825339376926,1,0.02450685016810894,1,0.05340995639562607,1
1771619752196611840,-0.004675036296248436,1,0.0119616286829114,1,0.03182745352387428,1
1771619752206629120,-0.00294972606934607,1,-0.00438820431008935,1,0.03485490381717682,1
1771619752216636416,-0.0008580081048421562,1,-0.02354916743934155,1,0.03096278384327888,1
1771619752226633728,0.005405915435403585,1,0.01700165495276451,1,0.03357527777552605,1
1771619752236621312,-0.01550500094890594,1,0.008086894638836384,1,0.04268499091267586,1
1771619752246599168,-0.00914140697568655,1,-0.01154044363647699,1,0.06219157204031944,1
1771619752256567040,-0.01821284368634224,1,-0.00148720305878669,1,0.04991747811436653,1
1771619752266525440,0.01421436760574579,1,-0.01491057779639959,1,0.02519023232161999,1
1771619752276473856,0.00951841939240694,1,0.001444444642402232,1,0.0437920019030571,1
1771619752286412288,-0.01492907013744116,1,0.01154422108083963,1,0.03999586775898933,1
1771619752296340736,0.007443902548402548,1,0.01613899134099483,1,0.03358553349971771,1
1771619752306259712,0.02208668924868107,1,-0.003918869886547327,1,0.04880010709166527,1
1771619752316168960,0.02711777947843075,1,0.01153435651212931,1,0.04281561821699142,1
1771619752326068480,0.02356605045497417,1,0.006117747630923986,1,0.02598846890032291,1
1771619752335958272,0.01480662077665329,1,-0.01265339832752943,1,0.04103979095816612,1
1771619752346072576,-0.009574616327881813,1,0.01863525062799454,1,0.04500051215291023,1
1771619752356176640,-0.000255737395491451,1,0.01149218715727329,1,0.0522317960858345,1
1771619752366271232,-0.001779449405148625,1,0.01397495623677969,1,0.06301296502351761,1
1771619752376355584,-0.01086540892720222,1,0.01031833421438932,1,0.05076519399881363,1
1771619752386430208,-0.002544902265071869,1,0.000762107374612242,1,0.02464314363896847,1
1771619752396494848,0.001135826110839844,1,0.01275013573467731,1,0.04529450088739395,1
1771619752406549504,-0.00247680745087564,1,0.008432871662080288,1,0.0351100005209446,1
1771619752416594176,-0.002955197356641293,1,0.02066705375909805,1,0.0402180552482605,1
1771619752426629376,-0.007732702419161797,1,-0.007326714694499969,1,0.03785118833184242,1
1771619752436654336,-0.004442138131707907,1,-0.003709384007379413,1,0.0315602533519268,1
1771619752446669312,-0.009154713712632656,1,-0.006013407837599516,1,0.03547928854823112,1
1771619752456674304,0.007452161516994238,1,0.01355717703700066,1,0.03180909156799316,1
1771619752466669312,-0.00107757723890245,1,0.008506570011377335,1,0.03692546114325523,1
1771619752476654848,-0.0007419016328640282,1,0.01154180057346821,1,0.03756303712725639,1
1771619752486630400,-0.003776723053306341,1,0.004974478855729103,1,0.04473415017127991,1
1771619752496595712,0.01217960007488728,1,0.01162399351596832,1,0.04406994953751564,1
1771619752506551552,-0.0002336493926122785,1,0.002639915561303496,1,0.04595949873328209,1
1771619752516497664,0.006046461872756481,1,-0.001490008900873363,1,0.04319962859153748,1
1771619752526433792,-0.008634983561933041,1,0.008055558428168297,1,0.04172153398394585,1
1771619752536361216,0.004824772011488676,1,0.01925647631287575,1,0.03598421066999435,1
1771619752546278912,-0.0002633062831591815,1,0.004654240794479847,1,0.04323473945260048,1
1771619752556186368,0.0006004914757795632,1,0.00909885298460722,1,0.03482659161090851,1
1771619752566084352,-0.004183697048574686,1,0.001649995683692396,1,0.03876397013664246,1
1771619752575972608,0.005116281565278769,1,-0.003210228867828846,1,0.04475725814700127,1
1771619752586084864,0.006904999725520611,1,0.01500560157001019,1,0.03687818348407745,1
1771619752596187136,0.01001205109059811,1,0.006037609651684761,1,0.04440015554428101,1
1771619752606279424,-0.009270287118852139,1,0.003029793966561556,1,0.05168547481298447,1
1771619752616361984,-0.01716503128409386,1,-0.002666553948074579,1,0.03286220505833626,1
1771619752626434304,-0.003101802198216319,1,-0.01135589275509119,1,0.03722870722413063,1
1771619752636496896,-0.00308605469763279,1,0.004136691335588694,1,0.04652590677142143,1
1771619752646549504,-0.01211907155811787,1,0.0103878565132618,1,0.0411791019141674,1
1771619752656592384,-0.002460360294207931,1,0.0008579817367717624,1,0.05196655541658401,1
1771619752666625536,-0.009718787856400013,1,0.01298218593001366,1,0.03906909748911858,1
1771619752676648704,0.005245247855782509,1,0.01027044747024775,1,0.04554660618305206,1
1771619752686662400,0.005507602356374264,1,-0.002223718678578734,1,0.04046698659658432,1
1771619752696666112,0.0008949496550485492,1,-0.002300601918250322,1,0.02762524038553238,1
1771619752706659584,0.01143506728112698,1,0.005775455385446548,1,0.03295570239424706,1
1771619752716643584,-0.006470446474850178,1,0.01261547859758139,1,0.04473357275128365,1
1771619752726617600,0.00285282707773149,1,0.002594305900856853,1,0.04680480435490608,1
1771619752736581632,-0.002335053402930498,1,0.007215999066829681,1,0.04144017770886421,1
1771619752746535680,-0.0009703519172035158,1,0.008282897062599659,1,0.02646595053374767,1
1771619752756480000,0.0002811613667290658,1,0.01637857221066952,1,0.03722602128982544,1
1771619752766414336,0.000650349713396281,1,0.008957088924944401,1,0.03872596845030785,1
1771619752776338944,0.00218980060890317,1,0.01523845735937357,1,0.04108478501439095,1
1771619752786253568,0.001224086154252291,1,0.01433645468205214,1,0.03119209967553616,1
1771619752796158720,-0.0107142049819231,1,0.006849492900073528,1,0.04355274513363838,1
1771619752806054144,-0.001141059212386608,1,-0.0005607231869362295,1,0.041414774954319,1
1771619752815939584,-0.005321929696947336,1,0.005171401426196098,1,0.03875194117426872,1
1771619752826051584,-0.01784099265933037,1,0.005756198428571224,1,0.04423173516988754,1
1771619752836153600,0.004765513353049755,1,0.008131759241223335,1,0.04234247654676437,1
1771619752846245888,0.001065689837560058,1,0.01734451577067375,1,0.03600434958934784,1
1771619752856327936,0.009208515286445618,1,-0.0002416521892882884,1,0.03866419941186905,1
1771619752866400256,0.007165626157075167,1,-0.002010263036936522,1,0.03240204229950905,1
1771619752876462592,0.01137247681617737,1,0.00547358812764287,1,0.03627073019742966,1
1771619752886514944,-0.008275905624032021,1,0.009946546517312527,1,0.04420676454901695,1
1771619752896557568,-0.01214229874312878,1,0.01227283105254173,1,0.04085041210055351,1
1771619752906590208,-0.01627329550683498,1,0.002120393561199307,1,0.05588718503713608,1
1771619752916612864,0.005406973883509636,1,0.006431627087295055,1,0.02995273657143116,1
1771619752926625792,-0.001513880910351872,1,0.001040377654135227,1,0.03961170092225075,1
1771619752936628480,0.005978376604616642,1,0.01055176742374897,1,0.04590873792767525,1
1771619752946621696,-0.0005373617168515921,1,0.02166159823536873,1,0.05277175456285477,1
1771619752956604928,-0.005616487003862858,1,-0.0001384060451528057,1,0.04927531257271767,1
1771619752966577920,0.004146577790379524,1,0.004948215559124947,1,0.032069131731987,1
1771619752976541440,-0.009715615771710873,1,-0.001905153971165419,1,0.04540332034230232,1
1771619752986495232,-0.0007890110136941075,1,-0.0009988201782107353,1,0.03934691846370697,1
1771619752996439296,0.01366215106099844,1,0.01130422111600637,1,0.04735447093844414,1
1771619753006374912,0.002247192896902561,1,0.01601024903357029,1,0.04530614987015724,1
1771619753016300288,0.01479561254382133,1,0.009146193973720074,1,0.05275227874517441,1
1771619753026215936,0.003438933985307813,1,0.003059320850297809,1,0.04293709620833397,1
1771619753036121600,-0.004446411039680243,1,-0.0005639541195705533,1,0.03010549955070019,1
1771619753046017536,-0.003890801221132278,1,-0.008856508880853653,1,0.03157239034771919,1
1771619753055903744,-0.0053166295401752,1,0.007215380202978849,1,0.03725876286625862,1
1771619753066013696,-0.00438180984929204,1,0.01141514256596565,1,0.058249332010746,1
1771619753076113664,-0.00199689925648272,1,0.001945906318724155,1,0.04745858535170555,1
1771619753086203904,-0.01004589442163706,1,-0.00479741208255291,1,0.04569471254944801,1
1771619753096283904,-0.00120283174328506,1,-0.008990342728793621,1,0.04027749970555305,1
1771619753106354432,-0.005717726424336433,1,0.01126674562692642,1,0.03726020827889442,1
1771619753116414720,0.00174825987778604,1,0.01421683747321367,1,0.0396161712706089,1
1771619753126465280,0.0007822802290320396,1,0.006190523505210876,1,0.033024612814188,1
1771619753136505856,0.005590473301708698,1,0.004459443502128124,1,0.046220313757658,1
1771619753146535936,0.0004423201608005911,1,0.007097424473613501,1,0.04444362595677376,1
1771619753156556288,-0.00434440141543746,1,0.005125690717250109,1,0.04597104340791702,1
1771619753166566656,-0.002718675648793578,1,-0.005118787288665771,1,0.03845228627324104,1
1771619753176567552,-0.006204427219927311,1,0.008083866909146309,1,0.0357329472899437,1
1771619753186558464,-0.005913940258324146,1,0.0120017034932971,1,0.0456656888127327,1
1771619753196539136,-0.001798726036213338,1,0.01543713547289371,1,0.03638118132948875,1
1771619753206510080,0.0003316765069030225,1,0.0006387982284650207,1,0.03903850167989731,1
1771619753216471040,-0.001122570363804698,1,-0.01006149128079414,1,0.0396750271320343,1
1771619753226422016,7.192695920821279e-05,1,-0.003850989043712616,1,0.03787553310394287,1
1771619753236363520,0.0006948816007934511,1,0.009411782026290894,1,0.03960584104061127,1
1771619753246295040,-0.01060006767511368,1,0.01366332080215216,1,0.0567641444504261,1
1771619753256216576,-0.0006309700547717512,1,0.007980747148394585,1,0.05134589970111847,1
1771619753266128384,0.0008061066619120538,1,0.0001272956869797781,1,0.03875904157757759,1
1771619753276030208,0.005615829955786467,1,-0.01038648653775454,1,0.04443814605474472,1
1771619753285922816,0.0008218201110139489,1,0.01295297220349312,1,0.0366215892136097,1
1771619753295805696,0.004489466547966003,1,0.008161314763128757,1,0.04469763487577438,1
1771619753305914112,-0.00265512615442276,1,0.02214349247515202,1,0.05163551494479179,1
1771619753316012800,-0.005859695840626955,1,0.001823964295908809,1,0.04895933344960213,1
1771619753326101248,0.0001333741238340735,1,0.0005979478592053056,1,0.04625459015369415,1
1771619753336179712,4.32682027167175e-05,1,-1.361122485832311e-06,1,0.03183364868164062,1
1771619753346247936,-0.009515739046037197,1,-0.002712189918383956,1,0.03220773860812187,1
1771619753356306432,-0.001073732390068471,1,0.006253411993384361,1,0.03659892082214355,1
1771619753366354944,0.002013650722801685,1,0.01496201660484076,1,0.05310430005192757,1
1771619753376393472,-0.00359642319381237,1,0.01079860050231218,1,0.049856998026371,1
1771619753386422272,-0.0006921240128576756,1,0.003040271578356624,1,0.04054977372288704,1
1771619753396440832,-0.005536322016268969,1,0.007277803961187601,1,0.03937210515141487,1
1771619753406449664,0.0004464208614081144,1,0.001106880372390151,1,0.0432746559381485,1
1771619753416448512,-0.003110596444457769,1,0.009618374519050121,1,0.03188532590866089,1
1771619753426437376,0.006716191302984953,1,0.01797523722052574,1,0.03416308760643005,1
1771619753436416512,0.005023511126637459,1,0.01289638224989176,1,0.0453236885368824,1
1771619753446385664,0.008295342326164246,1,0.008178995922207832,1,0.04496954008936882,1
1771619753456344832,-0.001688635675236583,1,0.0009880430297926068,1,0.02435807138681412,1
1771619753466294528,-0.003845712868496776,1,0.007741378620266914,1,0.02706816047430038,1
1771619753476234240,-0.008804626762866974,1,0.01127777434885502,1,0.04505212604999542,1
1771619753486163712,-0.003437428968027234,1,0.02828621491789818,1,0.05280245840549469,1
1771619753496083968,-0.01294964458793402,1,0.0005908597959205508,1,0.04659700393676758,1
1771619753505993984,-0.01379302982240915,1,0.001205134787596762,1,0.0466272309422493,1
1771619753515894272,-0.008535230532288551,1,-0.009081035852432251,1,0.03429388254880905,1
1771619753525784320,0.0003902202879544348,1,-0.006004441529512405,1,0.03751677274703979,1
1771619753535666432,-0.002583527471870184,1,0.009193956851959229,1,0.03904110938310623,1
1771619753545773824,0.002478860085830092,1,0.02501847967505455,1,0.03684487193822861,1
1771619753555871488,0.007110060658305883,1,0.01881860569119453,1,0.05428284034132957,1
1771619753565958912,-0.01079502888023853,1,-0.0008376891491934657,1,0.04840521514415741,1
1771619753576036864,-0.01175295375287533,1,-0.01224140450358391,1,0.03492182865738869,1
1771619753586104576,-0.01448707468807697,1,0.006546897813677788,1,0.03012038022279739,1
1771619753596162304,-0.01155136246234179,1,0.002490136306732893,1,0.05560527741909027,1
1771619753606210304,-0.005621179938316345,1,0.01198368333280087,1,0.05467484146356583,1
1771619753616248320,-0.003751492127776146,1,0.008087114430963993,1,0.04537829011678696,1
1771619753626276096,0.003015441354364157,1,0.004210904240608215,1,0.04112771898508072,1
1771619753636294400,-0.00298482459038496,1,-0.007379175629466772,1,0.02261647395789623,1
1771619753646302976,0.0001328464277321473,1,0.008123629726469517,1,0.03964668139815331,1
1771619753656301568,0.0001901506038848311,1,0.01627935655415058,1,0.04592380672693253,1
1771619753666289920,-0.007715521845966578,1,0.01569226197898388,1,0.04387795925140381,1
1771619753676268544,-0.0005590710206888616,1,0.01504594646394253,1,0.05100948736071587,1
1771619753686236928,-0.00724713271483779,1,-0.01331519987434149,1,0.04601135104894638,1
1771619753696195840,0.001425700960680842,1,-0.004464197903871536,1,0.04263283684849739,1
1771619753706144768,-0.0003708044823724777,1,-0.004453756380826235,1,0.0258457213640213,1
1771619753716083456,-0.004764910321682692,1,0.01915555633604527,1,0.05166121572256088,1
1771619753726012416,0.007105556316673756,1,0.01652593538165092,1,0.05312932655215263,1
1771619753735931392,0.007112174760550261,1,0.009653111919760704,1,0.04709205403923988,1
1771619753745840640,-0.00761378975585103,1,-0.003228155896067619,1,0.03100884705781937,1
1771619753755739904,-0.0007342007011175156,1,-0.004412055481225252,1,0.03337091952562332,1
1771619753765629696,0.000935280928388238,1,-0.003537944052368402,1,0.04414810240268707,1
1771619753775746816,-0.002774497726932168,1,0.01676351018249989,1,0.04831932112574577,1
1771619753785853952,-0.002658954123035073,1,0.02451892755925655,1,0.06331798434257507,1
1771619753795951104,-0.007710737176239491,1,0.0123292300850153,1,0.05648344755172729,1
1771619753806038016,-0.009227868169546127,1,-0.003454409074038267,1,0.04780210182070732,1
1771619753816115200,-0.005979652050882578,1,-0.01815046928822994,1,0.0261921864002943,1
1771619753826182656,-0.003848194144666195,1,0.004275508224964142,1,0.03279142826795578,1
1771619753836239872,0.001303383847698569,1,0.007065499201416969,1,0.05498193204402924,1
1771619753846287360,-0.007421044632792473,1,0.02224922925233841,1,0.05399031564593315,1
1771619753856324864,0.003654800821095705,1,0.01271502859890461,1,0.05793603509664536,1
1771619753866352896,0.001337452442385256,1,-0.0001430952979717404,1,0.04414230957627296,1
1771619753876370944,-0.009431704878807068,1,-0.005966662894934416,1,0.03430001437664032,1
1771619753886379008,-0.003151340410113335,1,0.007190675474703312,1,0.03573206812143326,1
1771619753896377088,0.0001733733952278271,1,0.01194751262664795,1,0.03902475535869598,1
1771619753906365440,-0.005480807274580002,1,0.0194206815212965,1,0.05046137422323227,1
1771619753916343808,-0.003052562940865755,1,0.01058380398899317,1,0.04503851011395454,1
1771619753926312448,0.006612894590944052,1,-0.002301309490576386,1,0.04745972901582718,1
1771619753936271104,-0.004585557151585817,1,-0.002893851371482015,1,0.02679159492254257,1
1771619753946220288,-0.006035345140844584,1,0.005445966962724924,1,0.03487691655755043,1
1771619753956160256,-0.009283591993153095,1,0.003381599904969335,1,0.03818819299340248,1
1771619753966090496,-0.0001789782108971849,1,0.01509597431868315,1,0.05309748277068138,1
1771619753976010752,-0.003213834948837757,1,0.01653340831398964,1,0.06004086136817932,1
1771619753985921024,0.003098292509093881,1,-0.006395428441464901,1,0.04087043926119804,1
1771619753995821312,-0.006479992065578699,1,-0.002854423830285668,1,0.03821907192468643,1
1771619754005712384,0.0007330855587497354,1,8.568512566853315e-05,1,0.03216021135449409,1
1771619754015828992,0.00381950568407774,1,0.009086671285331249,1,0.05071592703461647,1
1771619754025935872,0.006806242745369673,1,0.03191743418574333,1,0.05127552151679993,1
1771619754036032512,-0.01055399049073458,1,0.008812704123556614,1,0.05318915843963623,1
1771619754046119424,0.00731323566287756,1,-0.004383288789540529,1,0.05132937431335449,1
1771619754056196352,0.006027070805430412,1,0.011997414752841,1,0.03658667951822281,1
1771619754066263552,-0.002943294355645776,1,0.006027645897120237,1,0.02768210135400295,1
1771619754076320768,-0.005167221184819937,1,6.543960626004264e-05,1,0.03850668668746948,1
1771619754086368000,-0.001556484610773623,1,0.01408301759511232,1,0.04114821925759315,1
1771619754096405504,0.001152938581071794,1,0.01648182235658169,1,0.05612774565815926,1
1771619754106433024,-0.005797170102596283,1,0.01500374171882868,1,0.03753932565450668,1
1771619754116450560,-0.01020687259733677,1,-0.0008305659284815192,1,0.02892028167843819,1
1771619754126458368,0.002032903488725424,1,-0.003823167644441128,1,0.0324697233736515,1
1771619754136455936,0.003839103039354086,1,0.01765077188611031,1,0.04293618351221085,1
1771619754146443776,0.004194510169327259,1,0.02745054289698601,1,0.04772195592522621,1
1771619754156421632,-0.009532347321510315,1,0.01143570709973574,1,0.0420844778418541,1
1771619754166389504,-0.0005667785299010575,1,-0.002326895017176867,1,0.03364695981144905,1
1771619754176347648,0.0006074838456697762,1,0.00209784647449851,1,0.0276693981140852,1
1771619754186296320,-0.001561480457894504,1,0.003538036718964577,1,0.02737475745379925,1
1771619754196235264,0.009136372245848179,1,0.007774420082569122,1,0.04351287335157394,1
1771619754206164224,0.004650631453841925,1,0.02177960425615311,1,0.04772936925292015,1
1771619754216083712,-0.00454406114295125,1,0.01710975170135498,1,0.05587727203965187,1
1771619754225993216,-0.004690011963248253,1,0.01124823745340109,1,0.02709582075476646,1
1771619754235892736,-0.001361907925456762,1,-0.01374049670994282,1,0.03367283940315247,1
1771619754245782528,-0.003970789723098278,1,-0.006514178123325109,1,0.03820524737238884,1
1771619754255898880,0.0005712851416319609,1,0.004513772204518318,1,0.05047854408621788,1
1771619754266005760,-0.005300888326019049,1,0.01855579949915409,1,0.05045777931809425,1
1771619754276102400,0.009086619131267071,1,0.01639681309461594,1,0.0534227229654789,1
1771619754286189312,-0.001073940540663898,1,0.004783864133059978,1,0.03971664980053902,1
1771619754296266240,0.003033184679225087,1,-0.001499988487921655,1,0.03308193385601044,1
1771619754306332928,-0.002657398581504822,1,0.01077747251838446,1,0.03008497320115566,1
1771619754316390144,0.01143919862806797,1,0.01736633293330669,1,0.05068742483854294,1
1771619754326437376,0.00575167965143919,1,0.02088382840156555,1,0.05703511089086533,1
1771619754336474368,0.007848643697798252,1,0.01605880260467529,1,0.06180065870285034,1
1771619754346501632,-9.783244604477659e-05,1,0.0008712411508895457,1,0.03487334400415421,1
1771619754356518912,-0.002866064896807075,1,-0.01190609112381935,1,0.03488776087760925,1
1771619754366526464,0.0007522390806116164,1,0.003610010957345366,1,0.03993937000632286,1
1771619754376524032,0.004475568421185017,1,0.01590213552117348,1,0.03873629868030548,1
1771619754386512128,0.006101597100496292,1,0.01855453290045261,1,0.05220672488212585,1
1771619754396490240,-0.0005987241747789085,1,0.01046859845519066,1,0.04179064184427261,1
1771619754406458368,-0.0006754249916411936,1,-0.007776501588523388,1,0.03900779038667679,1
1771619754416416512,0.001634535379707813,1,-0.001482772058807313,1,0.02288069948554039,1
1771619754426365184,0.002905343659222126,1,0.008139214478433132,1,0.02706177160143852,1
1771619754436303872,0.00909543689340353,1,0.01624720916152,1,0.06001764535903931,1
1771619754446232576,-0.004629170056432486,1,0.00161331461276859,1,0.05616962909698486,1
1771619754456151296,0.004159926436841488,1,0.0146768456324935,1,0.0390491783618927,1
1771619754466061312,-0.008136200718581676,1,0.002963915001600981,1,0.04510040953755379,1
1771619754475961088,-0.003610942279919982,1,-0.001670151832513511,1,0.03519491106271744,1
1771619754485851392,-0.00162714091129601,1,-0.0081804059445858,1,0.03758872672915459,1
1771619754495968000,0.003746034577488899,1,0.01387131493538618,1,0.03692562505602837,1
1771619754506074368,-0.006669687107205391,1,0.01120055001229048,1,0.05826370790600777,1
1771619754516171008,-0.00580439530313015,1,0.006765345577150583,1,0.04540129378437996,1
1771619754526257664,-0.005605841986835003,1,0.0004646288580261171,1,0.03487332910299301,1
1771619754536334080,0.002126253210008144,1,-0.002798279514536262,1,0.02526910044252872,1
1771619754546400768,0.0009705697884783149,1,0.01269217021763325,1,0.03065437451004982,1
1771619754556457216,0.001054001622833312,1,0.01871270500123501,1,0.04861842468380928,1
1771619754566503936,0.003680405206978321,1,0.01352013647556305,1,0.04710052534937859,1
1771619754576540672,0.005738049279898405,1,0.01431457512080669,1,0.05101491138339043,1
1771619754586567168,-0.01251269225031137,1,0.0103269936516881,1,0.03758582472801208,1
1771619754596583936,0.006871857680380344,1,-0.003099932335317135,1,0.03328424692153931,1
1771619754606591488,-0.001200002734549344,1,0.005897504277527332,1,0.03213104978203773,1
1771619754616589056,0.005725359078496695,1,0.01332452055066824,1,0.0465097688138485,1
1771619754626577152,-0.00305392243899405,1,0.01896460726857185,1,0.04683555662631989,1
1771619754636555264,-0.001612859778106213,1,0.008256040513515472,1,0.04593872278928757,1
1771619754646523136,-0.009017350152134895,1,-0.01233555004000664,1,0.03429030627012253,1
1771619754656481536,0.0004835553409066051,1,-0.004923056345432997,1,0.02853960543870926,1
1771619754666429952,-0.00966450572013855,1,0.00110976560972631,1,0.03611898049712181,1
1771619754676368384,0.002619296312332153,1,0.01843995414674282,1,0.03715406358242035,1
1771619754686296832,-0.001548308646306396,1,0.01746447943150997,1,0.0405036136507988,1
1771619754696215808,-0.007516878191381693,1,0.004351483657956123,1,0.04684551432728767,1
1771619754706125056,0.001055494300089777,1,-0.009335022419691086,1,0.02229390665888786,1
1771619754716024576,-0.00151525647379458,1,0.002684602048248053,1,0.04534585401415825,1
1771619754725914368,0.003529660170897841,1,0.008635313250124454,1,0.04168819636106491,1
1771619754736030720,-0.002415013732388616,1,0.003865595441311598,1,0.0507587231695652,1
1771619754746136832,-0.003265509381890297,1,0.02012260258197784,1,0.04114232957363129,1
1771619754756233216,0.003972363658249378,1,0.007375661749392748,1,0.05222579091787338,1
1771619754766319360,0.003574124770238996,1,-0.00157409009989351,1,0.04234272241592407,1
1771619754776396032,0.002661722246557474,1,-0.0007089166902005672,1,0.03240737318992615,1
1771619754786462976,0.0031935831066221,1,0.001382207497954369,1,0.03692109137773514,1
1771619754796519680,0.004128629807382822,1,0.01239160820841789,1,0.03810439631342888,1
1771619754806566400,0.001172610325738788,1,0.01120543573051691,1,0.04831018298864365,1
1771619754816603136,-0.00482979929074645,1,-0.001546814339235425,1,0.04209763929247856,1
1771619754826629888,-0.004034712444990873,1,0.008254263550043106,1,0.0270527545362711,1
1771619754836646912,-0.001394892111420631,1,0.009152269922196865,1,0.02643311955034733,1
1771619754846653696,0.01044078823179007,1,0.004412253387272358,1,0.03573647513985634,1
1771619754856650752,-0.000911299604922533,1,0.005869129672646523,1,0.04052482917904854,1
1771619754866637824,-0.007291094865649939,1,0.01359699945896864,1,0.04358648881316185,1
1771619754876614912,0.001965571660548449,1,0.00518975080922246,1,0.03930745646357536,1
1771619754886582528,-0.002866033231839538,1,-0.002310753101482987,1,0.0390445701777935,1
1771619754896541184,0.0009463796159252524,1,-0.001423189765773714,1,0.03810233622789383,1
1771619754906489600,-0.001162636443041265,1,0.001631203340366483,1,0.03905497863888741,1
1771619754916428544,-0.003238933859393001,1,0.01341962907463312,1,0.03750001266598701,1
1771619754926357760,-0.003836211515590549,1,0.005409334320574999,1,0.0438421368598938,1
1771619754936277248,-0.003247421933338046,1,0.01133410539478064,1,0.03542311862111092,1
1771619754946186752,-0.0001279379648622125,1,-0.002299576764926314,1,0.04084630310535431,1
1771619754956086272,0.004629393573850393,1,0.009932589717209339,1,0.04826473444700241,1
1771619754965976064,-0.00259377877227962,1,0.008098465390503407,1,0.03688926249742508,1
1771619754976089856,-0.001647514989599586,1,0.01448294520378113,1,0.0432179793715477,1
1771619754986194176,-0.003738199127838016,1,0.006121431477367878,1,0.0465337373316288,1
1771619754996288512,-0.004367200657725334,1,0.001948710880242288,1,0.0360562764108181,1
1771619755006372608,-0.01024889294058084,1,0.005525738000869751,1,0.04177610203623772,1
1771619755016446976,-0.001221749116666615,1,-0.0001406921073794365,1,0.03635648638010025,1
1771619755026511104,0.00835274625569582,1,0.01174037437886,1,0.0414045937359333,1
1771619755036566016,-0.00163517368491739,1,0.008746102452278137,1,0.03092611581087112,1
1771619755046610432,-0.004936553537845612,1,0.006715196184813976,1,0.04145516455173492,1
1771619755056645120,-0.004307765513658524,1,0.0007093529566191137,1,0.04804151505231857,1
1771619755066669824,-0.005436183884739876,1,0.001051401603035629,1,0.04653614014387131,1
1771619755076684800,0.006548724602907896,1,-0.001118166488595307,1,0.04260339587926865,1
1771619755086689792,0.001709978329017758,1,0.00957872997969389,1,0.03390941768884659,1
1771619755096684800,-0.004957661032676697,1,0.01047892589122057,1,0.03574638813734055,1
1771619755106670336,0.003172622760757804,1,0.01286319177597761,1,0.04501714929938316,1
1771619755116645632,-0.008100268431007862,1,0.01313280314207077,1,0.05287168174982071,1
1771619755126611200,0.001388280303217471,1,-0.005290835630148649,1,0.04565413668751717,1
1771619755136567040,0.01004636939615011,1,-0.001381482928991318,1,0.04436077922582626,1
1771619755146513152,-0.002070934744551778,1,0.002389957197010517,1,0.03214383497834206,1
1771619755156449280,0.002758420305326581,1,0.01192271523177624,1,0.04735812172293663,1
1771619755166375168,-0.003264449769631028,1,0.009479377418756485,1,0.05486566945910454,1
1771619755176291584,0.001844345009885728,1,0.01429563760757446,1,0.04892123863101006,1
1771619755186198272,0.002740430179983377,1,0.001491966657340527,1,0.04741053283214569,1
1771619755196096512,0.001384511590003967,1,-8.827679994283244e-05,1,0.0303245484828949,1
1771619755205984768,-0.0009452344966121018,1,0.01835515163838863,1,0.03957176208496094,1
1771619755216096768,0.004510989878326654,1,0.007939692586660385,1,0.05187051370739937,1
1771619755226198784,-0.002088037086650729,1,0.01095988694578409,1,0.03959685191512108,1
1771619755236291328,-0.003524850821122527,1,0.001990521792322397,1,0.04801887646317482,1
1771619755246373632,-0.001231109607033432,1,-0.003982303664088249,1,0.04564255475997925,1
1771619755256446464,0.003589461091905832,1,0.008003491908311844,1,0.03720047324895859,1
1771619755266508800,-0.006854789797216654,1,-0.00117573281750083,1,0.03998065739870071,1
1771619755276561408,-0.01456706319004297,1,0.003490159753710032,1,0.04299815371632576,1
1771619755286604032,0.006381757091730833,1,0.005849200300872326,1,0.05309039354324341,1
1771619755296636928,-0.002081354847177863,1,0.003503472311422229,1,0.03633023425936699,1
1771619755306659584,-0.001443541957996786,1,-0.00783291831612587,1,0.02915585227310658,1
1771619755316672768,0.004040474537760019,1,0.005544187035411596,1,0.04050091654062271,1
1771619755326675968,-0.00416567362844944,1,0.01125821936875582,1,0.06033832207322121,1
1771619755336668928,0.001700301305390894,1,0.01061634998768568,1,0.04440049827098846,1
1771619755346652416,-0.003123546950519085,1,0.009993965737521648,1,0.04620504379272461,1
1771619755356625920,0.002806898206472397,1,0.00273233326151967,1,0.0383916050195694,1
1771619755366590720,-0.001890599261969328,1,-0.003451095195487142,1,0.04352731630206108,1
1771619755376545792,-0.0006468009087257087,1,-0.001410338678397238,1,0.04022674262523651,1
1771619755386490880,-0.005477829836308956,1,0.007250078953802586,1,0.04686415567994118,1
1771619755396425984,-0.008149256929755211,1,0.01494524348527193,1,0.0486021563410759,1
1771619755406351872,0.007128454744815826,1,-0.006158416625112295,1,0.06840431690216064,1
1771619755416267776,-0.003891976550221443,1,0.001151332282461226,1,0.02310267463326454,1
1771619755426173696,-0.003872318426147103,1,-0.002738596638664603,1,0.03540093824267387,1
1771619755436069888,-0.001678976230323315,1,0.02206359058618546,1,0.04677541181445122,1
1771619755445956352,0.001606595353223383,1,0.006528231780976057,1,0.05579666048288345,1
1771619755456066560,0.005640596151351929,1,0.001637607230804861,1,0.0155742047354579,1
1771619755466166784,-0.005076243542134762,1,0.007647503633052111,1,0.0390489399433136,1
1771619755476257024,0.002437032992020249,1,0.001660877605900168,1,0.04530064761638641,1
1771619755486337536,0.004497799556702375,1,-0.002997176023200154,1,0.04137203842401505,1
1771619755496407808,0.001726209884509444,1,0.007946301251649857,1,0.03630659729242325,1
1771619755506468608,-0.001676928135566413,1,0.01222992315888405,1,0.05367178842425346,1
1771619755516519424,-0.001333137741312385,1,0.01638707704842091,1,0.04169173166155815,1
1771619755526560256,0.002647935412824154,1,0.004801200237125158,1,0.05371285602450371,1
1771619755536590848,-0.009678883478045464,1,-0.005936385132372379,1,0.04115273430943489,1
1771619755546611712,-0.005906526930630207,1,-0.001295401831157506,1,0.02672913484275341,1
1771619755556622592,-0.01173598319292068,1,-0.006624546833336353,1,0.04656029120087624,1
1771619755566624512,0.009390208870172501,1,0.01092351227998734,1,0.03324433043599129,1
1771619755576616704,0.007896218448877335,1,0.009403549134731293,1,0.03325045108795166,1
1771619755586598912,-0.001786049455404282,1,0.02385837957262993,1,0.05603988841176033,1
1771619755596571136,-0.00549290468916297,1,0.00144493265543133,1,0.03756223246455193,1
1771619755606533376,-0.006525421980768442,1,-0.01116144470870495,1,0.02708893641829491,1
1771619755616486144,-0.00550047168508172,1,0.004921244457364082,1,0.0387277826666832,1
1771619755626428928,0.01224543806165457,1,0.01572605594992638,1,0.04197530820965767,1
1771619755636361728,-0.007305347826331854,1,0.0195744801312685,1,0.04262666404247284,1
1771619755646284544,-0.00539154140278697,1,0.0107551496475935,1,0.03871455416083336,1
1771619755656197888,0.0002886290603782982,1,-0.003044431330636144,1,0.03543119132518768,1
1771619755666101760,0.007555384188890457,1,-0.003030513180419803,1,0.04558917135000229,1
1771619755675995904,-0.005648576654493809,1,0.006722090300172567,1,0.03963622823357582,1
1771619755685880576,-0.005426697432994843,1,0.01001654658466578,1,0.03120038844645023,1
1771619755695988992,-0.002195053268224001,1,0.02089741453528404,1,0.05787708610296249,1
1771619755706087424,-0.005014692433178425,1,0.01329078152775764,1,0.04950140044093132,1
1771619755716175616,0.002423765137791634,1,-0.01418137084692717,1,0.02368856407701969,1
1771619755726254336,-0.001423068577423692,1,-0.003886919002979994,1,0.02941264770925045,1
1771619755736322816,-0.01161593571305275,1,-0.001546922721900046,1,0.03008747473359108,1
1771619755746381312,-0.004999650176614523,1,0.01398073229938745,1,0.04921374097466469,1
1771619755756429824,0.00900186225771904,1,0.001593095134012401,1,0.04706843197345734,1
1771619755766468096,-0.00503797922283411,1,-0.002883640117943287,1,0.04893771186470985,1
1771619755776496640,-0.001176645513623953,1,-0.00315014086663723,1,0.04740754887461662,1
1771619755786515456,-0.001010347390547395,1,0.0009304042905569077,1,0.03483683243393898,1
1771619755796524288,-0.002636287594214082,1,0.008815501816570759,1,0.04504071176052094,1
1771619755806523392,-0.00476386770606041,1,0.01423050556331873,1,0.05581555888056755,1
1771619755816512512,-0.001199966995045543,1,0.01531972084194422,1,0.05165380239486694,1
1771619755826491648,-0.001217863755300641,1,0.01029717456549406,1,0.0447002649307251,1
1771619755836461056,-0.002397112315520644,1,0.0007859191973693669,1,0.03900906443595886,1
1771619755846420480,0.009286783635616302,1,-0.0171213261783123,1,0.03448254242539406,1
1771619755856369920,-0.001795397372916341,1,0.01532522682100534,1,0.03721985965967178,1
1771619755866309632,0.004913858138024807,1,0.005121864844113588,1,0.03747099637985229,1
1771619755876239360,-0.001347891287878156,1,0.01350474078208208,1,0.05132599547505379,1
1771619755886159104,0.0108566964045167,1,0.007859851233661175,1,0.0518748052418232,1
1771619755896069632,-0.001836170442402363,1,-0.0005490612820722163,1,0.03211653232574463,1
1771619755905969920,-0.002983192913234234,1,-0.009800070896744728,1,0.04533481225371361,1
1771619755915860480,-0.004161274526268244,1,0.01057218480855227,1,0.03631360083818436,1
1771619755925741056,6.201300857355818e-05,1,0.02126962319016457,1,0.0447121374309063,1
1771619755935849216,-0.005045861937105656,1,0.01441865414381027,1,0.04565994814038277,1
1771619755945947904,-0.00505871744826436,1,0.007241955958306789,1,0.04324052855372429,1
1771619755956036352,7.413230196107179e-05,1,-0.007322715129703283,1,0.04533165320754051,1
1771619755966115072,-0.004156243056058884,1,-0.004570113960653543,1,0.03875041753053665,1
1771619755976183808,0.00747953075915575,1,0.01235074270516634,1,0.04498152807354927,1
1771619755986242560,-0.000295462115900591,1,0.02133006788790226,1,0.04767071083188057,1
1771619755996291328,-0.006011678837239742,1,0.01452066842466593,1,0.0494750589132309,1
1771619756006330368,-0.002712727291509509,1,0.005856682080775499,1,0.03842048346996307,1
1771619756016359168,-0.001890476210974157,1,-0.006901594344526529,1,0.03934473916888237,1
1771619756026378496,0.01002427097409964,1,-0.006648423615843058,1,0.03507846966385841,1
1771619756036388096,0.002905002096667886,1,0.00506916269659996,1,0.03209666907787323,1
1771619756046387712,0.002955738455057144,1,0.009820401668548584,1,0.04288626089692116,1
1771619756056377088,-0.004824558738619089,1,0.005265711806714535,1,0.04384924843907356,1
1771619756066356736,0.003549311775714159,1,0.006446581333875656,1,0.04408526793122292,1
1771619756076326400,0.0009880666621029377,1,-0.007852817885577679,1,0.02883043698966503,1
1771619756086286080,0.007395260501652956,1,-0.001498510828241706,1,0.04291512072086334,1
1771619756096236288,-0.001844151644036174,1,0.005953466054052114,1,0.04561696201562881,1
1771619756106176512,-0.002020575804635882,1,0.01699382625520229,1,0.04830028489232063,1
1771619756116106496,-0.0005219768499955535,1,0.009244632907211781,1,0.04836168885231018,1
1771619756126027776,-0.003319540526717901,1,0.008002547547221184,1,0.03365528583526611,1
1771619756135939072,0.002141744131222367,1,0.00871448777616024,1,0.04561898112297058,1
1771619756145840640,0.001558660762384534,1,0.008158686570823193,1,0.04262677952647209,1
1771619756155732224,-6.651811418123543e-05,1,-0.006826984230428934,1,0.03035248070955276,1
1771619756165614336,0.004091245122253895,1,0.00917008426040411,1,0.03302951157093048,1
1771619756175721728,0.006048223003745079,1,0.02652787230908871,1,0.05909686535596848,1
1771619756185819392,0.001145817572250962,1,0.004971732851117849,1,0.05190277099609375,1
1771619756195907072,0.0007406544755212963,1,-0.01176201179623604,1,0.02284442633390427,1
1771619756205984512,-0.0004382039187476039,1,-0.005799776874482632,1,0.0222804956138134,1
1771619756216051968,-0.003346756100654602,1,0.01771472953259945,1,0.03780436143279076,1
1771619756226109696,0.002365440363064408,1,0.01902488246560097,1,0.04258783534169197,1
1771619756236157440,-0.002464698860421777,1,0.01515402924269438,1,0.03723572939634323,1
1771619756246195456,0.007140896748751402,1,-0.006979750469326973,1,0.03062461502850056,1
1771619756256223744,-0.0009408755577169359,1,0.000264724250882864,1,0.03849032521247864,1
1771619756266242048,0.002439181553199887,1,0.009792117401957512,1,0.05336577445268631,1
1771619756276250368,0.0002125820174114779,1,0.009696375578641891,1,0.02761017344892025,1
1771619756286249216,-0.0004433587018866092,1,0.012612484395504,1,0.02638344280421734,1
1771619756296238080,-0.001702498877421021,1,0.009095803834497929,1,0.06155511736869812,1
1771619756306216960,0.004453476052731276,1,0.01440303400158882,1,0.05397695302963257,1
1771619756316185856,-0.002267658244818449,1,-0.00503903953358531,1,0.02882085740566254,1
1771619756326145280,0.01117891725152731,1,-0.009690712206065655,1,0.0245975200086832,1
1771619756336094720,0.001066160737536848,1,0.004585670307278633,1,0.03899364918470383,1
1771619756346033920,0.0002565033501014113,1,0.01364233624190092,1,0.03754127025604248,1
1771619756355963904,-0.002373226918280125,1,0.009213990531861782,1,0.05464392527937889,1
1771619756365883648,-0.008768468163907528,1,-0.001116402097977698,1,0.04238996282219887,1
1771619756375793920,-0.004607082810252905,1,-0.006754856556653976,1,0.04234271869063377,1
1771619756385694464,-0.0004105794068891555,1,-0.01036879699677229,1,0.03517386689782143,1
1771619756395585024,-0.003639072878286242,1,0.007133425213396549,1,0.04471580684185028,1
1771619756405701888,-0.01202721986919641,1,0.02049469202756882,1,0.05044355243444443,1
1771619756415809024,0.009515796788036823,1,0.02173328027129173,1,0.04976793006062508,1
1771619756425906176,-9.09347872948274e-05,1,0.005356787238270044,1,0.047396469861269,1
1771619756435993344,-0.001945312833413482,1,-0.004354048985987902,1,0.04325823858380318,1
1771619756446070784,-0.001958114327862859,1,0.0008084209985099733,1,0.04109501466155052,1
1771619756456137984,-0.006498104427009821,1,0.004946526139974594,1,0.03456234931945801,1
1771619756466195456,-0.001686353818513453,1,0.01889777183532715,1,0.04498373344540596,1
1771619756476242944,-0.004235288593918085,1,0.01791487820446491,1,0.04052232205867767,1
1771619756486280448,-0.003830145113170147,1,0.004578503780066967,1,0.04201692342758179,1
1771619756496308224,-0.0005383630632422864,1,-0.007640487514436245,1,0.04204178601503372,1
1771619756506325760,-0.01048216782510281,1,-0.005029408261179924,1,0.03125568851828575,1
1771619756516333568,0.00780754815787077,1,0.005752162076532841,1,0.04827705398201942,1
1771619756526332160,-0.003461926942691207,1,0.008502645418047905,1,0.04443979635834694,1
1771619756536321280,0.002461350290104747,1,0.02638442069292068,1,0.05455934256315231,1
1771619756546300416,-0.009180309250950813,1,0.008537045679986477,1,0.04895618930459023,1
1771619756556269568,-0.005965328309684992,1,0.005238535348325968,1,0.03753972798585892,1
1771619756566228736,-0.001206123386509717,1,-0.00313378288410604,1,0.03244426846504211,1
1771619756576178432,-0.0001477351324865595,1,0.006564261391758919,1,0.03332141786813736,1
1771619756586118144,-0.009913092479109764,1,0.01438753958791494,1,0.04292825236916542,1
1771619756596047616,0.001882195821963251,1,0.01442800834774971,1,0.06088578328490257,1
1771619756605967872,-0.001352913794107735,1,0.005887818057090044,1,0.04173415526747704,1
1771619756615877888,0.00339732295833528,1,-0.007823705673217773,1,0.04019179940223694,1
1771619756625778176,-0.001972024096176028,1,-0.001907013123854995,1,0.03183022141456604,1
1771619756635668480,-0.008393558673560619,1,0.01399691216647625,1,0.04863321781158447,1
1771619756645785088,0.003793435171246529,1,0.01015908364206553,1,0.0530807264149189,1
1771619756655891712,0.004014283884316683,1,0.01339772064238787,1,0.03478714823722839,1
1771619756665988608,0.002906078472733498,1,0.01034812163561583,1,0.04558699205517769,1
1771619756676075264,0.005940171889960766,1,0.001870262436568737,1,0.03806816413998604,1
1771619756686152448,-0.00252274121157825,1,-0.01160856615751982,1,0.02945804223418236,1
1771619756696219648,0.004390206653624773,1,0.002417369047179818,1,0.03176333755254745,1
1771619756706276352,-0.003565317951142788,1,0.01797849871218204,1,0.05638153478503227,1
1771619756716323328,-0.0008075455552898347,1,0.01566710509359837,1,0.06744516640901566,1
1771619756726360576,0.0002654635463841259,1,-0.002831504680216312,1,0.05220171436667442,1
1771619756736387840,-0.00159633147995919,1,-0.009724177420139313,1,0.03428679704666138,1
1771619756746405888,-0.0001766398927429691,1,-0.0002229285455541685,1,0.03329759836196899,1
1771619756756413696,0.005408796947449446,1,0.01077899802476168,1,0.05009240657091141,1
1771619756766412032,-0.002194761764258146,1,0.01947802118957043,1,0.04919372498989105,1
1771619756776400384,0.003866032464429736,1,0.01387524697929621,1,0.04166254773736,1
1771619756786378496,-0.008187245577573776,1,0.003546867519617081,1,0.04174959659576416,1
1771619756796347136,-0.001529913162812591,1,-0.01194106228649616,1,0.03662432357668877,1
1771619756806305792,-0.001654162304475904,1,-0.01288645621389151,1,0.03303699567914009,1
1771619756816254464,-0.000411468034144491,1,0.01063389051705599,1,0.03419728204607964,1
1771619756826193152,0.003882940160110593,1,0.01785142906010151,1,0.04918140172958374,1
1771619756836122368,0.004478416405618191,1,0.01129062008112669,1,0.04798737168312073,1
1771619756846041856,-0.001309702871367335,1,0.0119954776018858,1,0.03360119089484215,1
1771619756855951616,-0.003036922309547663,1,0.001963063841685653,1,0.03182541579008102,1
1771619756865851392,0.006370801012963057,1,0.005844805855304003,1,0.01924663409590721,1
1771619756875741184,-0.003054910805076361,1,0.00707252835854888,1,0.03964046388864517,1
1771619756885857536,-0.003948628436774015,1,0.01926141791045666,1,0.05248964577913284,1
1771619756895964416,0.002858689753338695,1,0.006367917638272047,1,0.04888910800218582,1
1771619756906061056,0.007991856895387173,1,0.001064396230503917,1,0.04197144880890846,1
1771619756916147968,-0.008490852080285549,1,-0.004621816333383322,1,0.04174347594380379,1
1771619756926224896,-0.005293091293424368,1,-0.008396615274250507,1,0.03880483657121658,1
1771619756936291584,0.007582738064229488,1,0.006087263114750385,1,0.03871411830186844,1
1771619756946348544,-0.01124461367726326,1,0.01157009042799473,1,0.05162987485527992,1
1771619756956395264,-0.005808416288346052,1,0.005032325629144907,1,0.05344138294458389,1
1771619756966432768,0.004622415639460087,1,0.004515324719250202,1,0.05667352303862572,1
1771619756976460288,0.006365878507494926,1,0.008341304957866669,1,0.03243405744433403,1
1771619756986477824,-0.005888610612601042,1,-0.007508319802582264,1,0.03067323006689548,1
1771619756996485888,-0.005273212678730488,1,0.005101824179291725,1,0.04831688106060028,1
1771619757006483712,-0.0007900911150500178,1,0.0002821223170030862,1,0.04623476043343544,1
1771619757016471808,0.002847240306437016,1,0.01525751780718565,1,0.05341413989663124,1
1771619757026449920,0.002506954129785299,1,-0.001116223982535303,1,0.04710138589143753,1
1771619757036418048,-0.000918999663554132,1,0.002793684834614396,1,0.0276374090462923,1
1771619757046376192,0.002377368276938796,1,0.001595880254171789,1,0.02609099633991718,1
1771619757056324864,0.00597396632656455,1,0.009068743325769901,1,0.0480027012526989,1
1771619757066263808,-0.002061875769868493,1,0.01263198535889387,1,0.04951527342200279,1
1771619757076193024,0.001769811962731183,1,0.01639702916145325,1,0.0488964170217514,1
1771619757086112256,0.006967452354729176,1,0.006808273028582335,1,0.04826289415359497,1
1771619757096021504,-0.0005528232431970537,1,-0.0001204178624902852,1,0.03425317257642746,1
1771619757105921024,0.007364306598901749,1,0.001341860159300268,1,0.02490127459168434,1
1771619757115810560,0.001761210267432034,1,0.006346813403069973,1,0.03632943704724312,1
1771619757125926912,0.002156549599021673,1,0.004949333611875772,1,0.04617607221007347,1
1771619757136033024,0.002773833693936467,1,0.02101388946175575,1,0.04466033354401588,1
1771619757146129408,0.002843579277396202,1,0.01332321763038635,1,0.04709924757480621,1
1771619757156215808,0.003482265630736947,1,-0.009045630693435669,1,0.03993559628725052,1
1771619757166291968,-0.005915041547268629,1,0.003205393441021442,1,0.02407776564359665,1
1771619757176358400,-0.005621936172246933,1,0.007300445809960365,1,0.03510997444391251,1
1771619757186414848,-0.001674107043072581,1,0.01389831863343716,1,0.04619644582271576,1
1771619757196461824,0.001923491130582988,1,0.01996146328747272,1,0.04950234293937683,1
1771619757206498816,-0.002225266536697745,1,0.002451171400025487,1,0.05099935457110405,1
1771619757216525824,0.002279731910675764,1,-0.003880892647430301,1,0.03540569543838501,1
1771619757226542848,0.007842115126550198,1,-0.007432578597217798,1,0.03033265471458435,1
1771619757236550400,-0.008762815035879612,1,0.001292603323236108,1,0.04600217938423157,1
1771619757246547968,-0.006381852086633444,1,0.01150767412036657,1,0.05583964660763741,1
1771619757256535552,0.001013105968013406,1,0.01358741894364357,1,0.04919837415218353,1
1771619757266513152,-0.00411748792976141,1,0.007278421893715858,1,0.04655370488762856,1
1771619757276481024,-0.0003079409652855247,1,0.003102547023445368,1,0.03451383858919144,1
1771619757286438912,0.002800642047077417,1,0.0003974380088038743,1,0.03992253169417381,1
1771619757296387072,0.003298228839412332,1,0.01041159965097904,1,0.0272710882127285,1
1771619757306325248,0.005758850369602442,1,0.009306404739618301,1,0.04047554358839989,1
1771619757316253952,0.003803406842052937,1,0.0004243410658091307,1,0.05101299658417702,1
1771619757326172672,-0.001523795886896551,1,0.008559917099773884,1,0.05103874579071999,1
1771619757336082432,-0.003017304930835962,1,-0.003036131383851171,1,0.03994013369083405,1
1771619757345982464,-0.00361037440598011,1,0.005700392182916403,1,0.03123196400702,1
1771619757355872512,-0.00174428173340857,1,0.005086032208055258,1,0.03364730253815651,1
1771619757365986816,0.003110330551862717,1,0.02027863450348377,1,0.04978673905134201,1
1771619757376090880,-0.0009384530130773783,1,0.01763063110411167,1,0.04259922355413437,1
1771619757386185472,-0.006328441668301821,1,0.0005932950298301876,1,0.04564248770475388,1
1771619757396269824,-0.007228928618133068,1,0.0006638934137299657,1,0.03967714682221413,1
1771619757406344448,-0.008096078410744667,1,-0.002263596281409264,1,0.0409359373152256,1
1771619757416408832,-0.006241669412702322,1,0.007615324575453997,1,0.03908032551407814,1
1771619757426463488,-0.001781215891242027,1,0.0007992765167728066,1,0.04269420728087425,1
1771619757436508416,-0.001985013484954834,1,0.005333087872713804,1,0.04653613641858101,1
1771619757446543360,0.002050195587798953,1,0.007682861760258675,1,0.03510428592562675,1
1771619757456568064,-0.006152104120701551,1,0.0006104155327193439,1,0.04121759533882141,1
1771619757466583040,0.0003253825998399407,1,-0.00158943491987884,1,0.03368334472179413,1
1771619757476588032,0.001224159961566329,1,-0.007003492675721645,1,0.04269253835082054,1
1771619757486583296,-0.001998114166781306,1,0.007006874773651361,1,0.04297646507620811,1
1771619757496568832,0.002524289302527905,1,0.01741869747638702,1,0.05497866496443748,1
1771619757506544384,-0.003600446041673422,1,0.004576242063194513,1,0.04482806473970413,1
1771619757516510208,0.002261013956740499,1,0.003025490557774901,1,0.03366830945014954,1
1771619757526466048,0.00313462526537478,1,-0.00628202548250556,1,0.03036795929074287,1
1771619757536412160,-0.003069741884246469,1,0.006037886254489422,1,0.0412057489156723,1
1771619757546348288,0.0008422862156294286,1,0.01016712374985218,1,0.05073926225304604,1
1771619757556275200,0.006477160844951868,1,0.01971245929598808,1,0.04653333127498627,1
1771619757566192128,-0.002570710843428969,1,0.009929077699780464,1,0.04026227071881294,1
1771619757576099328,-0.01294540241360664,1,0.0006636521429754794,1,0.05203913152217865,1
1771619757585996544,-0.003990127705037594,1,-0.003151687327772379,1,0.04030581936240196,1
1771619757595884288,0.01299807336181402,1,-0.0005107842735014856,1,0.02101707085967064,1
1771619757605996544,-0.006493425462394953,1,0.01553643774241209,1,0.02650035917758942,1
1771619757616098816,0.008365441113710403,1,0.001568595413118601,1,0.05522510409355164,1
1771619757626190848,0.01252011302858591,1,0.005718553438782692,1,0.04112017899751663,1
1771619757636273152,0.01337486878037453,1,0.003662775503471494,1,0.04203427210450172,1
1771619757646345216,0.00429996196180582,1,0.004176045302301645,1,0.01928823068737984,1
1771619757656407296,-0.003084690775722265,1,-0.001555083901621401,1,0.04689215868711472,1
1771619757666459904,0.006147920619696379,1,0.01940644718706608,1,0.04354431852698326,1
1771619757676502272,-0.01324921008199453,1,0.01073962263762951,1,0.05589406192302704,1
1771619757686535168,0.001255395822227001,1,-2.003294321184512e-05,1,0.04501564428210258,1
1771619757696557824,0.001632651779800653,1,-0.0014266362413764,1,0.04980797320604324,1
1771619757706570752,0.0129684079438448,1,0.001257936470210552,1,0.04051090776920319,1
1771619757716573696,0.001491244765929878,1,0.02036925964057446,1,0.04053139314055443,1
1771619757726566656,-0.006508891470730305,1,0.01440829504281282,1,0.04895596578717232,1
1771619757736549888,0.002685742219910026,1,0.005970483645796776,1,0.04446379095315933,1
1771619757746523136,-0.01030063722282648,1,0.00246157986111939,1,0.04151840135455132,1
1771619757756486400,-0.007920120842754841,1,-0.01695621199905872,1,0.0391329787671566,1
1771619757766439936,-0.005141009110957384,1,0.01240817364305258,1,0.0462452620267868,1
1771619757776383232,-0.006664370186626911,1,0.009897634387016296,1,0.04328868538141251,1
1771619757786317056,0.006763349287211895,1,0.009094580076634884,1,0.04983178526163101,1
1771619757796241152,-0.005283085629343987,1,0.004003620706498623,1,0.03700350970029831,1
1771619757806155264,0.0004204356228001416,1,0.001037699403241277,1,0.03664911538362503,1
1771619757816059392,0.008743179030716419,1,0.001269415370188653,1,0.03361740708351135,1
1771619757825953536,0.001594295259565115,1,0.01978961378335953,1,0.03873123228549957,1
1771619757835838208,-0.004258082713931799,1,0.005272276233881712,1,0.03996605053544044,1
1771619757845948672,-0.009677560068666935,1,0.01127658225595951,1,0.03759070113301277,1
1771619757856049152,0.007229254115372896,1,0.0003414542297832668,1,0.06183920055627823,1
1771619757866139648,-0.006629722658544779,1,-0.001501026330515742,1,0.04420867562294006,1
1771619757876219904,0.0004957556957378983,1,-0.008787732571363449,1,0.02349776029586792,1
1771619757886290432,0.005065564531832933,1,-0.002465094439685345,1,0.03579288721084595,1
1771619757896351232,0.00482768751680851,1,0.02355170994997025,1,0.05188944190740585,1
1771619757906401792,-0.001178488717414439,1,0.0202130414545536,1,0.04564458876848221,1
1771619757916442624,-0.005709534045308828,1,0.006696648895740509,1,0.03099918551743031,1
1771619757926473472,-0.006907854694873095,1,0.01215973310172558,1,0.0307324193418026,1
1771619757936494848,0.00299300835467875,1,-0.0001103407921618782,1,0.04058584198355675,1
1771619757946506240,0.0004032785363961011,1,0.001720919273793697,1,0.04390848428010941,1
1771619757956507392,-0.005370181519538164,1,0.0105763403698802,1,0.05077862367033958,1
1771619757966499072,0.01443951483815908,1,0.01620048843324184,1,0.04167108982801437,1
1771619757976481536,-0.006838503759354353,1,0.007832913659512997,1,0.03247122094035149,1
1771619757986454016,-0.01341787818819284,1,-0.006968986243009567,1,0.0424354262650013,1
1771619757996416512,-0.006688355468213558,1,0.002252768259495497,1,0.03190545365214348,1
1771619758006369024,-0.005833609495311975,1,0.01072455942630768,1,0.03216836601495743,1
1771619758016312320,0.004764019511640072,1,0.01071479730308056,1,0.04656444489955902,1
1771619758026245376,0.001453753677196801,1,0.01154975406825542,1,0.03814879059791565,1
1771619758036168960,0.000678031297866255,1,0.006547597702592611,1,0.04628202319145203,1
1771619758046082560,0.0005078039248473942,1,0.01275669597089291,1,0.03424424678087234,1
1771619758055985920,-0.00427086791023612,1,0.002359866397455335,1,0.03156538307666779,1
1771619758065880064,0.003556451061740518,1,-0.002166919875890017,1,0.03427426517009735,1
1771619758075764224,0.0006396656390279531,1,0.01153341121971607,1,0.04624175652861595,1
1771619758085874176,0.005109065677970648,1,0.01087650936096907,1,0.05219127237796783,1
1771619758095974400,0.01328034978359938,1,-0.001263428712263703,1,0.04624342173337936,1
1771619758106064896,-0.003818022785708308,1,-0.004318336024880409,1,0.03458349779248238,1
1771619758116145152,-0.005031389184296131,1,0.002618129597976804,1,0.04176872596144676,1
1771619758126215680,0.008733286522328854,1,0.002335591474547982,1,0.02581854909658432,1
1771619758136275968,0.006775260902941227,1,0.001687992713414133,1,0.04265569150447845,1
1771619758146326528,-0.0003978234017267823,1,0.01363701745867729,1,0.04357152804732323,1
1771619758156367104,0.007635117508471012,1,-0.001242959056980908,1,0.03813599795103073,1
1771619758166398720,0.003768226131796837,1,0.007431536912918091,1,0.03902652487158775,1
1771619758176420096,0.007394179236143827,1,-0.007534794975072145,1,0.02913380041718483,1
1771619758186431744,0.005221620667725801,1,0.0250332485884428,1,0.02642083168029785,1
1771619758196433408,0.003836242714896798,1,0.0111280269920826,1,0.0417306050658226,1
1771619758206424832,0.003835375187918544,1,0.02311641164124012,1,0.04803529009222984,1
1771619758216406784,9.866661457635928e-06,1,-0.000994490459561348,1,0.04932157695293427,1
1771619758226378752,0.0008790792198851705,1,-0.001875178189948201,1,0.05019430071115494,1
1771619758236340736,-0.005182806868106127,1,0.00559505820274353,1,0.04060787707567215,1
1771619758246292736,-0.00189097598195076,1,0.01807213015854359,1,0.04297136887907982,1
1771619758256235008,0.007420117501169443,1,0.01811233349144459,1,0.04320932924747467,1
1771619758266167552,0.007423928938806057,1,0.01514040306210518,1,0.04380722343921661,1
1771619758276090624,0.006951093673706055,1,0.003788750618696213,1,0.03937361761927605,1
1771619758286003712,0.005968307144939899,1,-0.0004319625440984964,1,0.02738269232213497,1
1771619758295906816,-0.0008012462058104575,1,0.003566456492990255,1,0.04124249145388603,1
1771619758305800192,0.004268679767847061,1,0.009517611004412174,1,0.04356168955564499,1
1771619758315683584,0.001603554934263229,1,0.006188751664012671,1,0.04086112603545189,1
1771619758325792000,-0.003981801215559244,1,0.003221997991204262,1,0.05170712247490883,1
1771619758335890688,-0.001974748680368066,1,0.009058878757059574,1,0.05622000619769096,1
1771619758345979136,-0.001804873463697731,1,-0.0004643507127184421,1,0.02980710938572884,1
1771619758356057856,-0.004770650062710047,1,0.009036070667207241,1,0.04750321805477142,1
1771619758366126848,0.001585884136147797,1,0.001925143762491643,1,0.04174797236919403,1
1771619758376185856,-0.001315615023486316,1,0.005746493116021156,1,0.05231226235628128,1
1771619758386234624,-0.004995960276573896,1,0.0178875308483839,1,0.05075454711914062,1
1771619758396273664,-0.003195486729964614,1,0.006796122528612614,1,0.0382140576839447,1
1771619758406302464,0.004240783397108316,1,-0.007975272834300995,1,0.03670239448547363,1
1771619758416321792,-0.003463628469035029,1,-0.002381409052759409,1,0.03792824223637581,1
1771619758426331136,-0.001579037867486477,1,0.01290759071707726,1,0.0522795096039772,1
1771619758436330240,-0.00610347930341959,1,0.02090238407254219,1,0.05377786606550217,1
1771619758446319616,-0.001128872507251799,1,0.006516249384731054,1,0.04595742002129555,1
1771619758456299776,0.005947038531303406,1,-0.001222626771777868,1,0.04084355011582375,1
1771619758466270464,0.001190040726214647,1,-0.003556340234354138,1,0.03187806531786919,1
1771619758476231168,-0.003612447530031204,1,0.004684837069362402,1,0.03700250759720802,1
1771619758486181888,-3.406243922654539e-05,1,0.01988679356873035,1,0.04262953996658325,1
1771619758496122624,0.003229341469705105,1,0.003827542765066028,1,0.04503685608506203,1
1771619758506053888,-0.001951194950379431,1,-0.005146730691194534,1,0.04002129286527634,1
1771619758515975424,0.0001374670246150345,1,-0.009717056527733803,1,0.05259126797318459,1
1771619758525887232,0.0001802460465114564,1,-0.002953364280983806,1,0.01537458319216967,1
1771619758535789056,-0.00281149335205555,1,0.01371277403086424,1,0.04384009540081024,1
1771619758545681152,-0.0009674746543169022,1,-0.00775378942489624,1,0.0498671680688858,1
1771619758555563520,0.008380550891160965,1,0.008339148014783859,1,0.05879662185907364,1
1771619758565670656,-0.001237164135091007,1,0.02800719812512398,1,0.06180582940578461,1
1771619758575768320,-0.004889177624136209,1,-0.01469540596008301,1,0.04899471253156662,1
1771619758585855744,-0.004664659965783358,1,-0.03140280023217201,1,0.02954221144318581,1
1771619758595933184,0.004964712075889111,1,-0.005774175748229027,1,0.0207708440721035,1
1771619758606000896,-0.01260592229664326,1,0.0252127293497324,1,0.05078800767660141,1
1771619758616058624,0.002630656817927957,1,0.01717955246567726,1,0.05044838786125183,1
1771619758626106368,-0.001492510549724102,1,0.0109655074775219,1,0.04413777962327003,1
1771619758636144128,0.004065411165356636,1,-0.002483300166204572,1,0.02440610714256763,1
1771619758646171648,-0.005465690512210131,1,0.004926830064505339,1,0.04236868023872375,1
1771619758656189184,0.003152876161038876,1,-0.0004665240121539682,1,0.0312337651848793,1
1771619758666196992,0.004616600461304188,1,0.01033198926597834,1,0.05700547248125076,1
1771619758676194560,0.005807898472994566,1,0.01254473533481359,1,0.04260607063770294,1
1771619758686182656,-0.01178285852074623,1,0.01402743067592382,1,0.04960304498672485,1
1771619758696160768,0.0009748392621986568,1,0.01992174796760082,1,0.03689347952604294,1
1771619758706128640,-0.008242057636380196,1,-0.005636027548462152,1,0.04029640927910805,1
1771619758716086784,0.0009824314620345831,1,-0.01181939803063869,1,0.02497562021017075,1
1771619758726034688,-0.005395732820034027,1,0.004427445121109486,1,0.0438811220228672,1
1771619758735973120,-0.001428472460247576,1,0.01508829742670059,1,0.05341232940554619,1
1771619758745902336,-0.008315985091030598,1,0.01270634587854147,1,0.05198006704449654,1
1771619758755821568,-0.004506153985857964,1,0.01538406778126955,1,0.03250467777252197,1
1771619758765730816,-0.006825088988989592,1,-0.01137265656143427,1,0.04123174771666527,1
1771619758775630080,0.001244361861608922,1,-0.015169283375144,1,0.02982201613485813,1
1771619758785519872,-0.00318225403316319,1,0.0009225393296219409,1,0.03672172501683235,1
1771619758795636992,0.004283552058041096,1,0.01253531035035849,1,0.04116130247712135,1
1771619758805744128,0.003819751087576151,1,0.01736058294773102,1,0.06450288742780685,1
1771619758815841024,-0.00494332704693079,1,0.01343217771500349,1,0.03965872526168823,1
1771619758825928448,0.002543666632845998,1,-0.001833919435739517,1,0.04058032482862473,1
1771619758836005888,0.005306973122060299,1,-0.0126257948577404,1,0.02289866469800472,1
1771619758846073088,-0.00125086575280875,1,0.001988006988540292,1,0.03730958327651024,1
1771619758856130560,0.009995602071285248,1,0.02211722172796726,1,0.05849115550518036,1
1771619758866177792,-0.0005298217292875051,1,0.025591641664505,1,0.05645757913589478,1
1771619758876215552,-0.0002611381933093071,1,-0.002533290535211563,1,0.04357128962874413,1
1771619758886243328,0.004633207805454731,1,-0.02241440303623676,1,0.02529192715883255,1
1771619758896261632,0.004387076944112778,1,-0.009006696753203869,1,0.02017413638532162,1
1771619758906269696,0.003009370528161526,1,0.01193333882838488,1,0.03633778914809227,1
1771619758916267776,0.0009770948672667146,1,0.006044566631317139,1,0.05133823677897453,1
1771619758926256384,0.007795919198542833,1,0.02093879505991936,1,0.04471288993954659,1
1771619758936235008,-0.01183225959539413,1,0.003704888047650456,1,0.05924447998404503,1
1771619758946203648,-0.0003630745341069996,1,-0.00534139946103096,1,0.02769087255001068,1
1771619758956162304,0.004936594516038895,1,0.0003848073829431087,1,0.01684683375060558,1
1771619758966111488,-0.004116708412766457,1,0.0093903923407197,1,0.0424107238650322,1
1771619758976050944,-0.004368666093796492,1,0.01420175936073065,1,0.04179362207651138,1
1771619758985980416,0.002807454438880086,1,0.01549709308892488,1,0.04325185343623161,1
1771619758995899904,-0.00301216309890151,1,0.008589275181293488,1,0.03817872703075409,1
1771619759005809664,-0.007367458660155535,1,-0.002703361213207245,1,0.03639630973339081,1
1771619759015709440,0.002788003999739885,1,-0.003288486506789923,1,0.03189719468355179,1
1771619759025599744,0.001864513847976923,1,0.005871071945875883,1,0.0361306332051754,1
1771619759035716608,0.001877203001640737,1,0.01400752924382687,1,0.04505988582968712,1
1771619759045823488,0.001535293995402753,1,0.01287406776100397,1,0.04564188793301582,1
1771619759055920384,0.003088345052674413,1,0.00754068698734045,1,0.04957343265414238,1
1771619759066007808,-0.006385704502463341,1,-0.002996666356921196,1,0.03253715857863426,1
1771619759076084992,-0.0003376525419298559,1,-0.01525669824331999,1,0.03279460966587067,1
1771619759086152192,-0.00140085956081748,1,0.002923879306763411,1,0.04450692236423492,1
1771619759096209408,0.007618817500770092,1,0.01566417329013348,1,0.04531404003500938,1
1771619759106256384,-0.002867752686142921,1,0.01480003260076046,1,0.05528126284480095,1
1771619759116293632,-0.001086537609808147,1,0.01025318261235952,1,0.04837974160909653,1
1771619759126320896,0.001163938781246543,1,-0.007034740876406431,1,0.036386389285326,1
1771619759136339200,-0.004163668025285006,1,-0.005055377725511789,1,0.02471485547721386,1
1771619759146347776,0.003069595666602254,1,0.01258205063641071,1,0.03486088290810585,1
1771619759156346368,0.0008450367022305727,1,0.0162007175385952,1,0.05226200446486473,1
1771619759166334464,0.00200733938254416,1,0.02423321083188057,1,0.05105047672986984,1
1771619759176312832,-0.001582353841513395,1,-0.0001782126928446814,1,0.04180938750505447,1
1771619759186281216,0.002513352083042264,1,0.0004602586850523949,1,0.04264596849679947,1
1771619759196240384,-0.007065434940159321,1,0.0004445611266419291,1,0.03312303125858307,1
1771619759206189312,0.005224119871854782,1,0.004870041739195585,1,0.04144349321722984,1
1771619759216128512,0.001290458138100803,1,0.01494179200381041,1,0.0462334156036377,1
1771619759226057728,0.009688778780400753,1,0.01592511869966984,1,0.05399434268474579,1
1771619759235976960,-0.006576758343726397,1,0.003425993723794818,1,0.04123134911060333,1
1771619759245886720,0.003682668786495924,1,0.007259114645421505,1,0.03696571663022041,1
1771619759255787008,-0.003314200090244412,1,-0.004774717148393393,1,0.02503421530127525,1
1771619759265677056,-0.0005029203020967543,1,0.009308923967182636,1,0.04241181164979935,1
1771619759275793664,0.009068842045962811,1,0.0203328263014555,1,0.04770297557115555,1
1771619759285900544,-0.004029887262731791,1,0.002413826994597912,1,0.05173384770750999,1
1771619759295997184,0.003876627888530493,1,0.006054401397705078,1,0.0480700246989727,1
1771619759306084096,-0.000911649432964623,1,-0.01094826683402061,1,0.04063071683049202,1
1771619759316161280,0.0002416285715298727,1,0.000707008468452841,1,0.0277261845767498,1
1771619759326228224,0.0008527887985110283,1,0.001353621832095087,1,0.03428345173597336,1
1771619759336285184,-0.007458530366420746,1,0.01758171059191227,1,0.05320514366030693,1
1771619759346332160,-0.003824968822300434,1,0.01208789926022291,1,0.04483728110790253,1
1771619759356369408,-0.004802647978067398,1,0.002645226893946528,1,0.02802785113453865,1
1771619759366396928,-0.007336241658776999,1,-0.004986994899809361,1,0.03738642483949661,1
1771619759376414464,-0.001526309875771403,1,0.0006426754407584667,1,0.02413757890462875,1
1771619759386422528,0.008276864886283875,1,0.01261353492736816,1,0.04687350615859032,1
1771619759396420608,0.001125337323173881,1,0.01974159479141235,1,0.05615140497684479,1
1771619759406408704,-0.003659727750346065,1,0.01972052827477455,1,0.04661282524466515,1
1771619759416386816,-6.860195571789518e-05,1,0.004587636329233646,1,0.04239895567297935,1
1771619759426355456,-0.004036688711494207,1,-0.003859231015667319,1,0.03316111490130424,1
1771619759436314112,0.002907319227233529,1,0.002112340647727251,1,0.03997422382235527,1
1771619759446262528,0.00678644934669137,1,0.00393239688128233,1,0.04087606072425842,1
1771619759456201472,0.006788118276745081,1,0.01527154073119164,1,0.05316534265875816,1
1771619759466130688,0.05160662531852722,1,0.1515547633171082,1,-0.1235584542155266,1
1771619759476049920,-0.04715501517057419,1,0.003253460628911853,1,0.1451668441295624,1
1771619759485959424,0.06772845238447189,1,-0.06238236278295517,1,-0.1352866590023041,1
1771619759495859200,-0.03369436040520668,1,0.05005903169512749,1,0.2338737696409225,1
1771619759505748992,-0.0006840646965429187,1,0.01271842978894711,1,0.03308998048305511,1
1771619759515865344,-0.008927519433200359,1,-0.03936866670846939,1,0.01585890911519527,1
1771619759525971712,0.00575717631727457,1,-0.02399667911231518,1,-0.01578733138740063,1
1771619759536068352,-0.01204935368150473,1,0.03842286765575409,1,0.0651971697807312,1
1771619759546155008,-0.004667859058827162,1,0.02505633793771267,1,0.06883133947849274,1
1771619759556231424,0.0151729192584753,1,0.01696880720555782,1,0.02284934557974339,1
1771619759566298112,-0.003924241755157709,1,-0.0128287011757493,1,0.0271687489002943,1
1771619759576354560,0.01772901229560375,1,0.02765998616814613,1,0.05398614704608917,1
1771619759586401536,-0.008763257414102554,1,0.004426355473697186,1,0.06976130604743958,1
1771619759596438784,-0.00391871016472578,1,0.003380892798304558,1,0.04122672602534294,1
1771619759606465792,0.009630201384425163,1,-0.002155834110453725,1,0.02468722872436047,1
1771619759616483584,-0.005006670486181974,1,-0.008111141622066498,1,0.03941914439201355,1
1771619759626491648,-0.00984108354896307,1,0.0142235429957509,1,0.03403810784220695,1
1771619759636489728,0.002190371975302696,1,0.008626583032310009,1,0.03641986846923828,1
1771619759646477824,-0.00782017782330513,1,0.01263914909213781,1,0.05922351032495499,1
1771619759656455936,0.003522323211655021,1,-0.00029413728043437,1,0.04301265627145767,1
1771619759666424576,0.005827124230563641,1,0.00427683861926198,1,0.03993824124336243,1
1771619759676383232,0.002204824704676867,1,-0.0009287676657550037,1,0.03014287911355495,1
1771619759686331904,0.01659289747476578,1,0.007731473073363304,1,0.03366885706782341,1
1771619759696270592,0.003211017465218902,1,0.01431706827133894,1,0.04236846789717674,1
1771619759706199552,-0.003964174073189497,1,0.00713922968134284,1,0.04299796000123024,1
1771619759716118784,0.007132346741855145,1,0.003123324364423752,1,0.03877022117376328,1
1771619759726028544,0.002075061202049255,1,-0.006650957278907299,1,0.04064412787556648,1
1771619759735928320,-0.00612032413482666,1,0.01271358225494623,1,0.02653931081295013,1
1771619759745818112,0.002957433694973588,1,0.00502314604818821,1,0.04004818201065063,1
1771619759755932416,-0.008340016938745975,1,0.01312768924981356,1,0.04694920033216476,1
1771619759766036736,-0.0002758448536042124,1,0.007886378094553947,1,0.05410468950867653,1
1771619759776131328,0.0002219946472905576,1,-0.008550167083740234,1,0.04150994122028351,1
1771619759786215936,-0.01170647423714399,1,-0.003190050600096583,1,0.03497617319226265,1
1771619759796290304,-0.0006796992383897305,1,0.003033312503248453,1,0.03285045176744461,1
1771619759806354944,0.003257982665672898,1,0.01008546724915504,1,0.03760789707303047,1
1771619759816409344,-0.002070734975859523,1,-0.0006027368945069611,1,0.03792373836040497,1
1771619759826454016,-0.0005060058902017772,1,0.01012681983411312,1,0.05861038342118263,1
1771619759836489216,-0.00291147967800498,1,0.01495929900556803,1,0.04666371643543243,1
1771619759846514432,-0.005120072979480028,1,-0.003290277207270265,1,0.02837204374372959,1
1771619759856529920,-0.004433800932019949,1,0.007182841654866934,1,0.03557037189602852,1
1771619759866535168,0.0006003726157359779,1,0.002960088197141886,1,0.03491663560271263,1
1771619759876530688,-0.004994365386664867,1,0.01155282277613878,1,0.05445262417197227,1
1771619759886516224,-0.0029119907412678,1,0.01573429815471172,1,0.05290794745087624,1
1771619759896491776,0.002222613664343953,1,0.002379937563091516,1,0.05290090665221214,1
1771619759906457856,0.0008232598192989826,1,0.003146768780425191,1,0.03462262451648712,1
1771619759916413952,0.002941886428743601,1,-0.0007129141595214605,1,0.03398942947387695,1
1771619759926359808,0.00296984426677227,1,0.01368805859237909,1,0.04178353771567345,1
1771619759936296448,0.00117951154243201,1,0.003475713077932596,1,0.04748522862792015,1
1771619759946223104,0.006798545364290476,1,0.007793028373271227,1,0.04445985704660416,1
1771619759956139776,-0.0009941199095919728,1,0.000641696504317224,1,0.05321542546153069,1
1771619759966046720,0.001948760822415352,1,-0.006913515273481607,1,0.03435272723436356,1
1771619759975943936,-0.008319742977619171,1,-0.00635460251942277,1,0.03887328878045082,1
1771619759985831424,0.004254970233887434,1,0.006464193575084209,1,0.03522378578782082,1
1771619759995945472,0.002187990816310048,1,0.009410583414137363,1,0.04628769680857658,1
1771619760006049536,0.009641009382903576,1,0.008281638845801353,1,0.03905703127384186,1
1771619760016143872,-0.002888945862650871,1,0.01069236546754837,1,0.03463499620556831,1
1771619760026227968,-0.003416000865399837,1,-0.001493619754910469,1,0.04391968250274658,1
1771619760036302336,0.003077856730669737,1,-0.004279873333871365,1,0.02799720875918865,1
1771619760046366464,-0.005994616076350212,1,0.007434668950736523,1,0.05056242644786835,1
1771619760056421120,0.0002861216198652983,1,0.006610137410461903,1,0.05022043734788895,1
1771619760066465792,-0.0005700616748072207,1,-0.003263265592977405,1,0.0460265651345253,1
1771619760076500224,-0.0006342567503452301,1,0.006428995635360479,1,0.04183945059776306,1
1771619760086524928,-0.005409265868365765,1,-0.002242482034489512,1,0.04454652220010757,1
1771619760096539392,-0.002909669186919928,1,0.01332491170614958,1,0.05110567808151245,1
1771619760106544384,-0.00700348848477006,1,0.0141789373010397,1,0.03911463916301727,1
1771619760116540160,-0.002533478429540992,1,0.00679569598287344,1,0.03311502560973167,1
1771619760126525952,0.006028458010405302,1,-0.003345234785228968,1,0.0534636452794075,1
1771619760136501760,0.007715852465480566,1,-0.001570637221448123,1,0.03336536884307861,1
1771619760146467584,-0.004252959042787552,1,0.01122183818370104,1,0.03072845004498959,1
1771619760156423936,0.002026801696047187,1,0.01271277852356434,1,0.03727707639336586,1
1771619760166370304,0.009581451304256916,1,0.007059022318571806,1,0.04632118716835976,1
1771619760176306688,-0.0006139323231764138,1,0.006135285366326571,1,0.05196813121438026,1
1771619760186233088,0.001094107166863978,1,0.001623608986847103,1,0.04120442271232605,1
1771619760196150016,-0.001763048581779003,1,-0.006071473471820354,1,0.03044397197663784,1
1771619760206057216,0.003919765818864107,1,-0.0006788655882701278,1,0.03370514884591103,1
1771619760215954432,0.001537100528366864,1,0.006185009609907866,1,0.03906459733843803,1
1771619760225841920,-0.001192849595099688,1,0.01545202825218439,1,0.03698630258440971,1
1771619760235954432,-0.001717995619401336,1,0.009882504120469093,1,0.04662644490599632,1
1771619760246056704,-0.003131832694634795,1,0.00689590210095048,1,0.04902371391654015,1
1771619760256149248,-0.002559897257015109,1,-0.002037305617704988,1,0.05260771885514259,1
1771619760266231552,0.002972406800836325,1,0.003545951331034303,1,0.03488831967115402,1
1771619760276304384,0.003578473581001163,1,0.01697053946554661,1,0.02826590836048126,1
1771619760286366976,-0.008335959166288376,1,0.01007906533777714,1,0.04125313088297844,1
1771619760296419584,0.003701832378283143,1,0.00240561063401401,1,0.04749953746795654,1
1771619760306462464,-0.0005562113365158439,1,0.006799130234867334,1,0.03010447509586811,1
1771619760316495360,-0.000749574217479676,1,0.004771225154399872,1,0.04240552335977554,1
1771619760326518272,-0.0004637221281882375,1,0.003082023002207279,1,0.04456840083003044,1
1771619760336530944,0.003751591313630342,1,0.0125437555834651,1,0.03428551182150841,1
1771619760346533632,-0.004281794652342796,1,0.009013744071125984,1,0.03944750875234604,1
1771619760356526848,-0.003129825228825212,1,0.0137915937229991,1,0.03943048790097237,1
1771619760366510080,-0.007607684005051851,1,0.003072119317948818,1,0.04786109924316406,1
1771619760376483328,0.003271406050771475,1,0.0009363783756271005,1,0.04269981756806374,1
1771619760386447616,-0.0009505217894911766,1,0.003621332347393036,1,0.03613241016864777,1
1771619760396402432,0.0009087324142456055,1,0.009077567607164383,1,0.03698933869600296,1
1771619760406347264,-0.01045769825577736,1,0.01739428006112576,1,0.04038815945386887,1
1771619760416282112,-0.005895398091524839,1,0.01750350371003151,1,0.05802376195788383,1
1771619760426207232,-0.006251026410609484,1,0.001318935654126108,1,0.04754716157913208,1
1771619760436122368,-0.00257476419210434,1,-0.006755223963409662,1,0.03888491168618202,1
1771619760446028032,0.002973728580400348,1,-0.004141013137996197,1,0.02592372335493565,1
1771619760455923968,-0.0001937943161465228,1,0.008535237982869148,1,0.046299759298563,1
1771619760465809920,-0.007373359519988298,1,0.01289304625242949,1,0.04604411870241165,1
1771619760475920128,0.005889817140996456,1,0.005944847594946623,1,0.04990575090050697,1
1771619760486020608,-0.005638979375362396,1,0.003528799396008253,1,0.0328531414270401,1
1771619760496110848,-0.002280987799167633,1,0.005973521620035172,1,0.0349518209695816,1
1771619760506191616,0.006156805902719498,1,0.00545201450586319,1,0.04478971660137177,1
1771619760516262400,0.004392845090478659,1,0.01830637454986572,1,0.03878875821828842,1
1771619760526322944,-0.001001354772597551,1,0.009622358717024326,1,0.04331331327557564,1
1771619760536373760,0.001689865835942328,1,-0.002657930599525571,1,0.04542895033955574,1
1771619760546414592,-0.003095656866207719,1,0.007079845760017633,1,0.04151538014411926,1
1771619760556445440,0.006898372899740934,1,0.01371992658823729,1,0.02618391998112202,1
1771619760566466560,-0.01131152361631393,1,-7.498945342376828e-05,1,0.02780594490468502,1
1771619760576477696,0.0001653790968703106,1,0.009759267792105675,1,0.05052115395665169,1
1771619760586478848,-0.007056056521832943,1,0.007642126642167568,1,0.03822778537869453,1
1771619760596470272,0.003782984800636768,1,0.003456367878243327,1,0.04003353416919708,1
1771619760606452224,0.001333113061264157,1,0.004674747586250305,1,0.03610650822520256,1
1771619760616424192,0.002848719945177436,1,-0.003990620840340853,1,0.02864115871489048,1
1771619760626386688,-0.007817663252353668,1,-0.00690357806161046,1,0.03975173085927963,1
1771619760636339200,-0.003364955307915807,1,0.01363631710410118,1,0.03312685340642929,1
1771619760646281728,0.000571762619074434,1,0.02133641950786114,1,0.04090584442019463,1
1771619760656214272,-0.006340209394693375,1,0.01362430118024349,1,0.0394725576043129,1
1771619760666137600,-0.01144992467015982,1,0.0009543003980070353,1,0.03529209643602371,1
1771619760676050688,-0.006363230757415295,1,-0.0008027504081837833,1,0.03732961416244507,1
1771619760685954304,-0.005189411342144012,1,0.003707578405737877,1,0.0244540274143219,1
1771619760695847936,-0.003532106289640069,1,0.01572732254862785,1,0.04992596432566643,1
1771619760705731584,-0.004469451960176229,1,0.01515772379934788,1,0.04357321187853813,1
1771619760715839744,2.43372796830954e-05,1,0.009192356839776039,1,0.03851097077131271,1
1771619760725938432,0.0006346351583488286,1,0.008649248629808426,1,0.03912822529673576,1
1771619760736027136,0.00630148546770215,1,-0.005154456477612257,1,0.0376167930662632,1
1771619760746105600,0.001754025463014841,1,0.00984833762049675,1,0.05621310696005821,1
1771619760756174592,0.01124545838683844,1,0.009809862822294235,1,0.04775486141443253,1
1771619760766233600,-0.002427824540063739,1,0.0148266265168786,1,0.04749622195959091,1
1771619760776282624,0.004316060803830624,1,-0.0009201898938044906,1,0.03196733072400093,1
1771619760786321664,-0.005419690627604723,1,0.0005894610076211393,1,0.06257442384958267,1
1771619760796350976,-0.002861047862097621,1,0.0008099756669253111,1,0.03733078762888908,1
1771619760806370048,-0.00626074243336916,1,0.000713455316144973,1,0.02325985208153725,1
1771619760816379648,0.002921792445704341,1,0.01057777088135481,1,0.05052417516708374,1
1771619760826379264,0.007684156764298677,1,0.02188045904040337,1,0.04382770135998726,1
1771619760836368640,0.0105058690533042,1,-0.002838711021468043,1,0.06037824600934982,1
1771619760846348544,0.005053723696619272,1,0.002819321118295193,1,0.04060224071145058,1
1771619760856318464,-0.004625726956874132,1,-0.00346671580336988,1,0.02655288018286228,1
1771619760866278400,-0.003693036735057831,1,-0.0002324834640603513,1,0.02776074409484863,1
1771619760876229376,-0.006310339085757732,1,0.008665913715958595,1,0.04156097769737244,1
1771619760886170880,-0.01071612257510424,1,0.01132344175130129,1,0.05594974383711815,1
1771619760896102400,-0.01148498430848122,1,0.01101184170693159,1,0.04578725248575211,1
1771619760906024192,-0.0002267113741254434,1,0.005008524749428034,1,0.02772114612162113,1
1771619760915936256,0.01150604989379644,1,9.185815542878117e-06,1,0.04446173086762428,1
1771619760925838336,0.00300292856991291,1,0.005344058852642775,1,0.04633371904492378,1
1771619760935730432,-0.004780741408467293,1,0.003954328596591949,1,0.04840308427810669,1
1771619760945613312,0.007715939078480005,1,0.007761361077427864,1,0.03579651936888695,1
1771619760955720448,-0.003940883092582226,1,0.0002787958947010338,1,0.04812363162636757,1
1771619760965818112,-0.00133915466722101,1,-0.007777408231049776,1,0.02983302436769009,1
1771619760975905792,-0.00251823291182518,1,-0.02113180235028267,1,0.02956066653132439,1
1771619760985983232,-0.0009717700304463506,1,-0.001361531554721296,1,0.03641534596681595,1
1771619760996051200,0.0144611457362771,1,0.02459960244596004,1,0.0669308602809906,1
