Time,inertial-6286.188861:estLinearAccelX,inertial-6286.188861:estLinearAccelX:valid,inertial-6286.188861:estLinearAccelY,inertial-6286.188861:estLinearAccelY:valid,inertial-6286.188861:estLinearAccelZ,inertial-6286.188861:estLinearAccelZ:valid,inertial-6286.188861:estAngularRateX,inertial-6286.188861:estAngularRateX:valid,inertial-6286.188861:estAngularRateY,inertial-6286.188861:estAngularRateY:valid,inertial-6286.188861:estAngularRateZ,inertial-6286.188861:estAngularRateZ:valid
1772660159585605632,0.01798728108406067,1,0.002815454499796033,1,0.04129835590720177,1,0.0007169113378040493,1,3.022441887878813e-05,1,4.227801764500327e-05,1
1772660159595965952,0.01803368516266346,1,0.002965576713904738,1,0.03903976082801819,1,0.0007339088479056954,1,-0.0001748591748764738,1,-7.328342326218262e-05,1
1772660159606227456,0.01885422132909298,1,0.001416080864146352,1,0.04124931991100311,1,0.0009305243729613721,1,7.012484275037423e-06,1,-0.0001278446288779378,1
1772660159616389888,0.01937342807650566,1,-1.226043968927115e-05,1,0.03820180892944336,1,0.0009673479362390935,1,-0.0001902047806652263,1,-0.0001566617283970118,1
1772660159626455040,0.01872276142239571,1,0.003137052990496159,1,0.04048813134431839,1,0.001069830264896154,1,-0.0003405566967558116,1,-0.0001597058726474643,1
1772660159636423424,0.01944220624864101,1,0.001088985241949558,1,0.0443820133805275,1,0.001215348951518536,1,-0.0001541062811156735,1,-3.302334516774863e-05,1
1772660159646296064,0.01946786604821682,1,0.0005424452247098088,1,0.04090393334627151,1,0.00104268139693886,1,-0.0003538590390235186,1,-3.476379424682818e-05,1
1772660159656073216,0.02018008939921856,1,-0.002979581011459231,1,0.04244550690054893,1,0.0008683553896844387,1,7.096694025676697e-05,1,0.0001698345004115254,1
1772660159665755648,0.02359931543469429,1,0.003275388851761818,1,0.04629398509860039,1,0.0007450670818798244,1,-0.0001920097856782377,1,1.377563603455201e-05,1
1772660159675344896,0.02093471772968769,1,0.0027358194347471,1,0.05304634943604469,1,0.000987957464531064,1,-0.0004812484548892826,1,9.869359200820327e-05,1
1772660159684840704,0.02048150077462196,1,-0.000251409481279552,1,0.03373675420880318,1,0.000258990767179057,1,-0.0002731484710238874,1,-8.723463542992249e-05,1
1772660159694247168,0.01712659001350403,1,0.0006005998584441841,1,0.03704620897769928,1,2.078068791888654e-05,1,-8.597604755777866e-05,1,3.334978828206658e-06,1
1772660159703564288,0.01625983044505119,1,0.001039469498209655,1,0.03570109605789185,1,-0.0007414828287437558,1,-6.135155854281038e-05,1,0.0001127576178987511,1
1772660159714316288,0.01536096166819334,1,-0.0005185349727980793,1,0.04775751009583473,1,-0.0005822480306960642,1,1.874502595455851e-05,1,-2.057744677586015e-05,1
1772660159724964864,0.01825756952166557,1,0.001823899336159229,1,0.04029015824198723,1,-0.0007873845170252025,1,-0.0001642071583773941,1,-3.557834133971483e-06,1
1772660159735509504,0.02087874338030815,1,0.003238156205043197,1,0.04458262026309967,1,-0.0003623692318797112,1,-0.0002685471845325083,1,1.416648956364952e-05,1
1772660159745952256,0.0225036833435297,1,0.002300742547959089,1,0.04468178004026413,1,-0.0001972509489860386,1,0.0001919695932883769,1,0.0001852235873229802,1
1772660159756297216,0.02231672592461109,1,0.002464597811922431,1,0.04022249206900597,1,-0.0002153106033802032,1,0.0002536503016017377,1,0.0001561191456858069,1
1772660159766541824,0.02046925760805607,1,0.003451377153396606,1,0.04170291498303413,1,0.0001729680225253105,1,-4.243589137331583e-05,1,0.000206700264243409,1
1772660159776685056,0.0204287264496088,1,0.003628492821007967,1,0.03851107507944107,1,0.0002781285729724914,1,-0.0003152069693896919,1,0.0001319226867053658,1
1772660159786732032,0.02064136415719986,1,0.002534046769142151,1,0.04453299194574356,1,0.0004957547062076628,1,-0.0003197217301931232,1,0.0001543817052152008,1
1772660159796679168,0.02045481838285923,1,0.002796101616695523,1,0.04147139191627502,1,0.0002236945147160441,1,-6.117274460848421e-05,1,0.0001091084704967216,1
1772660159806529792,0.01979538984596729,1,0.004345948807895184,1,0.04336480423808098,1,0.0001807438093237579,1,-0.0002743237710092217,1,1.403806982125388e-05,1
1772660159816284416,0.0191588532179594,1,0.002500635106116533,1,0.04190441966056824,1,0.0004230288323014975,1,-6.812815263401717e-05,1,-4.559848821372725e-05,1
1772660159825945088,0.02090871892869473,1,0.00199972977861762,1,0.03844437375664711,1,0.0006775682559236884,1,0.0002725614467635751,1,-0.0002681954938452691,1
1772660159835510016,0.02098322659730911,1,0.0009346505394205451,1,0.04058023169636726,1,0.0002785419346764684,1,0.0001842766941990703,1,-0.0002533919760026038,1
1772660159844981760,0.02205904945731163,1,0.0002860057284124196,1,0.03944513946771622,1,0.0002728621184360236,1,6.408412446035072e-06,1,-0.0001595033972989768,1
1772660159854360320,0.02037797495722771,1,0.002266864059492946,1,0.04393451288342476,1,6.205471436260268e-05,1,-0.0001904518576338887,1,-5.570651046582498e-05,1
1772660159863800320,0.01768217422068119,1,0.001629846985451877,1,0.0452968068420887,1,-6.321729597402737e-05,1,-0.0001765566121321172,1,-3.848558117169887e-05,1
1772660159874519808,0.0198304932564497,1,-0.0002071601047646254,1,0.04398699477314949,1,-0.0001388383243465796,1,-0.000285294110653922,1,-1.314418113906868e-05,1
1772660159885134848,0.01789841055870056,1,0.0004360072198323905,1,0.0408276803791523,1,8.442303806077689e-05,1,-0.0003614063607528806,1,-4.45415498688817e-05,1
1772660159895647744,0.01755884848535061,1,0.0007385621429421008,1,0.04359574988484383,1,-0.0002421136596240103,1,-4.452638677321374e-06,1,-0.0001844520447775722,1
1772660159906058240,0.01883250661194324,1,0.00127970171160996,1,0.04328677803277969,1,-0.00044593884376809,1,1.297738344874233e-05,1,-4.342963438830338e-05,1
1772660159916367360,0.01795443519949913,1,0.00282953935675323,1,0.04189480841159821,1,-0.0006574519793502986,1,0.0001259112032130361,1,0.0001219197583850473,1
1772660159926575104,0.02087348513305187,1,0.0006488033104687929,1,0.04318622127175331,1,-0.0006973361596465111,1,-2.821037560352124e-05,1,0.0001643515279283747,1
1772660159936681984,0.02061827667057514,1,0.0004986971616744995,1,0.04098420962691307,1,-0.0007700148853473365,1,0.0003991301346104592,1,-0.0002564546302892268,1
1772660159946688512,0.02012944221496582,1,0.001786277862265706,1,0.04231397435069084,1,-0.00070074392715469,1,0.000468185287900269,1,4.159834497841075e-05,1
1772660159956597760,0.01980848982930183,1,0.001708147930912673,1,0.03941986709833145,1,-0.0005412698374129832,1,0.0003243297978769988,1,0.0002448084414936602,1
1772660159966408704,0.01674834825098515,1,0.003078677458688617,1,0.04138526320457458,1,-0.0003691011515911669,1,0.0001436487364117056,1,-1.794678610167466e-05,1
1772660159976124160,0.01681485585868359,1,0.003355558961629868,1,0.04280257225036621,1,-0.0006392194773070514,1,1.609073115105275e-05,1,4.868372343480587e-06,1
1772660159985743360,0.01516024768352509,1,0.001779296901077032,1,0.04243325814604759,1,-0.0004376923607196659,1,0.000190148304682225,1,0.00016202220285777,1
1772660159995266560,0.01725477911531925,1,0.001653242856264114,1,0.04360787943005562,1,-0.0004921703948639333,1,0.0002089583722408861,1,0.0003028707287739962,1
1772660160004696064,0.01679393276572227,1,0.001973840873688459,1,0.04214237630367279,1,-0.0005035989452153444,1,8.340280328411609e-05,1,0.0001957765052793548,1
1772660160014033152,0.01909388415515423,1,0.0008494386565871537,1,0.04254269972443581,1,-0.0007162780966609716,1,7.720987014181446e-06,1,0.0001948462449945509,1
1772660160023896832,0.02062134258449078,1,0.0008084909059107304,1,0.03900414332747459,1,-0.0005897723021917045,1,1.590147076058201e-05,1,5.193449760554358e-05,1
1772660160034586880,0.02136876620352268,1,0.002100600861012936,1,0.04081102833151817,1,-2.81733155134134e-05,1,-0.0001279067801078781,1,7.979979272931814e-05,1
1772660160045174016,0.02003572508692741,1,0.001380563480779529,1,0.04306995123624802,1,0.0003786521847359836,1,0.0001295402180403471,1,3.07479640468955e-05,1
1772660160055659520,0.01842882297933102,1,0.0005464233690872788,1,0.04441184923052788,1,0.0003595824528019875,1,-0.000260528118815273,1,-4.210837505524978e-05,1
1772660160066042624,0.01792082563042641,1,0.0005453993799164891,1,0.04501957073807716,1,-5.003330807085149e-05,1,-0.0002501580165699124,1,-7.347066275542602e-05,1
1772660160076326400,0.02092899009585381,1,5.587570922216401e-05,1,0.04349145293235779,1,7.158952939789742e-05,1,-2.647470864758361e-05,1,8.952705684350803e-06,1
1772660160086510336,0.0219486802816391,1,0.00237601762637496,1,0.04176359251141548,1,0.0001275114482268691,1,9.306157880928367e-05,1,7.697156979702413e-05,1
1772660160096594944,0.02178766019642353,1,0.002176009584218264,1,0.03960976004600525,1,-4.604032073984854e-05,1,-8.686110959388316e-07,1,0.0001205178268719465,1
1772660160106582784,0.02006261423230171,1,0.001102055190131068,1,0.04002015665173531,1,-1.45360354508739e-05,1,2.293752368132118e-05,1,0.0001647871104069054,1
1772660160116474368,0.0198166910558939,1,0.002055926248431206,1,0.03688507899641991,1,0.0001945717231137678,1,-7.298694254131988e-05,1,0.0001120539163821377,1
1772660160126272000,0.01983139663934708,1,0.001307209488004446,1,0.03753457590937614,1,-4.386319233162794e-06,1,-5.273878196021542e-05,1,0.0002650931128300726,1
1772660160135974912,0.01924697309732437,1,0.002473677508533001,1,0.03988247737288475,1,-0.0004312564269639552,1,0.0002703879727050662,1,-0.0001509043504483998,1
1772660160145582848,0.01929043233394623,1,0.0007484536617994308,1,0.04203677922487259,1,-0.0004693683295045048,1,0.0001739179569995031,1,-6.26803666818887e-05,1
1772660160155098880,0.01954554580152035,1,0.001421695807948709,1,0.03966857120394707,1,-0.0006864561000838876,1,8.76647827681154e-05,1,-0.0001094894614652731,1
1772660160164521472,0.02053855918347836,1,0.001015714835375547,1,0.03809929266571999,1,-0.0004888957482762635,1,3.574203583411872e-05,1,9.119727474171668e-05,1
1772660160173852928,0.01932311430573463,1,0.003996388986706734,1,0.03692333400249481,1,-0.000585070054512471,1,0.0002524118754081428,1,-0.0001191806513816118,1
1772660160184161024,0.01900194026529789,1,0.002051158342510462,1,0.03673579171299934,1,-0.0003018819552380592,1,0.0001456511672586203,1,-8.144630555761978e-06,1
1772660160194823680,0.01976162753999233,1,0.002159146359190345,1,0.04011168703436852,1,-0.0002710448461584747,1,-0.000144912424730137,1,6.5941087086685e-05,1
1772660160205382912,0.02116594091057777,1,0.001491005765274167,1,0.04088281095027924,1,0.0001405801303917542,1,-0.0003948423254769295,1,-7.387895311694592e-05,1
1772660160215840000,0.02309499494731426,1,0.002551075536757708,1,0.04093248397111893,1,0.0002875795471481979,1,3.268730506533757e-05,1,0.0001030820567393675,1
1772660160226196992,0.02115859091281891,1,0.002213051542639732,1,0.04333056882023811,1,0.0001298660063184798,1,6.792395288357511e-05,1,-8.061671542236581e-05,1
1772660160236450048,0.02227681502699852,1,0.002523286966606975,1,0.0421445220708847,1,-0.0005063273711130023,1,0.0002880217507481575,1,-0.000164082448463887,1
1772660160246604800,0.02012859471142292,1,0.0006603173678740859,1,0.04474034905433655,1,-0.0003785979642998427,1,3.602580181905068e-05,1,-5.287449312163517e-05,1
1772660160256660224,0.01910451799631119,1,0.001059208996593952,1,0.04233492538332939,1,-2.554063757997938e-05,1,-3.266213025199249e-05,1,-0.0003639281494542956,1
1772660160266620160,0.020188357681036,1,0.0008618597057648003,1,0.04055192694067955,1,0.0002622460306156427,1,-9.835844684857875e-05,1,-0.0001122359972214326,1
1772660160276483328,0.01840264163911343,1,0.0009587249951437116,1,0.04101349413394928,1,0.0003381172136869282,1,-0.0003644746029749513,1,0.0001552087487652898,1
1772660160286249984,0.02070842869579792,1,0.001330259838141501,1,0.04209189489483833,1,0.0002201899333158508,1,-3.223195017199032e-05,1,5.196064012125134e-05,1
1772660160295923456,0.02134834229946136,1,0.00126352533698082,1,0.04078191146254539,1,0.0003226092376280576,1,-0.0004007170209661126,1,3.449730138527229e-05,1
1772660160305503488,0.02186518907546997,1,0.003075718181207776,1,0.03900109604001045,1,-1.47020909935236e-06,1,-0.0001573309127707034,1,-1.228863220603671e-05,1
1772660160314988288,0.01924856938421726,1,0.0007469148840755224,1,0.04000928997993469,1,3.839708369923756e-06,1,-0.0001381142064929008,1,-0.0001690629287622869,1
1772660160324380416,0.0216513630002737,1,0.002047911053523421,1,0.04054340720176697,1,7.093580643413588e-05,1,5.856653660885058e-05,1,-0.0002492163621354848,1
1772660160333679872,0.01887377724051476,1,0.0006898054853081703,1,0.03951377049088478,1,-0.0001115467894123867,1,-3.5356410080567e-05,1,8.307129610329866e-05,1
1772660160344429568,0.01903868652880192,1,0.0003593532892409712,1,0.03894924372434616,1,-0.0002521996211726218,1,-3.159851257805713e-05,1,9.541102917864919e-05,1
1772660160355074304,0.01904577948153019,1,0.00168948108330369,1,0.04150319844484329,1,3.136099985567853e-05,1,-0.000139693554956466,1,8.471742330584675e-05,1
1772660160365615104,0.01825184561312199,1,0.0001168297603726387,1,0.0437285415828228,1,-8.371740841539577e-05,1,8.302291826112196e-05,1,0.0002310714626219124,1
1772660160376053504,0.01889971271157265,1,0.0004613525525201112,1,0.04297397285699844,1,0.0001414622238371521,1,1.112455538532231e-05,1,0.0001609310420462862,1
1772660160386389248,0.01945053040981293,1,0.0002846235875040293,1,0.03757624700665474,1,0.0004157465591561049,1,-4.731645822175778e-05,1,8.017060463316739e-05,1
1772660160396625664,0.02070738188922405,1,0.001777010853402317,1,0.03541399911046028,1,0.0002201369061367586,1,-0.0002189898368669674,1,9.167630196316168e-06,1
1772660160406760704,0.02096044644713402,1,-0.00102292827796191,1,0.04131941869854927,1,-0.0001031685824273154,1,-1.278798663406633e-05,1,-0.000210029844311066,1
1772660160416796672,0.01908931322395802,1,0.0004837098531424999,1,0.04426658153533936,1,0.0001377024309476838,1,-0.0002735350281000137,1,-0.0001146182039519772,1
1772660160426734848,0.01967911794781685,1,0.00343515956774354,1,0.04369793459773064,1,-0.0001191649789689109,1,-7.747130439383909e-05,1,-0.0001493051822762936,1
1772660160436574976,0.02088893204927444,1,0.003079564310610294,1,0.04308697208762169,1,4.096966586075723e-05,1,0.0001388578966725618,1,0.0001851819251896814,1
1772660160446321664,0.01920015923678875,1,-7.389835081994534e-05,1,0.04130596667528152,1,0.0004815799475181848,1,0.0002389370929449797,1,0.0003696420753840357,1
1772660160455974400,0.01915043406188488,1,0.0008138119010254741,1,0.04245971888303757,1,0.0001046053075697273,1,0.0003557271847967058,1,0.0002880354586523026,1
1772660160465530880,0.01897198148071766,1,-0.0009241382358595729,1,0.04313609376549721,1,-0.0002748002589214593,1,0.0004970324225723743,1,0.0003485145571175963,1
1772660160474994944,0.01958033815026283,1,0.0003847329062409699,1,0.04287834092974663,1,-0.0001649993355385959,1,0.0002501712879166007,1,0.0001759622391546145,1
1772660160484366592,0.01876468025147915,1,0.001091192243620753,1,0.0397353358566761,1,5.22435839229729e-05,1,-5.790412615169771e-06,1,0.0002806178235914558,1
1772660160493799424,0.0181135181337595,1,0.002988632535561919,1,0.03995639085769653,1,4.430438275448978e-05,1,-0.0001621323899598792,1,0.0004588814917951822,1
1772660160504519168,0.0171270165592432,1,0.002045655157417059,1,0.04214965179562569,1,0.000270474556600675,1,-8.587482443545014e-05,1,0.0003207643749192357,1
1772660160515134464,0.01823102682828903,1,0.001116564264521003,1,0.04359489306807518,1,0.0003337763191666454,1,0.000123057427117601,1,0.0002828035794664174,1
1772660160525645824,0.01774545758962631,1,0.002183578675612807,1,0.04362346231937408,1,0.0004265294410288334,1,0.0001374961866531521,1,-7.045120582915843e-05,1
1772660160536060160,0.01963725313544273,1,0.001391300931572914,1,0.04191562160849571,1,0.0003911106323357671,1,9.886070620268583e-05,1,9.333564958069474e-05,1
1772660160546374144,0.01946478337049484,1,0.00217458582483232,1,0.0412236861884594,1,0.000289348274236545,1,-9.974979548132978e-06,1,-3.680794543470256e-05,1
1772660160556587776,0.02047130651772022,1,0.004141141194850206,1,0.04018998891115189,1,0.0005449284799396992,1,-0.0003580607299227268,1,6.910923548275605e-05,1
1772660160566701568,0.01888796500861645,1,0.00482100248336792,1,0.03797594830393791,1,0.0006041218875907362,1,-0.0003183229709975421,1,-4.35623041994404e-05,1
1772660160576718336,0.01843903958797455,1,0.002513728337362409,1,0.03922881931066513,1,0.0004564743139781058,1,-0.0004337942809797823,1,0.0002226547803729773,1
1772660160586636544,0.01881938427686691,1,0.00123081321362406,1,0.04174330085515976,1,0.0004599137173499912,1,-0.0004097530036233366,1,0.0001724020985420793,1
1772660160596459264,0.01968446560204029,1,0.002888740971684456,1,0.04383976757526398,1,0.0003303489356767386,1,-0.0003001447184942663,1,3.528279194142669e-05,1
1772660160606187520,0.01844978891313076,1,0.0007375741261057556,1,0.04251887276768684,1,0.0003558384487405419,1,-0.0001025712190312333,1,-5.245644570095465e-05,1
1772660160615821312,0.01897470280528069,1,-0.0003842152946162969,1,0.04108265414834023,1,0.0002154319663532078,1,-0.0001273201050935313,1,5.482060805661604e-05,1
1772660160625361152,0.01954385079443455,1,0.001306955236941576,1,0.04051293805241585,1,4.633900607586838e-05,1,-4.89383382955566e-05,1,0.0001482869411120191,1
1772660160634807296,0.02035517618060112,1,0.0003332786436658353,1,0.04243557900190353,1,0.0002430430904496461,1,-0.000144084173371084,1,0.0002155633846996352,1
1772660160644161024,0.01721096225082874,1,0.001090181292966008,1,0.04180845618247986,1,6.127070810180157e-05,1,-0.0002989052445627749,1,6.981206388445571e-05,1
1772660160654034176,0.02076856791973114,1,0.001753821969032288,1,0.04058041796088219,1,0.0002175952831748873,1,-0.0002494796644896269,1,8.745426384848543e-06,1
1772660160664720896,0.01831884123384953,1,0.0004359325976110995,1,0.0405881293118,1,0.0002679163007996976,1,1.426745438948274e-05,1,2.937902900157496e-05,1
1772660160675303680,0.01880704984068871,1,0.001577035407535732,1,0.04158801957964897,1,0.0003630095452535897,1,1.241756399394944e-05,1,-8.580708527006209e-05,1
1772660160685780992,0.01834819093346596,1,0.002345070941373706,1,0.04121829941868782,1,-0.0001592660555616021,1,-2.160848271159921e-05,1,-0.0001086956908693537,1
1772660160696156928,0.01577932201325893,1,0.00354543817229569,1,0.03859353065490723,1,-7.181558612501249e-05,1,-0.0002233791601611301,1,0.0001247411564690992,1
1772660160706432768,0.01897002011537552,1,1.478707417845726e-06,1,0.04098665714263916,1,0.0001495306205470115,1,-0.0003324454301036894,1,0.0001728708884911612,1
1772660160716608512,0.01687114685773849,1,0.002869937801733613,1,0.0437927320599556,1,5.290137414704077e-05,1,-4.511531733442098e-05,1,0.0003103826602455229,1
1772660160726682112,0.01650217734277248,1,0.001114771119318902,1,0.04342107474803925,1,-5.20703433721792e-05,1,-0.0001304401812376454,1,0.0001069909776560962,1
1772660160736657664,0.01667416281998158,1,0.002330107381567359,1,0.04274768754839897,1,5.608797437162139e-05,1,-4.157720832154155e-05,1,3.978707536589354e-05,1
1772660160746534656,0.01856897957623005,1,0.001845535356551409,1,0.03946783393621445,1,0.0001303037133766338,1,-0.0001280981523450464,1,-5.543600127566606e-05,1
1772660160756313344,0.01712952554225922,1,0.002217279048636556,1,0.04216622188687325,1,-2.611931085994001e-05,1,-1.541482924949378e-05,1,-4.736634582513943e-05,1
1772660160765997056,0.01736298948526382,1,0.001973522827029228,1,0.04304269701242447,1,0.0003115270519629121,1,-0.0001413053541909903,1,-3.290299719083123e-05,1
1772660160775584256,0.02015894465148449,1,0.00286227953620255,1,0.04400839284062386,1,6.076795762055553e-05,1,0.0002661320031620562,1,4.948663990944624e-05,1
1772660160785077760,0.02083724550902843,1,0.003223550971597433,1,0.04055516421794891,1,-3.355217631906271e-05,1,0.0003793926443904638,1,6.318025407381356e-05,1
1772660160794477568,0.02062620222568512,1,0.002304137218743563,1,0.0429680347442627,1,-0.0003669618454296142,1,0.0001006243328447454,1,3.622217627707869e-05,1
1772660160803795456,0.01906934753060341,1,0.003173639765009284,1,0.04036969691514969,1,-3.229574940633029e-05,1,0.0001593634660821408,1,5.141284054843709e-05,1
1772660160814098432,0.01868651062250137,1,0.002269899705424905,1,0.03984127193689346,1,0.0002869066083803773,1,1.712541416054592e-05,1,0.0001688853808445856,1
1772660160824760320,0.01863834075629711,1,0.0009508606162853539,1,0.04093141108751297,1,0.0001662830472923815,1,0.0001662989088799804,1,0.0001231769128935412,1
1772660160835319040,0.01820791140198708,1,0.0006492787506431341,1,0.03975830227136612,1,4.90571437694598e-06,1,6.830065103713423e-05,1,-1.406602677889168e-06,1
1772660160845775616,0.01968391984701157,1,0.0002659921592567116,1,0.04207352548837662,1,0.0001082954986486584,1,0.0002136802650056779,1,-0.0001298826682614163,1
1772660160856130304,0.01978950388729572,1,0.001859915326349437,1,0.03964915871620178,1,-5.822601451654918e-05,1,0.0002382412203587592,1,-0.0002626260393299162,1
1772660160866385664,0.01750814728438854,1,0.001253525610081851,1,0.03759032487869263,1,1.479153434047475e-05,1,-0.0002849362208507955,1,-7.063534576445818e-05,1
1772660160876541184,0.01937375776469707,1,0.002337101614102721,1,0.03727839142084122,1,-1.478110061725602e-05,1,-0.0002638091391418129,1,7.831167022231966e-05,1
1772660160886598144,0.01895097456872463,1,0.002571209101006389,1,0.04310257360339165,1,-7.577113865409046e-05,1,2.82778619293822e-05,1,0.0001267354964511469,1
1772660160896559872,0.01906310021877289,1,0.003082725685089827,1,0.04059385508298874,1,0.0001800455938791856,1,0.0001519321231171489,1,0.0001535315241198987,1
1772660160906424320,0.0191985946148634,1,0.003503220155835152,1,0.04046998545527458,1,-2.663730447238777e-05,1,0.0002711699344217777,1,0.0002450155443511903,1
1772660160916192512,0.01682021096348763,1,0.002324992325156927,1,0.0418153889477253,1,-9.682481322670355e-05,1,0.0001449101837351918,1,0.0002496344677638263,1
1772660160925866752,0.01673734374344349,1,-1.58359544002451e-05,1,0.04383358359336853,1,0.000425338075729087,1,4.247990727890283e-05,1,0.0001504290412412956,1
1772660160935447040,0.01762313395738602,1,0.0003334381617605686,1,0.04113625735044479,1,-1.509218964201864e-05,1,4.246185199008323e-06,1,0.0002300466876477003,1
1772660160944937472,0.01768858917057514,1,-4.888216608378571e-06,1,0.04195417463779449,1,-0.0002175007393816486,1,0.0002734152949415147,1,5.915463407291099e-05,1
1772660160954335744,0.01733879372477531,1,0.0005942772259004414,1,0.04043784365057945,1,-8.444239210803062e-05,1,0.0002245220239274204,1,0.0002792763989418745,1
1772660160963641088,0.01841146126389503,1,0.0009817373938858509,1,0.04087303206324577,1,6.952024705242366e-05,1,0.0001383947092108428,1,0.0001059686983353458,1
1772660160974391552,0.01916133984923363,1,0.0006439659628085792,1,0.04025417938828468,1,9.242017404176295e-05,1,-0.0001944194518728182,1,-7.140749949030578e-05,1
1772660160985038336,0.01801849529147148,1,0.0007551276357844472,1,0.04264724627137184,1,0.0001441522763343528,1,-0.0006062050815671682,1,0.0001904349483083934,1
1772660160995581184,0.01831718906760216,1,0.001938867615535855,1,0.04160069301724434,1,1.996886567212641e-05,1,-0.0007343164179474115,1,0.0001520380756119266,1
1772660161006020352,0.01631960272789001,1,0.002255603903904557,1,0.04219029098749161,1,0.0002645558270160109,1,-0.0002568078925833106,1,5.522376159206033e-05,1
1772660161016357632,0.01827646419405937,1,0.003526116022840142,1,0.04123285040259361,1,9.177358879242092e-05,1,-0.0005206245696172118,1,-2.498686808394268e-05,1
1772660161026592512,0.01769706048071384,1,0.003512245137244463,1,0.04309605434536934,1,0.0002901450789067894,1,-0.0004781136522069573,1,0.0001166295260190964,1
1772660161036728064,0.01997258141636848,1,0.00369970640167594,1,0.04515711590647697,1,0.0003182608634233475,1,-0.0005890392931178212,1,-9.961113391909748e-05,1
1772660161046766592,0.01567254588007927,1,0.003247959306463599,1,0.04439863190054893,1,0.0002814237086568028,1,-0.000327453832142055,1,-3.592500070226379e-05,1
1772660161056707584,0.01747778989374638,1,0.0008128962945193052,1,0.04013370722532272,1,0.0002056323137367144,1,-0.0005229235393926501,1,9.462684101890773e-05,1
1772660161066552064,0.01877721585333347,1,0.0006468925857916474,1,0.0383879728615284,1,0.0004303281602915376,1,-0.0007252200157381594,1,0.0001003392753773369,1
1772660161076302336,0.01719093136489391,1,0.001962523907423019,1,0.039296954870224,1,0.0002472078485880047,1,-0.0006124636856839061,1,8.373785385629162e-05,1
1772660161085956864,0.01812695525586605,1,0.002797625493258238,1,0.04064223915338516,1,-8.892726327758282e-05,1,-0.0002495077787898481,1,8.431159949395806e-05,1
1772660161095516672,0.01881863176822662,1,0.00331944553181529,1,0.0388215184211731,1,-6.273894541664049e-05,1,5.595255970547441e-06,1,0.0003946268116123974,1
1772660161104991232,0.01962039805948734,1,0.001153982477262616,1,0.03744399920105934,1,-0.0001255159440916032,1,9.212053555529565e-06,1,0.0001561695680720732,1
1772660161114374912,0.0203538853675127,1,0.0009664067765697837,1,0.03741364553570747,1,-3.139616092084907e-05,1,-0.0001933366729645059,1,0.0001683898299233988,1
1772660161123819264,0.01968171820044518,1,0.0006972680566832423,1,0.03942261263728142,1,-0.0001006545207928866,1,0.0002484969154465944,1,7.273660594364628e-05,1
1772660161134536192,0.01898189447820187,1,0.0006507197394967079,1,0.04141518473625183,1,-9.597805910743773e-05,1,0.0002742020296864212,1,-2.293908255524002e-05,1
1772660161145146880,0.01919550448656082,1,0.001304713543504477,1,0.03872817009687424,1,-0.0002685211948119104,1,7.344278856180608e-05,1,-0.0001762038737069815,1
1772660161155654912,0.01954233832657337,1,0.001018331269733608,1,0.0403393842279911,1,-7.343235483858734e-05,1,0.0002177547430619597,1,7.114127947716042e-05,1
1772660161166060032,0.01961109600961208,1,0.002192974323406816,1,0.04328474402427673,1,-0.0001735428813844919,1,0.0001739228900987655,1,0.0001360314054181799,1
1772660161176361472,0.02066696807742119,1,0.0002647667424753308,1,0.04177681356668472,1,5.187642091186717e-05,1,7.157836080295965e-05,1,0.0001000627089524642,1
1772660161186561536,0.0198458656668663,1,0.002288701944053173,1,0.0424276776611805,1,6.163720536278561e-05,1,-0.0002098020922858268,1,-7.269195339176804e-05,1
1772660161196660992,0.01892326772212982,1,0.001846615341491997,1,0.03670050576329231,1,-0.0002671531110536307,1,-0.0002949076879303902,1,-4.450289270607755e-05,1
1772660161206660352,0.01901329681277275,1,-0.0002562724985182285,1,0.03958757594227791,1,-0.0002542261208873242,1,-0.000147790415212512,1,-5.565331230172887e-05,1
1772660161216561408,0.01742012426257133,1,-0.0005638946313410997,1,0.04064580053091049,1,-0.0001762662432156503,1,-0.0001584045239724219,1,9.169505210593343e-05,1
1772660161226369792,0.01849856600165367,1,0.0002435311325825751,1,0.04202894866466522,1,-7.318000280065462e-05,1,-0.0001045076787704602,1,6.715254858136177e-05,1
1772660161236081920,0.01870382204651833,1,0.002111599314957857,1,0.04396692663431168,1,0.0001916056498885155,1,9.212905570166185e-05,1,-8.398559293709695e-05,1
1772660161245699328,0.01863390021026134,1,0.003392926882952452,1,0.04220618307590485,1,0.0002325830864720047,1,3.69814079022035e-05,1,0.0001090376899810508,1
1772660161255221248,0.01892584934830666,1,0.002089694142341614,1,0.04238154739141464,1,7.188910967670381e-05,1,-0.0001324445620412007,1,0.0001081060254364274,1
1772660161264650240,0.02016291581094265,1,0.002532266546040773,1,0.0397864393889904,1,9.416795364813879e-06,1,-4.872760473517701e-05,1,0.0002768912236206234,1
1772660161273985280,0.02208421193063259,1,0.003436519065871835,1,0.0404086597263813,1,-0.0002622808387968689,1,-4.815235661226325e-05,1,6.627495167776942e-05,1
1772660161283846144,0.02199147269129753,1,0.0009870579233393073,1,0.04148788750171661,1,-0.0002827323914971203,1,7.7883290941827e-05,1,0.0003113537095487118,1
1772660161294532096,0.0198014285415411,1,0.0004655169905163348,1,0.04029018431901932,1,-0.0001602749107405543,1,0.0001235568197444081,1,0.0002737950126174837,1
1772660161305115392,0.01787900924682617,1,0.0002978653938043863,1,0.03797890990972519,1,0.000113344969577156,1,0.0002270148252137005,1,0.0001397289452143013,1
1772660161315596544,0.01775675266981125,1,0.003120111068710685,1,0.03979338333010674,1,0.000205661854124628,1,-0.000159772636834532,1,9.385807788930833e-05,1
1772660161325976320,0.02093303762376308,1,0.003904876764863729,1,0.04014068469405174,1,-5.417303327703848e-05,1,-0.00022365283803083,1,0.000187344616279006,1
1772660161336252928,0.02020857110619545,1,0.002867641160264611,1,0.04000517725944519,1,-0.0001480533101130277,1,-6.572216807398945e-05,1,0.0001970623270608485,1
1772660161346429696,0.01773565076291561,1,0.001151578850112855,1,0.04134263098239899,1,-0.0001961809321073815,1,0.0002033485798165202,1,0.0003937692963518202,1
1772660161356508416,0.01839052326977253,1,0.004036589525640011,1,0.0420270636677742,1,-0.000165366698638536,1,0.0002424352569505572,1,0.0002511042985133827,1
1772660161366488832,0.01702982001006603,1,0.003076499793678522,1,0.04253346845507622,1,-0.000205672811716795,1,-0.0001235508971149102,1,0.0001997771032620221,1
1772660161376385792,0.01638777367770672,1,0.0003101638867519796,1,0.04205017536878586,1,-0.0003301870019640774,1,-5.245241482043639e-05,1,0.0001483359956182539,1
1772660161386187264,0.01811455003917217,1,-0.0001769086811691523,1,0.04040849581360817,1,-0.0001666856551310048,1,-0.0003497379075270146,1,0.0003761409025173634,1
1772660161395892736,0.0200132429599762,1,-0.0007970058941282332,1,0.04045083746314049,1,-0.0005825433763675392,1,-2.283123467350379e-05,1,0.0003154776350129396,1
1772660161405503744,0.02027568407356739,1,0.00150347372982651,1,0.04382485151290894,1,-0.0001727638154989108,1,-9.996362496167421e-05,1,0.0004227545869071037,1
1772660161415020288,0.01981054805219173,1,0.001698739361017942,1,0.04358844831585884,1,8.012869511730969e-05,1,-2.050238254014403e-05,1,0.0004447376413736492,1
1772660161424444160,0.02014241740107536,1,0.001854922622442245,1,0.04183085635304451,1,1.371122743876185e-05,1,0.0001370460377074778,1,0.0003668142599053681,1
1772660161433778176,0.01926723308861256,1,0.002178517170250416,1,0.03941810503602028,1,-0.000184074102435261,1,0.0002318550687050447,1,0.0001566584687680006,1
1772660161444085248,0.01876534335315228,1,0.001228160108439624,1,0.03986246883869171,1,-0.0001682562142377719,1,0.0001439517072867602,1,5.355308894650079e-05,1
1772660161454747392,0.01718146540224552,1,0.0005268397508189082,1,0.04191792383790016,1,-0.0005041552358306944,1,0.0001644919102545828,1,-0.0002121097058989108,1
1772660161465305088,0.01853051967918873,1,0.0002547801705077291,1,0.04182697087526321,1,-0.0002631130919326097,1,0.0003575609007384628,1,2.009306626860052e-06,1
1772660161475759872,0.01942469738423824,1,-0.0006237401394173503,1,0.0408315397799015,1,-0.0002562921727076173,1,0.0005589599022641778,1,0.0004006298258900642,1
1772660161486111744,0.0201774388551712,1,0.002591614378616214,1,0.0401560552418232,1,-0.0007715562242083251,1,0.0007264118175953627,1,0.0002809553989209235,1
1772660161496366592,0.02050198055803776,1,0.002893446944653988,1,0.03952206671237946,1,-0.0005008687148801982,1,0.0004709693603217602,1,0.0002870893804356456,1
1772660161506525184,0.02120877988636494,1,0.003615679452195764,1,0.03959411010146141,1,-3.617931361077353e-05,1,0.0004009496478829533,1,0.0001956411579158157,1
1772660161516584704,0.01955797709524632,1,0.002437095856294036,1,0.03820619359612465,1,-8.287919627036899e-05,1,8.764489029999822e-05,1,0.0001244777231477201,1
1772660161526546944,0.01964172348380089,1,0.002342112129554152,1,0.03867681324481964,1,0.0001777519210008904,1,-1.35186255647568e-05,1,-8.482982593704946e-06,1
1772660161536412160,0.01952826604247093,1,0.00230883271433413,1,0.03960753604769707,1,0.0001347040815744549,1,-7.57502275519073e-05,1,-3.374740481376648e-05,1
1772660161546181888,0.01987304724752903,1,0.001887112157419324,1,0.04312912747263908,1,0.0002609084767755121,1,-0.0003245734551455826,1,-9.866263280855492e-05,1
1772660161555854592,0.01981990970671177,1,0.003232763847336173,1,0.04032273218035698,1,0.0001900797651614994,1,-0.0003212214214727283,1,0.0001017220274661668,1
1772660161565436160,0.02142808586359024,1,0.001481477869674563,1,0.042589221149683,1,-6.332891643978655e-06,1,-0.0001446553214918822,1,0.0002476691734045744,1
1772660161574923776,0.01972203515470028,1,0.00118657061830163,1,0.04136596620082855,1,0.0002275358128827065,1,-1.698415690043475e-05,1,8.725393854547292e-06,1
1772660161584317696,0.018690325319767,1,0.002700985874980688,1,0.04301883652806282,1,-0.0001075164327630773,1,8.183026511687785e-05,1,0.0001735179539537057,1
1772660161593620480,0.01715542189776897,1,0.003962002694606781,1,0.04271212592720985,1,-0.000295801815809682,1,0.000284190580714494,1,0.000170510247698985,1
1772660161604369920,0.01738411001861095,1,0.002703727455809712,1,0.03897568956017494,1,-0.0004282745940145105,1,0.0001465679233660921,1,0.000298504630336538,1
1772660161615015424,0.01671096496284008,1,0.001660100766457617,1,0.03846698999404907,1,-0.0002221595350420102,1,2.572424637037329e-05,1,0.0001894708402687684,1
1772660161625556992,0.01786371506750584,1,0.00262294290587306,1,0.0387718677520752,1,-0.0001642067218199372,1,0.0001701752335065976,1,0.0003956215223297477,1
1772660161635999744,0.01821040362119675,1,0.003625073004513979,1,0.0398256704211235,1,-0.0004284309688955545,1,0.000206551150768064,1,0.0006108692614361644,1
1772660161646339840,0.01884438283741474,1,0.002125686034560204,1,0.0438571460545063,1,-0.0003248466236982495,1,-4.186158912489191e-05,1,0.0003969089884776622,1
1772660161656579840,0.01809213124215603,1,0.002985769882798195,1,0.04276614263653755,1,-0.0001039590133586898,1,-0.0002158482529921457,1,0.0001693212543614209,1
1772660161666720000,0.02055821567773819,1,0.001612272579222918,1,0.04175478965044022,1,1.645442534936592e-05,1,-0.0004146854917053133,1,-3.215502511011437e-05,1
1772660161676762624,0.020298196002841,1,0.001906021614558995,1,0.04209894686937332,1,7.20850148354657e-05,1,-0.0002582175948191434,1,-7.645080768270418e-05,1
1772660161686706432,0.02130881883203983,1,0.003731235163286328,1,0.03895178437232971,1,2.352154115214944e-05,1,-0.0002876638900488615,1,-2.47233547270298e-05,1
1772660161696553472,0.01913459040224552,1,0.003092898288741708,1,0.04008365049958229,1,-5.641486495733261e-07,1,-0.0004979748046025634,1,-0.0001053782470989972,1
1772660161706305792,0.02037252299487591,1,0.003700888250023127,1,0.04077808558940887,1,0.0002241395268356428,1,-0.0003951482940465212,1,5.382739254855551e-05,1
1772660161715961856,0.02028348110616207,1,0.005031304899603128,1,0.04039670899510384,1,0.0002719215699471533,1,-0.0003501062747091055,1,4.293403981137089e-05,1
1772660161725523968,0.01923497393727303,1,0.002305295318365097,1,0.04399559274315834,1,0.0003412850783206522,1,-0.0004704917664639652,1,0.0001126185525208712,1
1772660161734993152,0.01961502805352211,1,0.001470205374062061,1,0.04248687624931335,1,0.0005690468824468553,1,-0.0006548240198753774,1,3.748897142941132e-05,1
1772660161744368384,0.01818863861262798,1,-1.367399818263948e-05,1,0.04137489572167397,1,0.0007653923821635544,1,-0.000244002221734263,1,8.452191832475364e-05,1
1772660161753815296,0.01973024196922779,1,0.002081772778183222,1,0.0423743948340416,1,0.0005414765910245478,1,-0.0003694054612424225,1,-4.5171553210821e-05,1
1772660161764531968,0.02085287310183048,1,0.002519489265978336,1,0.04506880417466164,1,0.0006386919412761927,1,-0.0001844720245571807,1,7.193186320364475e-05,1
1772660161775144704,0.01989240013062954,1,0.00539794098585844,1,0.0450601801276207,1,0.0003538401506375521,1,-0.0001792680704966187,1,3.232983726775274e-05,1
1772660161785656320,0.01954293437302113,1,0.003697996027767658,1,0.0447087436914444,1,0.0005982221337035298,1,-0.0002971986541524529,1,7.893415750004351e-05,1
1772660161796064512,0.01922165229916573,1,0.001815997646190226,1,0.0428200475871563,1,0.0006251214654184878,1,-9.011926886159927e-05,1,0.0002280254557263106,1
1772660161806371072,0.01893570832908154,1,0.001724023371934891,1,0.04162795469164848,1,0.0006053626420907676,1,-0.0002771649742498994,1,-1.916796463774517e-05,1
1772660161816577536,0.01602231152355671,1,-0.0005166946211829782,1,0.03865236416459084,1,0.0005418272339738905,1,-0.0003505548520479351,1,-8.383693057112396e-05,1
1772660161826682368,0.01717734895646572,1,0.003076980356127024,1,0.03980257362127304,1,4.732961315312423e-05,1,-2.775211032712832e-05,1,-3.368679244886152e-05,1
1772660161836689408,0.01794047839939594,1,0.002137779956683517,1,0.04349721595644951,1,8.817185153020546e-05,1,-0.0003310236788820475,1,-3.772218769881874e-05,1
1772660161846605056,0.01948804408311844,1,-0.0001141117536462843,1,0.04334855824708939,1,0.0002263720234623179,1,-1.289567808271386e-05,1,3.820444544544443e-05,1
1772660161856429056,0.02111191675066948,1,0.001478798571042717,1,0.0412682369351387,1,-1.287187842535786e-06,1,0.0001270306383958086,1,0.0001352332474198192,1
1772660161866155776,0.02086186781525612,1,8.713314309716225e-05,1,0.03909643739461899,1,-0.0004032656142953783,1,0.000343138468451798,1,0.0002639893209561706,1
1772660161875787776,0.02217226102948189,1,0.001383381662890315,1,0.03919802233576775,1,-0.0005533687653951347,1,0.000513131613843143,1,0.0001680275163380429,1
1772660161885323776,0.02232609502971172,1,0.002730544423684478,1,0.04239273816347122,1,-0.0007577122887596488,1,0.0001620631956029683,1,0.0002300799824297428,1
1772660161894765312,0.01935233175754547,1,0.00557043869048357,1,0.04407278075814247,1,-0.0007353600230999291,1,3.061797906411812e-05,1,9.344040881842375e-05,1
1772660161904114944,0.01830127649009228,1,0.006168919615447521,1,0.04068765044212341,1,-0.0004191551124677062,1,-0.0004070156719535589,1,4.64826007373631e-05,1
1772660161913985024,0.01781291142106056,1,0.003312110900878906,1,0.04023532569408417,1,-9.499826410319656e-05,1,-0.000231402853387408,1,-3.786472007050179e-06,1
1772660161924670976,0.01750879548490047,1,0.001964960480108857,1,0.04194789007306099,1,0.0001141122265835293,1,-0.000267688010353595,1,5.167998824617825e-05,1
1772660161935252992,0.02032365463674068,1,0.003608501050621271,1,0.04290160909295082,1,0.000309120980091393,1,-0.0002616799611132592,1,-2.717215102165937e-05,1
1772660161945733120,0.02480054832994938,1,0.005727790296077728,1,0.04445513710379601,1,0.0004679017583839595,1,-0.0001446816604584455,1,0.0002031752665061504,1
1772660161956110080,1.538049817085266,1,0.3796663880348206,1,0.02016545832157135,1,-0.001320249866694212,1,0.0007316101109609008,1,0.007328107487410307,1
1772660161966385920,1.161925554275513,1,0.2115572392940521,1,0.03696416318416595,1,-0.0004862340283580124,1,0.0005911928019486368,1,0.0344194620847702,1
1772660161976564480,0.9345384240150452,1,0.1951238662004471,1,0.06260666996240616,1,-0.0002892646298278123,1,0.001183978747576475,1,0.1092173084616661,1
1772660161986643968,1.008762359619141,1,0.2005085647106171,1,0.03723368793725967,1,0.001526731997728348,1,0.0008882808615453541,1,0.1471008509397507,1
1772660161996625920,1.18402099609375,1,0.1510325521230698,1,0.03581462427973747,1,-0.0009557218290865421,1,0.002512983977794647,1,0.1625978052616119,1
1772660162006509824,1.206100106239319,1,0.03021163307130337,1,0.02834174409508705,1,-0.0002943882427643985,1,0.001948617165908217,1,0.1653990298509598,1
1772660162016297728,1.127616763114929,1,-0.002495825756341219,1,0.05256975814700127,1,-0.001300635281950235,1,0.002218998735770583,1,0.1769225597381592,1
1772660162025989632,1.276220321655273,1,-0.01132737658917904,1,0.04972265660762787,1,-0.001230686320923269,1,0.002988195279613137,1,0.1799255162477493,1
1772660162035587840,1.50274920463562,1,-0.09178624302148819,1,0.03817056491971016,1,-0.004564426373690367,1,0.003987344913184643,1,0.1695196330547333,1
1772660162045097728,1.529890894889832,1,-0.1857794970273972,1,0.02716528996825218,1,-0.002611491130664945,1,0.003563802456483245,1,0.1411855965852737,1
1772660162054515456,1.45573890209198,1,-0.1478429138660431,1,0.0401618555188179,1,-0.0005755093297921121,1,0.002141444943845272,1,0.1057458445429802,1
1772660162063841792,1.511586666107178,1,-0.04861185699701309,1,0.03986184298992157,1,-0.0025060148909688,1,0.004040244501084089,1,0.07131956517696381,1
1772660162074147584,1.490323543548584,1,-0.04325015470385551,1,0.03226323798298836,1,-0.0006305765127763152,1,0.005438509397208691,1,0.0446946769952774,1
1772660162084812288,1.407210946083069,1,-0.05915637314319611,1,0.02802848815917969,1,0.0003636719775386155,1,0.005255004391074181,1,0.04097916558384895,1
1772660162095373312,1.387025952339172,1,-0.1125642880797386,1,0.03102080337703228,1,-0.0006192463915795088,1,0.004673640243709087,1,0.04210298135876656,1
1772660162105832704,1.351428270339966,1,-0.140330970287323,1,0.04172630235552788,1,0.001453534001484513,1,0.005387029610574245,1,0.01220591180026531,1
1772660162116192512,1.043574810028076,1,-0.1036673560738564,1,0.02503444626927376,1,0.002324026077985764,1,0.005979105364531279,1,-0.05033807456493378,1
1772660162126452992,0.7474163770675659,1,-0.1047046482563019,1,0.01222469657659531,1,0.005453336052596569,1,0.004164809361100197,1,-0.1400008648633957,1
1772660162136615680,0.6373001337051392,1,-0.06952168047428131,1,0.04822974652051926,1,0.003635500092059374,1,0.003217498306185007,1,-0.224101647734642,1
1772660162146680320,0.5337859392166138,1,-0.05893054977059364,1,0.04827994480729103,1,0.002499336609616876,1,0.002858176827430725,1,-0.2798275351524353,1
1772660162156647168,0.575646698474884,1,-0.03227074444293976,1,0.03781932219862938,1,-0.003834365168586373,1,0.004993692971765995,1,-0.308223694562912,1
1772660162166519808,0.6613554358482361,1,0.06248552724719048,1,0.0415462926030159,1,-0.001348354620859027,1,0.003141237422823906,1,-0.3193937242031097,1
1772660162176300032,0.6839479207992554,1,0.1142763495445251,1,0.02749781869351864,1,0.001679773791693151,1,0.002471446758136153,1,-0.3225793838500977,1
1772660162185985792,0.5353614687919617,1,0.2690197229385376,1,0.08180375397205353,1,-0.006372818257659674,1,0.005557812750339508,1,-0.3102646172046661,1
1772660162195576320,0.1926118731498718,1,0.3693689703941345,1,-0.0142556969076395,1,-0.008665364235639572,1,0.004473256878554821,1,-0.2782513797283173,1
1772660162205075456,0.1767861247062683,1,0.3830167055130005,1,0.03698206692934036,1,-0.001000290736556053,1,0.0006984437350183725,1,-0.2040334641933441,1
1772660162214481152,0.3089728355407715,1,0.3921931982040405,1,0.0264879260212183,1,0.0008947797468863428,1,-0.0003821611171588302,1,-0.1336323618888855,1
1772660162223948544,0.07166817039251328,1,0.2987964153289795,1,0.02391061745584011,1,0.007206812500953674,1,-0.00155889056622982,1,-0.07987689971923828,1
1772660162234692608,0.09536176174879074,1,0.255037248134613,1,0.06124415248632431,1,0.006471625529229641,1,0.0009277298231609166,1,-0.06303907185792923,1
1772660162245331712,0.08853509277105331,1,0.1200255751609802,1,0.07298138737678528,1,0.001083414419554174,1,0.003641006536781788,1,-0.06914369761943817,1
1772660162255866880,0.106379047036171,1,0.009940106421709061,1,0.0314081683754921,1,-0.003269416512921453,1,0.005281910300254822,1,-0.08464083075523376,1
1772660162266298368,0.08501896262168884,1,-0.01292158011347055,1,0.04626420140266418,1,0.006318042054772377,1,0.001563899219036102,1,-0.09675688296556473,1
1772660162276625664,0.1225230246782303,1,0.001516932621598244,1,0.02724014222621918,1,0.006948164198547602,1,0.002862946828827262,1,-0.09867697954177856,1
1772660162286852864,-0.01713361218571663,1,0.03340355306863785,1,0.03209157660603523,1,0.006482485681772232,1,0.002582917921245098,1,-0.09334633499383926,1
1772660162296977664,0.0118706664070487,1,0.04243979975581169,1,0.02395541593432426,1,0.005378442816436291,1,0.00334971584379673,1,-0.09546440094709396,1
1772660162307002624,0.009705657139420509,1,-0.01602889224886894,1,0.05558143928647041,1,0.001888844766654074,1,0.003061003517359495,1,-0.123553454875946,1
1772660162316929024,-0.1279644519090652,1,0.04361431673169136,1,0.004816474393010139,1,0.001648822450079024,1,0.002204570453613997,1,-0.1442756950855255,1
1772660162326761728,0.1000497341156006,1,-0.004207916557788849,1,0.06515531986951828,1,-1.996225910261273e-05,1,0.004217633977532387,1,-0.1703231036663055,1
1772660162336497664,0.0637008398771286,1,-0.02436771616339684,1,0.01874502375721931,1,0.006376986391842365,1,0.004816372878849506,1,-0.189667284488678,1
1772660162346136576,-0.1288101673126221,1,-0.08538159728050232,1,0.02571063488721848,1,0.011039680801332,1,0.003226303495466709,1,-0.1909153163433075,1
1772660162355682048,-0.3183548748493195,1,-0.1454677879810333,1,0.04457418248057365,1,0.01220082584768534,1,0.003735301084816456,1,-0.1567716002464294,1
1772660162365132288,-0.1053969264030457,1,-0.09308329224586487,1,0.04854664579033852,1,0.006712738890200853,1,0.002904678694903851,1,-0.1095113679766655,1
1772660162374488576,-0.1524110436439514,1,-0.1794822663068771,1,0.04169948399066925,1,0.007062203250825405,1,0.002006094204261899,1,-0.06254665553569794,1
1772660162383908864,-0.2172322571277618,1,-0.2715509533882141,1,0.04777883365750313,1,0.009541312232613564,1,0.0006247014971449971,1,-0.008602747693657875,1
1772660162394624256,-0.08039405196905136,1,-0.2110895067453384,1,0.05857882276177406,1,0.007330321706831455,1,-0.0004730727523565292,1,0.01431466266512871,1
1772660162405235200,-0.3227909207344055,1,-0.208722397685051,1,0.05966465920209885,1,0.006331693846732378,1,0.0001244797313120216,1,0.0141118410974741,1
1772660162415745792,-0.06041747331619263,1,-0.1017645448446274,1,0.04981161281466484,1,0.003450651653110981,1,0.00144795048981905,1,0.0004720694851130247,1
1772660162426153216,-0.3147802352905273,1,-0.1717133522033691,1,0.05850698426365852,1,-0.004948405083268881,1,0.002876565093174577,1,-0.02270586602389812,1
1772660162436459776,-0.1401296705007553,1,-0.0886576920747757,1,0.06078082695603371,1,-0.006637037266045809,1,0.003609304782003164,1,-0.03590934723615646,1
1772660162446667008,-0.1554998755455017,1,-0.1233436837792397,1,0.04987786337733269,1,-0.01098681893199682,1,0.007274032570421696,1,-0.06614557653665543,1
1772660162456773888,-0.2479121685028076,1,-0.1230940893292427,1,0.03719348460435867,1,-0.004717985633760691,1,0.008358482271432877,1,-0.07741091400384903,1
1772660162466781696,-0.2820645868778229,1,-0.1268718093633652,1,0.03381475433707237,1,-0.002392002148553729,1,0.006761698983609676,1,-0.0656043142080307,1
1772660162476693504,-0.3772334456443787,1,-0.02672434411942959,1,0.04463222622871399,1,-0.004595058970153332,1,0.004560924600809813,1,-0.03296109661459923,1
1772660162486509312,-0.1282515376806259,1,-0.01019668113440275,1,0.00670197606086731,1,-0.002352868672460318,1,0.004785511642694473,1,-0.02193465828895569,1
1772660162496232448,-0.197806790471077,1,-0.1853996962308884,1,0.05596546456217766,1,-0.003685405943542719,1,0.004085350781679153,1,-0.02618364244699478,1
1772660162505869824,-0.2892079055309296,1,-0.158096119761467,1,0.04030938446521759,1,-0.003173586679622531,1,0.003580852644518018,1,-0.02827532030642033,1
1772660162515414528,-0.1447135359048843,1,-0.09620995074510574,1,0.06964161992073059,1,-0.004145627841353416,1,0.004688257351517677,1,-0.04018501937389374,1
1772660162524865280,-0.08184132725000381,1,-0.1286874115467072,1,0.0535997711122036,1,-0.001598805072717369,1,0.005835594609379768,1,-0.04561426118016243,1
1772660162534224640,-0.1512982994318008,1,-0.2021906226873398,1,0.03971758484840393,1,0.001808062195777893,1,0.006144193466752768,1,-0.05257828533649445,1
1772660162544097536,-0.1736166179180145,1,-0.1296939998865128,1,0.05273418128490448,1,0.002535557141527534,1,0.008396915160119534,1,-0.02420100010931492,1
1772660162554775296,-0.4879632592201233,1,0.003073506057262421,1,0.02345901727676392,1,0.00410096999257803,1,0.01063500810414553,1,0.01603125035762787,1
1772660162565350144,0.01184183545410633,1,0.1312802284955978,1,0.02981972135603428,1,0.007085388526320457,1,0.006928987801074982,1,0.03273304924368858,1
1772660162575822336,-0.1912177950143814,1,0.09439854323863983,1,0.04938085004687309,1,0.007353079970926046,1,0.0064454753883183,1,0.0234542191028595,1
1772660162586191872,-0.01767224632203579,1,0.05515599250793457,1,0.04980524629354477,1,0.00676674535498023,1,0.005741890519857407,1,0.03631121292710304,1
1772660162596467968,-0.1502075493335724,1,-0.07055487483739853,1,0.03910287469625473,1,0.0108730923384428,1,0.004171547945588827,1,0.07548080384731293,1
1772660162606646528,0.1688078343868256,1,-0.06967355310916901,1,0.04868140071630478,1,0.01031831651926041,1,0.002746993908658624,1,0.1212828829884529,1
1772660162616724992,-0.1993595808744431,1,-0.1595044136047363,1,0.06209905073046684,1,0.003523082472383976,1,0.005934791639447212,1,0.1548547148704529,1
1772660162626706432,-0.0005277171730995178,1,-0.009134040214121342,1,0.04459160193800926,1,0.001162583939731121,1,0.005922749638557434,1,0.1825271099805832,1
1772660162636591104,-0.1453093886375427,1,0.01851355656981468,1,0.03857364505529404,1,0.002316141268238425,1,0.005588597152382135,1,0.1957672238349915,1
1772660162646377216,-0.1177271977066994,1,0.05700390040874481,1,0.0396478958427906,1,0.00231432169675827,1,0.00400084350258112,1,0.2181648761034012,1
1772660162656069120,-0.2099775671958923,1,0.04242017865180969,1,0.03883055597543716,1,0.003667554119601846,1,0.003048670943826437,1,0.247859314084053,1
1772660162665667584,-0.1169171556830406,1,0.004638558253645897,1,0.067409947514534,1,-0.001423868583515286,1,0.004099549259990454,1,0.2917396724224091,1
1772660162675171840,0.03242631256580353,1,0.01196317747235298,1,0.03659521415829659,1,-0.002150980290025473,1,0.004040657542645931,1,0.3276631832122803,1
1772660162684582912,-0.1648900210857391,1,0.002843564376235008,1,0.02032928541302681,1,-0.000531691184733063,1,0.002616305602714419,1,0.3465940654277802,1
1772660162693901312,-0.1596763581037521,1,-0.03615741804242134,1,0.0786852166056633,1,0.001286219689063728,1,0.001145201735198498,1,0.3484934568405151,1
1772660162704354048,-0.145545095205307,1,-0.1610120385885239,1,0.04131875559687614,1,-0.002777990885078907,1,0.004161503165960312,1,0.3152971863746643,1
1772660162715011584,-0.382179319858551,1,-0.2365583032369614,1,0.03114521689713001,1,-0.001701221219263971,1,0.004292759578675032,1,0.2897528111934662,1
1772660162725563904,-0.1656879633665085,1,-0.2314036041498184,1,0.02922824956476688,1,0.003633959218859673,1,0.004707147367298603,1,0.2617053389549255,1
1772660162736013568,-0.4233347177505493,1,-0.2251605987548828,1,0.04210399463772774,1,0.0003256723284721375,1,0.006724884267896414,1,0.2206169217824936,1
1772660162746361600,-0.3019852638244629,1,-0.0292343944311142,1,0.04056160151958466,1,0.0004618660605046898,1,0.006850213278084993,1,0.1991087943315506,1
1772660162756609280,-0.1952728778123856,1,0.004498031921684742,1,0.04844647645950317,1,0.00349986762739718,1,0.007887630723416805,1,0.1803779155015945,1
1772660162766757120,-0.3312536776065826,1,0.1322804689407349,1,0.03379901871085167,1,-0.0004427974054124206,1,0.009114230051636696,1,0.1855323612689972,1
1772660162776809728,-0.2669096291065216,1,0.1576343923807144,1,0.04105348885059357,1,-0.0001824247883632779,1,0.008090067654848099,1,0.1684662848711014,1
1772660162786764544,-0.008003410883247852,1,0.07166113704442978,1,0.04088051617145538,1,-4.744573379866779e-05,1,0.009065551683306694,1,0.1200955957174301,1
1772660162796622848,-0.3858996331691742,1,0.07832688093185425,1,0.03570789843797684,1,0.0003867184277623892,1,0.005956701468676329,1,0.05093926191329956,1
1772660162806385152,-0.1607709378004074,1,0.1275098472833633,1,0.02971003390848637,1,0.006207259837538004,1,0.002170498250052333,1,-0.02923398092389107,1
1772660162816053248,-0.07528513669967651,1,0.07545449584722519,1,0.05381692945957184,1,0.0009872072841972113,1,0.00224507600069046,1,-0.1070471331477165,1
1772660162825628928,-0.1200362145900726,1,0.06269103288650513,1,0.01507178880274296,1,0.002694673370569944,1,0.003128465497866273,1,-0.1600018441677094,1
1772660162835112960,0.0143531896173954,1,0.0893067941069603,1,0.0290555227547884,1,0.002943929517641664,1,0.002915864810347557,1,-0.1572254449129105,1
1772660162844504832,0.1234615594148636,1,0.02809084393084049,1,0.03105307556688786,1,-0.001833679969422519,1,0.001714008278213441,1,-0.1428530663251877,1
1772660162853959424,-0.0356278233230114,1,0.02582315728068352,1,0.04172898456454277,1,-0.001782924169674516,1,0.0008792816661298275,1,-0.1276762336492538,1
1772660162864703488,-0.208621546626091,1,0.08837206661701202,1,0.04862844198942184,1,-0.0001145813439507037,1,0.0003815722302533686,1,-0.1531236618757248,1
1772660162875343104,-0.2757900357246399,1,0.05637951195240021,1,0.04076896980404854,1,-0.0006350327748805285,1,1.772052200976759e-05,1,-0.2500430345535278,1
1772660162885877248,-0.4596417546272278,1,0.06400754302740097,1,0.03811438009142876,1,-0.003628909820690751,1,0.001066091237589717,1,-0.3610458672046661,1
1772660162896311040,-0.5213930606842041,1,0.08775755763053894,1,0.04238719493150711,1,-0.005778863560408354,1,-0.0002746179525274783,1,-0.4227564036846161,1
1772660162906642688,-0.2148759961128235,1,0.02763247489929199,1,0.04965139925479889,1,-0.00811547227203846,1,-0.0002032721968134865,1,-0.4353791475296021,1
1772660162916874752,-0.1931042671203613,1,0.03316577896475792,1,0.04279914125800133,1,-0.006923711858689785,1,-0.001034479471854866,1,-0.388279914855957,1
1772660162927009280,0.1452859044075012,1,0.03879718109965324,1,0.02279204130172729,1,0.0001707721676211804,1,-0.001608675927855074,1,-0.3366158008575439,1
1772660162937046272,0.2003185600042343,1,-0.06842194497585297,1,0.03917425498366356,1,0.003569697262719274,1,-0.001740575185976923,1,-0.3014853894710541,1
1772660162946983424,0.1714374721050262,1,-0.04067685455083847,1,0.03762856125831604,1,0.003483832580968738,1,-0.002224226715043187,1,-0.2581090927124023,1
1772660162956823296,0.1785294711589813,1,-0.02328268624842167,1,0.03606256097555161,1,0.005027623847126961,1,-0.002313685836270452,1,-0.2032312452793121,1
1772660162966566400,0.2078375071287155,1,-0.08001280575990677,1,0.05918975919485092,1,0.003674570238217711,1,-0.001750764553435147,1,-0.1216040179133415,1
1772660162976212480,0.207343190908432,1,-0.112933412194252,1,0.05764004215598106,1,-0.003122891066595912,1,0.001069307094439864,1,-0.03636994957923889,1
1772660162985765120,0.1963824480772018,1,-0.1292099505662918,1,0.06114105135202408,1,-0.006631019990891218,1,0.002833849517628551,1,0.03751941025257111,1
1772660162995222528,0.01913757249712944,1,-0.09431105852127075,1,0.04044147580862045,1,-0.003388025797903538,1,0.003189340699464083,1,0.0859953910112381,1
1772660163004588288,0.01857389137148857,1,-0.1040749698877335,1,0.02715406194329262,1,-0.003480291459709406,1,0.002392301335930824,1,0.1001352444291115,1
1772660163014014208,0.03683699294924736,1,-0.04297411814332008,1,0.04602424055337906,1,-9.499090083409101e-05,1,0.001031913096085191,1,0.09593228250741959,1
1772660163024721408,0.01006285566836596,1,0.03132900223135948,1,0.03108426555991173,1,-0.003104030853137374,1,0.0008810155559331179,1,0.09050289541482925,1
1772660163035324160,0.172906219959259,1,0.09550029784440994,1,0.02465051412582397,1,0.003659793408587575,1,-0.0001769029186107218,1,0.08343791961669922,1
1772660163045822464,0.2039304226636887,1,0.03345669806003571,1,0.04290582984685898,1,0.002244412433356047,1,0.002928461646661162,1,0.08663952350616455,1
1772660163056218112,-0.142016589641571,1,0.006487738341093063,1,0.04975955933332443,1,-0.00240617198869586,1,0.006617216859012842,1,0.1141150519251823,1
1772660163066511872,0.07385946810245514,1,0.08779770880937576,1,0.04080725088715553,1,-0.002402136335149407,1,0.006803767289966345,1,0.1670637726783752,1
1772660163076705792,-0.01454538106918335,1,-0.01582444459199905,1,0.03690365701913834,1,-0.001824955921620131,1,0.007529851514846087,1,0.1939081400632858,1
1772660163086804224,-0.1267049461603165,1,-0.07369159162044525,1,0.03016222268342972,1,0.0008802950032986701,1,0.005521376617252827,1,0.1973492950201035,1
1772660163096802816,-0.09930545836687088,1,-0.2035660594701767,1,0.05536040291190147,1,-0.001181886298581958,1,0.004182321019470692,1,0.1626227200031281,1
1772660163106703872,-0.08978461474180222,1,-0.1987902671098709,1,0.03473003953695297,1,0.002727104583755136,1,0.003208889160305262,1,0.1305053383111954,1
1772660163116507136,0.03925412148237228,1,-0.2128113359212875,1,0.03081223554909229,1,0.005388627760112286,1,0.001635314663872123,1,0.1120847687125206,1
1772660163126212352,0.03216017782688141,1,-0.172588586807251,1,0.04551834240555763,1,0.001033389242365956,1,0.002024269197136164,1,0.1000151112675667,1
1772660163135822592,-0.1233367025852203,1,-0.0532853975892067,1,0.04152525961399078,1,0.002554428298026323,1,0.0005335905589163303,1,0.08700188249349594,1
1772660163145338112,-0.04913172870874405,1,0.05210705101490021,1,0.04779975861310959,1,0.0001920770155265927,1,0.001106114708818495,1,0.0973714143037796,1
1772660163154759168,-0.2040871977806091,1,0.0683286041021347,1,0.04537731781601906,1,-0.007555440533906221,1,0.003047579433768988,1,0.09225980937480927,1
1772660163164088832,-0.0154088381677866,1,0.01338078547269106,1,0.04609217867255211,1,-0.007366231177002192,1,0.004574063699692488,1,0.07355695962905884,1
1772660163174095872,-0.1504708528518677,1,-0.05415961146354675,1,0.0547003448009491,1,-0.004058788064867258,1,0.004428049083799124,1,0.08391439914703369,1
1772660163184772352,-0.1026515364646912,1,-0.09209444373846054,1,0.03754977136850357,1,-0.002306326990947127,1,0.002252269769087434,1,0.1119256094098091,1
1772660163195343104,0.09542953222990036,1,-0.1485389173030853,1,0.03620930016040802,1,0.0002734443405643106,1,0.001255305833183229,1,0.1305091381072998,1
1772660163205810688,0.1730535477399826,1,-0.2414580136537552,1,0.02965058386325836,1,0.003903541946783662,1,0.00127345893997699,1,0.1128679290413857,1
1772660163216175616,0.00589202344417572,1,-0.1120618805289268,1,0.04175294190645218,1,0.002975483192130923,1,0.0007769312360323966,1,0.08849406987428665,1
1772660163226438656,0.1978940516710281,1,0.07866204530000687,1,0.02203320153057575,1,0.004910937044769526,1,0.001202253857627511,1,0.05981424450874329,1
1772660163236601856,0.0148626072332263,1,0.166186198592186,1,0.01436009258031845,1,0.0004782767791766673,1,0.001164045883342624,1,0.03242663666605949,1
1772660163246663424,0.004315837752074003,1,0.213764876127243,1,0.02991546876728535,1,4.405385334393941e-05,1,0.001489682821556926,1,0.0130709744989872,1
1772660163256625664,-0.1391560435295105,1,0.271939218044281,1,0.0436224564909935,1,0.002414319198578596,1,-0.0009692754247225821,1,0.01170354429632425,1
1772660163266490624,-0.0217723585665226,1,0.2298928499221802,1,0.04943991452455521,1,-8.774112211540341e-05,1,-0.0004209676117170602,1,0.03097205609083176,1
1772660163276257792,0.2387261092662811,1,0.1796149611473083,1,0.02801551669836044,1,0.003070121863856912,1,-0.001189106027595699,1,0.05260789394378662,1
1772660163285929728,0.243595689535141,1,0.02032694779336452,1,0.05665521323680878,1,0.001988556236028671,1,0.00106365024112165,1,0.07622072845697403,1
1772660163295505408,0.3180514574050903,1,0.017788952216506,1,0.02655764296650887,1,-6.038486026227474e-05,1,0.001600301708094776,1,0.1130584180355072,1
1772660163304986880,0.1605915725231171,1,0.04615719243884087,1,0.04942939803004265,1,0.001694099395535886,1,0.001366368378512561,1,0.121087022125721,1
1772660163314380800,0.4156501591205597,1,-0.03618683665990829,1,0.04991304874420166,1,-0.0006581451161764562,1,0.00369629543274641,1,0.1073263809084892,1
1772660163323682304,0.1447548568248749,1,-0.09511473029851913,1,0.04413481429219246,1,-0.0004691507201641798,1,0.003288897918537259,1,0.1014421209692955,1
1772660163334132992,0.03242514282464981,1,0.02817468717694283,1,0.0376262292265892,1,0.003181501524522901,1,0.002312037162482738,1,0.1223358064889908,1
1772660163344788736,0.1202606335282326,1,0.06998994946479797,1,0.04000415652990341,1,0.002336691133677959,1,0.002595123369246721,1,0.1367473304271698,1
1772660163355340800,-0.2625870108604431,1,0.03351771831512451,1,0.05736707895994186,1,0.001540823141112924,1,0.003777142614126205,1,0.140228345990181,1
1772660163365788160,-0.1098394393920898,1,0.1188255026936531,1,0.03804556652903557,1,-0.00249183876439929,1,0.004818852059543133,1,0.1509526371955872,1
1772660163376132352,-0.06083382293581963,1,-0.03787092119455338,1,0.0440044105052948,1,-0.001740135019645095,1,0.004558251705020666,1,0.1455137133598328,1
1772660163386377472,-0.006470084190368652,1,-0.004762078635394573,1,0.02819542400538921,1,-0.0008629143703728914,1,0.002653435338288546,1,0.1318909525871277,1
1772660163396520192,-0.1900660842657089,1,0.002627987414598465,1,0.02822717279195786,1,0.001883474993519485,1,0.003334811655804515,1,0.102255716919899,1
1772660163406563840,0.07914327085018158,1,0.02779516391456127,1,0.02359201945364475,1,0.004603599663823843,1,0.002087700879201293,1,0.07818474620580673,1
1772660163416508672,-0.040943693369627,1,-0.0965004488825798,1,0.04985494539141655,1,0.002144244965165854,1,0.001996922306716442,1,0.04863864555954933,1
1772660163426354432,-0.3617026209831238,1,-0.112621434032917,1,0.03175502642989159,1,0.001717049279250205,1,0.00172563933301717,1,0.02854020334780216,1
1772660163436102912,-0.3632905185222626,1,-0.1438338756561279,1,0.04631449654698372,1,0.003415025770664215,1,0.002801666734740138,1,0.01246712543070316,1
1772660163445756160,-0.5224965810775757,1,-0.1286112815141678,1,0.03982978314161301,1,0.005734719336032867,1,0.001968127442523837,1,0.009371361695230007,1
1772660163455313152,-0.3967306315898895,1,-0.04029642790555954,1,0.04677591472864151,1,0.004240843933075666,1,0.002687545027583838,1,0.01690137200057507,1
1772660163464776960,-0.5332719683647156,1,0.06942184269428253,1,0.04156050831079483,1,0.003096385626122355,1,0.001875679474323988,1,0.03447596728801727,1
1772660163474147072,-0.2086544334888458,1,0.1151283085346222,1,0.02762855961918831,1,0.0004957679775543511,1,0.0009000096470117569,1,0.05714680254459381,1
1772660163483580672,-0.007379069924354553,1,-0.08861842006444931,1,0.04922878369688988,1,0.003238848876208067,1,0.0004228398320265114,1,0.06949739903211594,1
1772660163494323456,0.009984619915485382,1,-0.1326206624507904,1,0.02588428743183613,1,0.0059128412976861,1,0.0009431124781258404,1,0.1276609897613525,1
1772660163504961280,-0.05303756147623062,1,-0.04735233634710312,1,0.03875136002898216,1,0.003131266217678785,1,0.00284085120074451,1,0.1319247335195541,1
1772660163515497984,-0.1851499080657959,1,-0.06589434295892715,1,0.05058721452951431,1,0.0002034741046372801,1,0.003810170339420438,1,0.0971754863858223,1
1772660163525931776,-0.2009775191545486,1,0.08187378197908401,1,0.0474473349750042,1,-0.001242493628524244,1,0.002306188689544797,1,0.07365600019693375,1
1772660163536265216,-0.2706959545612335,1,0.06950370222330093,1,0.0458291620016098,1,-0.0004786020726896822,1,-0.0005079481634311378,1,0.06929470598697662,1
1772660163546498816,-0.2345537841320038,1,0.1074253171682358,1,0.03910471498966217,1,0.0004198487149551511,1,-0.0001471544674132019,1,0.07466202974319458,1
1772660163556632576,-0.2355505526065826,1,0.1211186349391937,1,0.05689648538827896,1,0.003118494292721152,1,0.0008804801618680358,1,0.08530406653881073,1
1772660163566665984,-0.02827217429876328,1,0.0401819683611393,1,0.03825857490301132,1,0.000127369916299358,1,0.002491047605872154,1,0.08224732428789139,1
1772660163576608768,0.02278229594230652,1,0.06833061575889587,1,0.02491459250450134,1,0.001025472534820437,1,0.0009756936342455447,1,0.07807283103466034,1
1772660163586462720,0.05849675089120865,1,0.03547942265868187,1,0.03750237822532654,1,0.001290853135287762,1,-0.0003483074251562357,1,0.06672763079404831,1
1772660163596221440,0.2998241484165192,1,0.1850091964006424,1,0.04049572721123695,1,0.00440111942589283,1,0.0004086291883140802,1,0.06682316958904266,1
1772660163605884160,0.2409430891275406,1,0.1397770494222641,1,0.05077327787876129,1,-0.0003456759150139987,1,0.002148989355191588,1,0.06378994137048721,1
1772660163615452928,-0.08810730278491974,1,0.185316264629364,1,0.0454975888133049,1,-0.001940851332619786,1,0.004448409657925367,1,0.09412205219268799,1
1772660163624928512,0.01639545150101185,1,0.08986521512269974,1,0.04575281590223312,1,0.003865339094772935,1,0.002429767977446318,1,0.147841215133667,1
1772660163634310656,-0.009570905938744545,1,-0.04132966324687004,1,0.03873719647526741,1,0.002726170234382153,1,0.00161416141781956,1,0.1920536756515503,1
1772660163643906560,-0.02779301255941391,1,-0.07455098628997803,1,0.04760272800922394,1,-0.0002409532899037004,1,0.003645824501290917,1,0.2127333283424377,1
1772660163654615552,0.155509740114212,1,-0.008031126111745834,1,0.0583852231502533,1,-0.0040177539922297,1,0.004152390640228987,1,0.2006647288799286,1
1772660163665220096,0.1938316971063614,1,0.04796369001269341,1,0.06071389466524124,1,-0.005339121446013451,1,0.00534020597115159,1,0.1753685623407364,1
1772660163675721216,0.1430775076150894,1,0.09540273249149323,1,0.04486970603466034,1,-0.008806676603853703,1,0.006405983585864305,1,0.1615391224622726,1
1772660163686120960,0.03226393833756447,1,0.1391422599554062,1,0.04200035706162453,1,-0.005509410053491592,1,0.004769554361701012,1,0.164824515581131,1
1772660163696418560,0.03606259077787399,1,0.1402470320463181,1,0.03698032349348068,1,-0.005988229531794786,1,0.003334950422868133,1,0.1980571001768112,1
1772660163706615040,0.0137323746457696,1,0.130096510052681,1,0.04955325275659561,1,-0.002263149712234735,1,0.001904507400467992,1,0.23182113468647,1
1772660163716711936,0.02091109752655029,1,0.1647521108388901,1,0.03143951296806335,1,-0.005516266450285912,1,0.004141551442444324,1,0.2479283064603806,1
1772660163726711040,0.1875812411308289,1,0.1813836991786957,1,0.04127037152647972,1,-0.0026108433958143,1,0.005166719201952219,1,0.2321048825979233,1
1772660163736611328,0.03315503522753716,1,0.1392886489629745,1,0.0319494754076004,1,-0.002539229579269886,1,0.006355310790240765,1,0.2306172400712967,1
1772660163746415360,0.009237214922904968,1,0.08654017746448517,1,0.03205882012844086,1,-0.001251018373295665,1,0.007244182284921408,1,0.2501999735832214,1
1772660163756124416,0.02079136669635773,1,0.05616991594433784,1,0.03511793911457062,1,-0.003239738289266825,1,0.006840141490101814,1,0.2508822381496429,1
1772660163765737472,-0.1294042021036148,1,0.0181852150708437,1,0.02281643822789192,1,1.832377165555954e-07,1,0.005715651903301477,1,0.2371202558279037,1
1772660163775256576,-0.3998343646526337,1,0.03634535148739815,1,0.03768490999937057,1,0.001759368809871376,1,0.006204806268215179,1,0.2654924690723419,1
1772660163784687616,-0.2646064162254333,1,0.07993315160274506,1,0.0500013455748558,1,0.001201970037072897,1,0.007547534536570311,1,0.279964417219162,1
1772660163794030848,-0.601711094379425,1,0.1131731420755386,1,0.0330108217895031,1,0.001259414479136467,1,0.007527217734605074,1,0.2728886306285858,1
1772660163804045312,-0.4206404685974121,1,0.1118242517113686,1,0.04190352559089661,1,0.002852189354598522,1,0.007184567395597696,1,0.2669239640235901,1
1772660163814720512,-0.3332235217094421,1,0.06232980638742447,1,0.05078728869557381,1,0.001721117529086769,1,0.005617158487439156,1,0.2716427445411682,1
1772660163825291520,-0.2410522401332855,1,0.03304896876215935,1,0.03074917569756508,1,0.002642126986756921,1,0.004212004598230124,1,0.2770535945892334,1
1772660163835758848,-0.3459890186786652,1,0.07068824023008347,1,0.03275766968727112,1,0.005775462836027145,1,0.001972892787307501,1,0.3132436573505402,1
1772660163846122496,-0.3146485984325409,1,0.1385276764631271,1,0.03041737526655197,1,0.00513466726988554,1,0.002603725530207157,1,0.3493600785732269,1
1772660163856382976,-0.1477609872817993,1,0.1571335941553116,1,0.02858301438391209,1,0.006968553643673658,1,0.001731543219648302,1,0.3749999105930328,1
1772660163866543616,-0.1525066196918488,1,0.1129391491413116,1,0.04921221360564232,1,0.008399697951972485,1,0.002078443998470902,1,0.3896679878234863,1
1772660163876603904,-0.2446149736642838,1,0.09774298220872879,1,0.0475122481584549,1,0.005277990363538265,1,0.002778973197564483,1,0.412233829498291,1
1772660163886571008,-0.1401438266038895,1,0.0848383754491806,1,0.04372908920049667,1,0.002866257913410664,1,0.003074532840400934,1,0.4321196377277374,1
1772660163896441856,-0.009789379313588142,1,0.1033579334616661,1,0.03914426639676094,1,0.003396628890186548,1,0.001751322997733951,1,0.4499948918819427,1
1772660163906216960,-0.1400987207889557,1,0.03890200331807137,1,0.03922756388783455,1,0.006257051602005959,1,0.0006334159406833351,1,0.476254016160965,1
1772660163915894528,0.1183623522520065,1,-0.06529327481985092,1,0.04506704211235046,1,0.006590832490473986,1,0.001166263595223427,1,0.5007612705230713,1
1772660163925477376,0.1039023399353027,1,-0.07691118866205215,1,0.04232293367385864,1,0.008869064971804619,1,0.002450457308441401,1,0.5254521369934082,1
1772660163934966016,0.1609066277742386,1,-0.05199657380580902,1,0.04863103479146957,1,-0.0003106858348473907,1,0.005293772090226412,1,0.5427291393280029,1
1772660163944360704,0.2987944483757019,1,-0.001590052619576454,1,0.04470000416040421,1,0.00249621388502419,1,0.005733896978199482,1,0.5572062730789185,1
1772660163953663744,0.2960751354694366,1,0.04138178378343582,1,0.03349413350224495,1,0.002032985212281346,1,0.006074766162782907,1,0.5749087929725647,1
1772660163964113664,0.3546308279037476,1,0.05372866243124008,1,0.03934865444898605,1,0.004895974416285753,1,0.004649735055863857,1,0.5996807217597961,1
1772660163974769664,0.2820876836776733,1,0.02974206954240799,1,0.05189743265509605,1,0.003510005539283156,1,0.004904362373054028,1,0.6312770843505859,1
1772660163985322240,0.4206860363483429,1,0.03172976151108742,1,0.04419968277215958,1,0.003477151738479733,1,0.005201644264161587,1,0.6531034111976624,1
1772660163995769600,0.1440987586975098,1,-0.0006306543946266174,1,0.06892497837543488,1,0.001327077276073396,1,0.006926479283720255,1,0.6787442564964294,1
1772660164006115072,-0.05800324678421021,1,-0.03100607171654701,1,0.04567267373204231,1,-0.001842835452407598,1,0.007850002497434616,1,0.7068170309066772,1
1772660164016364032,-0.08406629413366318,1,0.01152318343520164,1,0.0360863022506237,1,-0.003103438299149275,1,0.008132176473736763,1,0.7300044298171997,1
1772660164026513664,-0.01403149496763945,1,0.04961347579956055,1,0.03929559886455536,1,-0.007139468099921942,1,0.00851105060428381,1,0.7541652321815491,1
1772660164036565760,0.1412519961595535,1,0.1219492107629776,1,0.0330522432923317,1,-0.003919166047126055,1,0.007160751614719629,1,0.7669020891189575,1
1772660164046520832,0.1124869883060455,1,0.1807930171489716,1,0.0398661345243454,1,-0.003817686112597585,1,0.006645127665251493,1,0.7618363499641418,1
1772660164056378368,0.3208200037479401,1,0.1309005171060562,1,0.02835376001894474,1,-0.004373795818537474,1,0.006545068230479956,1,0.7320600152015686,1
1772660164066140160,0.2399516105651855,1,0.1262882202863693,1,0.03661346063017845,1,-0.00219174544326961,1,0.0060871671885252,1,0.6954444646835327,1
1772660164075809024,0.2594860196113586,1,0.2382446229457855,1,0.05128118768334389,1,-0.003818013006821275,1,0.006643235217779875,1,0.6791107654571533,1
1772660164085392384,0.1154435500502586,1,0.3291339576244354,1,0.02656538411974907,1,-0.002632764400914311,1,0.006682663690298796,1,0.6830496788024902,1
1772660164094883072,0.2185286283493042,1,0.2443477362394333,1,0.02913749031722546,1,-0.0008253042469732463,1,0.006472710520029068,1,0.6888590455055237,1
1772660164104280320,0.1807162314653397,1,0.1066301390528679,1,0.04305463656783104,1,-0.0003393529332242906,1,0.007407843600958586,1,0.6836342811584473,1
1772660164113739520,0.1067786291241646,1,0.09300205111503601,1,0.03450651839375496,1,0.003082498209550977,1,0.007338653784245253,1,0.6738528609275818,1
1772660164124479744,0.3329509198665619,1,0.09421544522047043,1,0.03555623069405556,1,0.004349234979599714,1,0.005756235215812922,1,0.6510884761810303,1
1772660164135116288,0.4622175991535187,1,0.1717242896556854,1,0.03889480978250504,1,0.0078131053596735,1,0.005586704704910517,1,0.6335986852645874,1
1772660164145648384,0.3739603459835052,1,0.2486971914768219,1,0.03130040690302849,1,0.01075828727334738,1,0.0054116016253829,1,0.6222766041755676,1
1772660164156080384,0.2813110649585724,1,0.2413158714771271,1,0.01451222412288189,1,0.005191482603549957,1,0.005358457565307617,1,0.6309992671012878,1
1772660164166410496,0.318041205406189,1,0.08874882012605667,1,0.05099982023239136,1,0.008974997326731682,1,0.004650333896279335,1,0.6379261612892151,1
1772660164176640768,0.1763346791267395,1,0.07028207927942276,1,0.04609755799174309,1,0.009794244542717934,1,0.005023457109928131,1,0.6505180597305298,1
1772660164186772224,0.0662488266825676,1,0.1251746267080307,1,0.02425090037286282,1,0.008818034082651138,1,0.004022415261715651,1,0.68097323179245,1
1772660164196808448,-0.06393363326787949,1,0.1091771572828293,1,0.04304555803537369,1,0.007896758615970612,1,0.003828410757705569,1,0.7192073464393616,1
1772660164206746112,0.02509330585598946,1,0.218810647726059,1,0.04914696142077446,1,0.002859993139281869,1,0.006138941273093224,1,0.7652980089187622,1
1772660164216587264,-0.1862846463918686,1,0.2997871339321136,1,0.03083922527730465,1,0.00293262442573905,1,0.006795958615839481,1,0.8169500231742859,1
1772660164226332160,-0.2932795286178589,1,0.09878946840763092,1,0.04356986656785011,1,0.003918512258678675,1,0.006831495556980371,1,0.8560346364974976,1
1772660164235982336,-0.003147264244034886,1,0.09112038463354111,1,0.04004143178462982,1,-0.001345763681456447,1,0.00869542732834816,1,0.8772496581077576,1
1772660164245537536,-0.2629867792129517,1,0.1379430145025253,1,0.04707005247473717,1,-0.002639203099533916,1,0.01087526418268681,1,0.9080711603164673,1
1772660164255000320,-0.05169709399342537,1,0.331867903470993,1,0.05846588686108589,1,-0.001584116602316499,1,0.01106409821659327,1,0.9700790643692017,1
1772660164264371200,-0.1685552895069122,1,0.2476562261581421,1,0.05086398497223854,1,-0.007092315703630447,1,0.01435145549476147,1,1.016647100448608,1
1772660164273955328,-0.4334369599819183,1,0.04757601022720337,1,0.0411565937101841,1,-0.009790289215743542,1,0.01555618178099394,1,1.069176554679871,1
1772660164284661504,-0.258660227060318,1,-0.09719885140657425,1,0.03041749447584152,1,-0.01002898719161749,1,0.01554571744054556,1,1.105804443359375,1
1772660164295261952,-0.2844217717647552,1,-0.3231756389141083,1,0.04681983962655067,1,-0.007852131500840187,1,0.01398006081581116,1,1.115689277648926,1
1772660164305758464,-0.321317732334137,1,-0.4181223809719086,1,0.04656563699245453,1,-0.00499775679782033,1,0.01163163501769304,1,1.102259874343872,1
1772660164316150272,-0.1631562113761902,1,-0.3357017636299133,1,0.05976468324661255,1,-0.005046956706792116,1,0.01001623086631298,1,1.052151560783386,1
1772660164326443776,-0.253397673368454,1,-0.1528537571430206,1,0.03014147281646729,1,-0.003492095973342657,1,0.01062838453799486,1,0.9692726135253906,1
1772660164336635136,-0.4406020939350128,1,0.07938208431005478,1,0.05942309275269508,1,0.0002834003244061023,1,0.009083415381610394,1,0.8919984698295593,1
1772660164346725888,-0.4341963529586792,1,0.41697096824646,1,0.03191417455673218,1,-4.207176971249282e-05,1,0.008010527119040489,1,0.8613088726997375,1
1772660164356717824,0.06901532411575317,1,0.3189207315444946,1,0.04109865427017212,1,-0.0007642245036549866,1,0.007036782801151276,1,0.8411103487014771,1
1772660164366610432,-0.08727609366178513,1,0.3050161898136139,1,0.0410061702132225,1,0.001119763241149485,1,0.00492395693436265,1,0.8328046202659607,1
1772660164376406784,0.1535168290138245,1,0.3318172097206116,1,0.03760657086968422,1,0.0001882130745798349,1,0.005021685268729925,1,0.8476021289825439,1
1772660164386107136,0.1674176901578903,1,0.2343889772891998,1,0.04305745661258698,1,0.003259893506765366,1,0.004336138255894184,1,0.8621089458465576,1
1772660164395712256,0.4855644702911377,1,0.1168810278177261,1,0.03470510989427567,1,0.001299816998653114,1,0.005693944171071053,1,0.8703784346580505,1
1772660164405221632,0.2373719811439514,1,-0.009343570098280907,1,0.05019958317279816,1,0.005284904967993498,1,0.005138527601957321,1,0.873900294303894,1
1772660164414637312,0.2000875771045685,1,-0.01808015070855618,1,0.03051482886075974,1,0.005657505244016647,1,0.006169674452394247,1,0.8873308897018433,1
1772660164423960832,0.362551361322403,1,0.1905808001756668,1,0.03336736932396889,1,0.005313888657838106,1,0.005398522596806288,1,0.8801327347755432,1
1772660164433965568,0.1783082336187363,1,0.4211183786392212,1,0.0392116941511631,1,0.004891476593911648,1,0.006404311396181583,1,0.882143497467041,1
1772660164444643328,0.3321599066257477,1,0.5391902923583984,1,0.01768537983298302,1,0.008662032894790173,1,0.005003851372748613,1,0.9015913009643555,1
1772660164455218944,0.420504629611969,1,0.5004473328590393,1,0.03877032920718193,1,0.00900966115295887,1,0.006092404015362263,1,0.9237379431724548,1
1772660164465691136,0.2501598000526428,1,0.4715548455715179,1,0.04458774626255035,1,0.009736658073961735,1,0.006154744885861874,1,0.9746474027633667,1
1772660164476061696,0.1794303208589554,1,0.2555026412010193,1,0.03703461214900017,1,0.006445592734962702,1,0.006086392793804407,1,1.05121386051178,1
1772660164486329856,0.2506026029586792,1,0.1596047282218933,1,0.0392787978053093,1,0.002099981531500816,1,0.00711046764627099,1,1.111465573310852,1
1772660164496502784,0.4287512302398682,1,0.04640814289450645,1,0.04876948520541191,1,0.002960572717711329,1,0.007018673699349165,1,1.132253646850586,1
1772660164506581504,0.3337796032428741,1,0.08157368749380112,1,0.04197357594966888,1,0.0005015060887672007,1,0.007152598816901445,1,1.13168740272522,1
1772660164516561920,0.2852301299571991,1,0.05207252874970436,1,0.0357968844473362,1,-0.000522594025824219,1,0.007543820422142744,1,1.114355087280273,1
1772660164526444544,0.06710131466388702,1,-0.03078848123550415,1,0.07272206246852875,1,0.0007530979346483946,1,0.007518903352320194,1,1.094157338142395,1
1772660164536232192,-0.02956855669617653,1,-0.1132505536079407,1,0.04682664945721626,1,0.00274025066755712,1,0.008049800992012024,1,1.087248682975769,1
1772660164545922816,-0.04980173707008362,1,-0.2639650702476501,1,0.05795338377356529,1,0.0009512132382951677,1,0.009668507613241673,1,1.094008564949036,1
1772660164555520000,0.1974830329418182,1,-0.1373622119426727,1,0.05321402475237846,1,7.334619294852018e-05,1,0.01151951774954796,1,1.101535439491272,1
1772660164565025024,0.2112782746553421,1,-0.02682678587734699,1,0.0225930642336607,1,0.001351385726593435,1,0.01175238844007254,1,1.085568070411682,1
1772660164574436864,0.2394000291824341,1,0.1753931790590286,1,0.04238031804561615,1,0.004795089364051819,1,0.01288483012467623,1,1.048458933830261,1
1772660164583757312,-0.0231072623282671,1,0.4392281472682953,1,0.02244523167610168,1,0.008069129660725594,1,0.01315390225499868,1,1.004958987236023,1
1772660164594209536,0.1015155911445618,1,0.5824758410453796,1,0.05084151774644852,1,0.00505925714969635,1,0.01333342585712671,1,0.9684395790100098,1
1772660164604864768,-0.04491026327013969,1,0.6198434233665466,1,0.03947601094841957,1,0.007005810737609863,1,0.01233428902924061,1,0.9356929063796997,1
1772660164615413760,-0.0333668440580368,1,0.7458396553993225,1,0.02635217271745205,1,0.006693035364151001,1,0.01185614801943302,1,0.947253942489624,1
1772660164625860608,0.2806636989116669,1,0.6795640587806702,1,0.02431783080101013,1,0.003513066796585917,1,0.009564632549881935,1,0.9550646543502808,1
1772660164636208128,0.1669501215219498,1,0.4544820189476013,1,0.04182585328817368,1,0.005088702775537968,1,0.008299984969198704,1,0.9817680716514587,1
1772660164646454272,0.2783094346523285,1,0.2628928124904633,1,0.03254063799977303,1,0.007833325304090977,1,0.008824294432997704,1,1.062635540962219,1
1772660164656599552,0.3174501657485962,1,0.3801645636558533,1,0.03475046157836914,1,0.005827941931784153,1,0.008788839913904667,1,1.17628800868988,1
1772660164666644992,0.1989854425191879,1,0.4684660136699677,1,0.03623227030038834,1,0.005653532221913338,1,0.007168915122747421,1,1.293190479278564,1
1772660164676591872,0.2865663170814514,1,0.4454169273376465,1,0.03647709265351295,1,0.001187801593914628,1,0.008593124337494373,1,1.400576949119568,1
1772660164686439680,0.5452717542648315,1,0.4256412088871002,1,0.01454395800828934,1,0.01016196329146624,1,0.009327705018222332,1,1.49543035030365,1
1772660164696191744,0.5315461158752441,1,0.3057576417922974,1,0.02636522427201271,1,0.01331755798310041,1,0.008505485951900482,1,1.581351757049561,1
1772660164705847040,0.5299534201622009,1,0.317190945148468,1,0.02948327921330929,1,0.006135886535048485,1,0.009761380031704903,1,1.659135580062866,1
1772660164715408384,0.4370051622390747,1,0.2588928937911987,1,-0.01372621580958366,1,0.001030657673254609,1,0.01235761772841215,1,1.652539134025574,1
1772660164724875008,0.1967623084783554,1,0.05736923217773438,1,0.05938483774662018,1,-0.003814754774793983,1,0.01524228136986494,1,1.562722206115723,1
1772660164734247680,0.282559871673584,1,0.2424880266189575,1,0.05599965900182724,1,-0.00727585144340992,1,0.01734643615782261,1,1.506267070770264,1
1772660164743683328,0.1891492903232574,1,0.7198534607887268,1,0.05657512694597244,1,-0.00861491821706295,1,0.01794842071831226,1,1.500648617744446,1
1772660164754421760,0.06971357762813568,1,0.8796073198318481,1,0.02940618246793747,1,-0.005931219551712275,1,0.01689543761312962,1,1.525360345840454,1
1772660164765054464,-0.05315308645367622,1,0.7870539426803589,1,0.0453648753464222,1,-0.003296650480479002,1,0.01515822391957045,1,1.606065392494202,1
1772660164775581696,0.0893227607011795,1,0.6999661922454834,1,0.0193491168320179,1,-7.154450577218086e-05,1,0.01252566743642092,1,1.692311525344849,1
1772660164786006784,0.1867132931947708,1,0.5404426455497742,1,0.01955426670610905,1,0.001693927217274904,1,0.01165777910500765,1,1.747600436210632,1
1772660164796330496,0.2206626832485199,1,0.3040521442890167,1,0.03244314715266228,1,0.008432209491729736,1,0.008807158097624779,1,1.765681743621826,1
1772660164806550016,0.7444300055503845,1,0.1173475086688995,1,0.04906410351395607,1,0.007380277384072542,1,0.01086816750466824,1,1.733702063560486,1
1772660164816672000,0.3571643531322479,1,0.1433742344379425,1,0.02903304249048233,1,0.01344273146241903,1,0.007486429531127214,1,1.688032269477844,1
1772660164826692608,0.169957622885704,1,0.1352961808443069,1,0.02009561657905579,1,0.009484760463237762,1,0.01081721670925617,1,1.670860171318054,1
1772660164836613632,0.2080349773168564,1,0.0697149783372879,1,0.0189867727458477,1,0.01252041943371296,1,0.01087813265621662,1,1.650762319564819,1
1772660164846437632,-0.1099034622311592,1,-0.02924237959086895,1,0.05480865016579628,1,0.01141160633414984,1,0.01122205145657063,1,1.615270495414734,1
1772660164856164352,-0.1422875672578812,1,-0.02688967436552048,1,0.03810402005910873,1,0.008116805925965309,1,0.01055523846298456,1,1.568737030029297,1
1772660164865801216,-0.01387145090848207,1,-0.1034378558397293,1,0.05985695868730545,1,0.002805171301588416,1,0.00835596676915884,1,1.481481194496155,1
1772660164875342848,-0.3951888084411621,1,0.02248439565300941,1,0.04762387275695801,1,-0.002499003428965807,1,0.009181761182844639,1,1.373441815376282,1
1772660164884791808,0.26988285779953,1,0.1697908341884613,1,0.06040570139884949,1,-0.002793764928355813,1,0.0107788098976016,1,1.267198324203491,1
1772660164894147328,0.7886905074119568,1,0.5560542941093445,1,0.02731134183704853,1,-0.001751066069118679,1,0.009047181345522404,1,1.14808714389801,1
1772660164903719168,0.4566022753715515,1,0.5352726578712463,1,0.02790641412138939,1,-0.004194929264485836,1,0.009798478335142136,1,1.030218362808228,1
1772660164914425344,0.9556153416633606,1,0.2167292684316635,1,0.02590850368142128,1,-0.003355614608153701,1,0.008818787522614002,1,0.9686992764472961,1
1772660164925028096,0.7877597212791443,1,-0.0340898409485817,1,0.09563214331865311,1,-0.001612346852198243,1,0.006930170115083456,1,0.9176289439201355,1
1772660164935527168,0.3604108691215515,1,-0.3536718487739563,1,0.03868282586336136,1,0.005092649254947901,1,0.003496125107631087,1,0.9263603687286377,1
1772660164945924096,0.3564434051513672,1,-0.4071953892707825,1,0.03262106329202652,1,0.003116500796750188,1,0.003470448777079582,1,0.9776091575622559,1
1772660164956218880,0.4223341345787048,1,-0.04569534957408905,1,0.05019671097397804,1,-0.0002909296308644116,1,0.0027957649435848,1,1.02439820766449,1
1772660164966414080,0.6406193375587463,1,0.1161853596568108,1,0.06566578894853592,1,-0.005488757975399494,1,0.003992318175733089,1,1.051172494888306,1
1772660164976508416,0.5309059619903564,1,0.04758680611848831,1,0.02339020743966103,1,-0.007328380830585957,1,0.003324294462800026,1,1.022011637687683,1
1772660164986504192,0.4918925762176514,1,0.09844820946455002,1,0.01994932256639004,1,-0.006654880009591579,1,0.003820418380200863,1,0.9647097587585449,1
1772660164996403968,0.458027571439743,1,0.2139678597450256,1,0.04925859346985817,1,0.003124394454061985,1,0.001860169693827629,1,0.925189197063446,1
1772660165006210304,0.6653788089752197,1,0.4274127185344696,1,0.003643108531832695,1,0.007099377457052469,1,0.004988437052816153,1,0.9318146109580994,1
1772660165015921664,0.8731720447540283,1,0.7367437481880188,1,0.08439315855503082,1,0.009509194642305374,1,0.007816163823008537,1,0.9166529178619385,1
1772660165025536512,0.4442131519317627,1,0.8419490456581116,1,0.0664142370223999,1,0.004241709597408772,1,0.007976805791258812,1,0.9196861386299133,1
1772660165035057152,0.4587328732013702,1,0.5546925663948059,1,0.08438131958246231,1,-0.01149530056864023,1,0.009125877171754837,1,0.9366739392280579,1
1772660165044483840,0.5062040686607361,1,0.4233101010322571,1,0.01781383529305458,1,-0.01894658990204334,1,0.01123769953846931,1,0.8931062817573547,1
1772660165053816576,0.03542976826429367,1,0.5403255224227905,1,0.06620514392852783,1,-0.02657276578247547,1,0.01549604907631874,1,0.8194525837898254,1
1772660165063826944,-0.0268891379237175,1,0.6877699494361877,1,-0.05793128907680511,1,-0.01184364967048168,1,0.008491754531860352,1,0.7749937176704407,1
1772660165074503936,0.2396432906389236,1,0.6701464653015137,1,0.05915640294551849,1,0.0005944329313933849,1,0.002593432320281863,1,0.7251718044281006,1
1772660165085078016,-0.1438333094120026,1,0.7609208226203918,1,0.06986233592033386,1,0.01141862012445927,1,0.003895070403814316,1,0.6901463270187378,1
1772660165095548672,-0.1317216157913208,1,0.8362138271331787,1,0.06448289752006531,1,0.01246274448931217,1,0.005421942565590143,1,0.6606020331382751,1
1772660165105917184,-0.4128980934619904,1,0.7552499175071716,1,0.05186643823981285,1,0.0001155344070866704,1,0.008344235830008984,1,0.6816681027412415,1
1772660165116190464,-0.6916307806968689,1,0.6523851156234741,1,0.00996259693056345,1,-0.00633707270026207,1,0.009476208128035069,1,0.7865089774131775,1
1772660165126363904,0.06838095188140869,1,1.27853536605835,1,0.05132022127509117,1,-0.0084671750664711,1,0.009126549586653709,1,0.8520980477333069,1
1772660165136438784,-0.1980250775814056,1,1.187818288803101,1,0.07230231165885925,1,-0.01455258205533028,1,0.01141495443880558,1,0.6858844757080078,1
1772660165146415104,-0.3832437098026276,1,0.5153553485870361,1,0.04459884762763977,1,-0.01518476568162441,1,0.01164143811911345,1,0.5589315295219421,1
1772660165156295168,-0.2937974631786346,1,0.3323560357093811,1,-0.01602350547909737,1,-0.01451818365603685,1,0.01184819638729095,1,0.4868000149726868,1
1772660165166077952,-0.9093455076217651,1,0.1694148033857346,1,0.03005081787705421,1,-0.00237481645308435,1,0.007449002005159855,1,0.4868013262748718,1
1772660165175766272,-0.4790336191654205,1,0.1380374878644943,1,0.03485797345638275,1,-0.001097323838621378,1,0.008840706199407578,1,0.5268414616584778,1
1772660165185361408,0.714698851108551,1,0.5363867282867432,1,0.04531807079911232,1,-0.04220417141914368,1,0.0265913400799036,1,0.557640552520752,1
1772660165194861824,1.54943060874939,1,1.390736103057861,1,-0.006415117532014847,1,-0.03493586182594299,1,0.01883806101977825,1,0.4096183180809021,1
1772660165204270336,-0.2895625233650208,1,1.330740213394165,1,0.006145758554339409,1,-0.02297769300639629,1,0.01070704311132431,1,0.2606132924556732,1
1772660165213587200,-0.7774555087089539,1,0.4924631416797638,1,0.004062172956764698,1,0.01964179426431656,1,-0.00672589335590601,1,0.3513816595077515,1
1772660165224039680,0.1191144287586212,1,0.4695902764797211,1,0.08199452608823776,1,0.02654325589537621,1,-0.01264125574380159,1,0.5032101273536682,1
1772660165234695168,-0.1957534700632095,1,0.429118812084198,1,0.04090144112706184,1,-0.0530356727540493,1,0.03143046423792839,1,0.6085317134857178,1
1772660165245248768,-0.7722193598747253,1,0.03863786160945892,1,-0.00346763152629137,1,-0.07151141762733459,1,0.04146913066506386,1,0.6825875043869019,1
1772660165255697664,-0.6416661143302917,1,-0.7096384763717651,1,0.05506418272852898,1,-0.006909404881298542,1,0.005573561880737543,1,0.6897478103637695,1
1772660165266045184,-0.1824997365474701,1,-1.308030486106873,1,0.1052988544106483,1,-0.0295459870249033,1,0.01669874787330627,1,0.5844925045967102,1
1772660165276292608,0.1962430477142334,1,-0.9209021329879761,1,0.02080994099378586,1,-0.01312226802110672,1,0.01220543589442968,1,0.409241110086441,1
1772660165286439680,0.7285571098327637,1,-0.4507035315036774,1,0.0792340487241745,1,0.01190782431513071,1,-0.002999955322593451,1,0.1999304592609406,1
1772660165296492288,0.4217498302459717,1,0.2080477774143219,1,0.07288094609975815,1,-0.005147994030267,1,0.005648868158459663,1,0.08421614021062851,1
1772660165306448640,-0.1037722676992416,1,0.497225284576416,1,0.02086294256150723,1,-0.002240743953734636,1,0.003941020928323269,1,0.111821785569191,1
1772660165316308224,0.1043097004294395,1,0.2848537862300873,1,-0.02849282510578632,1,0.03167672455310822,1,-0.01381087116897106,1,0.2207672446966171,1
1772660165326071552,-0.157939538359642,1,-0.2706106007099152,1,0.0389118604362011,1,0.04972214624285698,1,-0.02288112975656986,1,0.3497463464736938,1
1772660165335738624,0.4094067215919495,1,-0.5099499225616455,1,0.09688006341457367,1,0.02347158268094063,1,-0.01165674813091755,1,0.451951265335083,1
1772660165345311744,0.08172444254159927,1,-0.4989780485630035,1,0.05433300137519836,1,0.006188549101352692,1,-0.001008733874186873,1,0.5029181241989136,1
1772660165354790912,-0.6736801266670227,1,-0.5673256516456604,1,0.07705775648355484,1,-0.0014794678427279,1,0.01072746142745018,1,0.5509374141693115,1
1772660165364179200,-0.05280213803052902,1,-0.09930124133825302,1,0.02060675993561745,1,-0.02085321396589279,1,0.01683665625751019,1,0.6131401658058167,1
1772660165373628672,-0.7231713533401489,1,-0.3936014473438263,1,0.01749974302947521,1,0.004780594259500504,1,0.002611341420561075,1,0.6938820481300354,1
1772660165384368384,-0.4122924506664276,1,-0.09166289865970612,1,0.05115005746483803,1,-0.001829945365898311,1,0.005686228629201651,1,0.7890146374702454,1
1772660165395003904,0.3222862482070923,1,0.2980002164840698,1,0.07720035314559937,1,-0.03353332728147507,1,0.0217861495912075,1,0.6905912160873413,1
1772660165405537024,0.4262345433235168,1,0.5172080397605896,1,-0.005259573459625244,1,-0.02872606925666332,1,0.01689964532852173,1,0.4432525038719177,1
1772660165415967232,-0.8363195657730103,1,0.6493614315986633,1,-0.06382303684949875,1,0.06733688712120056,1,-0.03162621706724167,1,0.2837567627429962,1
1772660165426294272,-0.6323323249816895,1,0.7346080541610718,1,0.07914780825376511,1,0.03490424901247025,1,-0.01944770850241184,1,0.3045338094234467,1
1772660165436520960,-0.02300193533301353,1,0.329509824514389,1,0.04141275212168694,1,0.02565395273268223,1,-0.01497477106750011,1,0.2702684998512268,1
1772660165446645760,-0.3862571120262146,1,0.2097943425178528,1,0.02250951528549194,1,0.01687069050967693,1,-0.008388815447688103,1,0.3041616380214691,1
1772660165456669440,-0.3309929668903351,1,0.153321161866188,1,0.05776055529713631,1,0.002610428491607308,1,-0.002016611630097032,1,0.2760419547557831,1
1772660165466596608,-0.2500928044319153,1,-0.1516750007867813,1,0.07843387126922607,1,0.003347250865772367,1,-0.002813692903146148,1,0.2309814691543579,1
1772660165476426496,0.0245966799557209,1,0.05282122641801834,1,0.04597126692533493,1,-0.01214940566569567,1,0.005280316341668367,1,0.2151461392641068,1
1772660165486158848,-0.1704572588205338,1,-0.1863702088594437,1,0.05454897508025169,1,-0.01056559849530458,1,0.004777122754603624,1,0.2089701294898987,1
1772660165495795456,-0.3993765413761139,1,-0.4735859334468842,1,0.02183666080236435,1,-0.01176131144165993,1,0.006323364563286304,1,0.2592738270759583,1
1772660165505337344,0.08342628180980682,1,-0.5100739002227783,1,0.06368044763803482,1,-0.005718224216252565,1,0.005224535241723061,1,0.3209190964698792,1
1772660165514802176,0.7239264249801636,1,-0.3814648389816284,1,0.01463285926729441,1,-0.002380821388214827,1,0.004862490575760603,1,0.3502995669841766,1
1772660165524178176,0.2808335423469543,1,-0.08395619690418243,1,0.03475187718868256,1,-0.007392369210720062,1,0.003330920590087771,1,0.2928730547428131,1
1772660165533765376,-0.02878075279295444,1,0.3787522315979004,1,0.07103770971298218,1,-7.05467100488022e-05,1,0.001485611428506672,1,0.2199615687131882,1
1772660165544471552,-0.5448209047317505,1,0.2339046001434326,1,0.04104824364185333,1,-0.002731485292315483,1,0.00293673318810761,1,0.1493403911590576,1
1772660165555073536,0.09715192019939423,1,0.2142093181610107,1,0.06420049071311951,1,-0.007744140457361937,1,0.005492048338055611,1,0.05507134273648262,1
1772660165565571328,0.1709853708744049,1,0.1278416663408279,1,0.008134325966238976,1,-0.009272042661905289,1,0.004383441992104053,1,-0.006169294007122517,1
1772660165575965184,-0.4223291873931885,1,0.1405272781848907,1,0.0346832275390625,1,0.003180846106261015,1,0.002965505002066493,1,-0.03733310103416443,1
1772660165586256384,0.09743824601173401,1,0.1892836093902588,1,0.0603955090045929,1,-0.003154898062348366,1,0.004097128286957741,1,0.03823429718613625,1
1772660165596447744,-0.1407307684421539,1,-0.1207744777202606,1,-2.406910061836243e-05,1,-0.007297302596271038,1,0.002825623378157616,1,0.02386506088078022,1
1772660165606536704,-0.9221457242965698,1,-0.1447714865207672,1,0.03394164517521858,1,0.0007288866909220815,1,0.0009631431894376874,1,0.0912088081240654,1
1772660165616536064,-0.0332815982401371,1,0.03755773603916168,1,0.07317508012056351,1,-0.005885350983589888,1,0.0005537110846489668,1,0.1708539426326752,1
1772660165626435840,-0.3253374993801117,1,-0.05475705116987228,1,0.0548395924270153,1,-0.009470990858972073,1,0.003863518359139562,1,0.2669764161109924,1
1772660165636238336,-0.2894729673862457,1,0.2387367486953735,1,-0.01469940878450871,1,-0.006121625192463398,1,0.00693243183195591,1,0.3621339797973633,1
1772660165645944576,-0.04829752445220947,1,0.3210152685642242,1,0.003404751420021057,1,0.001185902627184987,1,0.003758485428988934,1,0.3629297018051147,1
1772660165655554304,-0.1932416707277298,1,0.8824974894523621,1,0.002738777548074722,1,0.002779781352728605,1,-0.0002150298096239567,1,0.3903331160545349,1
1772660165665070336,-0.2588620781898499,1,0.6871675252914429,1,0.05026005953550339,1,0.007494383957237005,1,-2.279921318404377e-05,1,0.4037439227104187,1
1772660165674491904,-0.4420721232891083,1,0.5022090077400208,1,0.07388412952423096,1,0.001944603165611625,1,0.004217954352498055,1,0.4920887649059296,1
1772660165683821056,-0.4703951179981232,1,0.3077723979949951,1,-0.01036235131323338,1,0.007203292567282915,1,0.00457344064489007,1,0.6034510731697083,1
1772660165693825024,-0.4139956533908844,1,-0.07870695739984512,1,0.06013146042823792,1,0.0001966540003195405,1,0.006013512145727873,1,0.6161246299743652,1
1772660165704493824,-0.1254799067974091,1,0.03546184301376343,1,0.03484304994344711,1,0.0005839351797476411,1,0.006704289466142654,1,0.6205527782440186,1
1772660165715057152,-0.2523263692855835,1,0.3239827156066895,1,0.03243038803339005,1,0.002153918147087097,1,0.003566511906683445,1,0.542266309261322,1
1772660165725515264,-0.8723118305206299,1,-0.4243332743644714,1,0.07129024714231491,1,-0.01448372472077608,1,0.005925657227635384,1,0.4506240487098694,1
1772660165735872768,-0.6734489798545837,1,-0.1446910500526428,1,0.03625808656215668,1,-0.01476950850337744,1,0.004274631384760141,1,0.4395912289619446,1
1772660165746128128,-0.2637767791748047,1,-0.225176140666008,1,0.01478808932006359,1,-0.008717267774045467,1,0.002007293049246073,1,0.4389485716819763,1
1772660165756281600,-0.1041246652603149,1,-0.2497863620519638,1,0.05400350689888,1,-0.001203775638714433,1,0.0007305489270947874,1,0.3826473355293274,1
1772660165766335488,0.03746257349848747,1,-0.06445062160491943,1,0.05241940915584564,1,-0.01144537050276995,1,0.003013131208717823,1,0.2986544966697693,1
1772660165776290816,-0.1440324187278748,1,0.1947758495807648,1,-0.01091416459530592,1,-0.006194194313138723,1,0.003113917773589492,1,0.2919841110706329,1
1772660165786147072,-0.3739597201347351,1,0.2564630806446075,1,0.02418207749724388,1,-0.003287708619609475,1,0.002729586558416486,1,0.3646970093250275,1
1772660165795905024,-0.5236814022064209,1,0.1936181336641312,1,0.02065563946962357,1,-0.01216848939657211,1,0.005716103129088879,1,0.4533906877040863,1
1772660165805568256,-0.491149365901947,1,0.1817662417888641,1,-0.007862899452447891,1,-0.001286107115447521,1,0.007926657795906067,1,0.5567395687103271,1
1772660165815135488,-0.7376315593719482,1,0.04727067053318024,1,0.02185711078345776,1,0.0002244533679913729,1,0.006642570719122887,1,0.6302582025527954,1
1772660165824607488,-1.141532897949219,1,0.1611111760139465,1,0.07932227849960327,1,-0.00192943774163723,1,0.006897448096424341,1,0.7167845368385315,1
1772660165833985792,-1.533416867256165,1,0.2312236428260803,1,0.0492095947265625,1,0.0003725379938259721,1,0.005340686999261379,1,0.7509387135505676,1
1772660165843272704,-1.265264987945557,1,-0.08404794335365295,1,0.06655451655387878,1,0.003119843546301126,1,0.004744753241539001,1,0.7389273643493652,1
1772660165853876480,-0.9605630040168762,1,-0.1225729584693909,1,0.04289937391877174,1,0.0004749868530780077,1,0.004816525615751743,1,0.7055764198303223,1
1772660165864532480,-0.8027259111404419,1,0.2940259575843811,1,0.04328233003616333,1,-0.006396381184458733,1,0.003021824639290571,1,0.6340052485466003,1
1772660165875082752,-0.484851598739624,1,0.3298006355762482,1,0.03129943832755089,1,-0.004438450559973717,1,0.002520076930522919,1,0.5258675217628479,1
1772660165885528064,-0.3736364245414734,1,0.1445872336626053,1,0.04745762422680855,1,-0.007077477872371674,1,0.00179663859307766,1,0.433990865945816,1
1772660165895873280,-0.4731301665306091,1,-0.06564190238714218,1,0.03519481420516968,1,-0.008189799264073372,1,0.001245452323928475,1,0.396378755569458,1
1772660165906115840,-0.4297293126583099,1,-0.06792672723531723,1,0.03264036029577255,1,-0.004655137192457914,1,0.0001317861606366932,1,0.4013722538948059,1
1772660165916258304,-0.7176520824432373,1,-0.4278131723403931,1,0.03550702333450317,1,-0.001654314342886209,1,-0.0003531464317347854,1,0.3531500399112701,1
1772660165926301184,-0.7702359557151794,1,-0.5158547163009644,1,0.02927026152610779,1,0.0003049432998523116,1,0.002595693105831742,1,0.2879782319068909,1
1772660165936244224,-0.3198497593402863,1,-0.3326380252838135,1,0.03695336729288101,1,0.001936908927746117,1,-0.001111179357394576,1,0.2257348299026489,1
1772660165946090752,-0.1290591806173325,1,-0.1924154460430145,1,0.04306283593177795,1,-0.00137817207723856,1,-0.002152056898921728,1,0.1683859974145889,1
1772660165955839232,0.03107919916510582,1,-0.015205392614007,1,0.02998775616288185,1,1.266913022845984e-05,1,-0.001238714554347098,1,0.1511224955320358,1
1772660165965491456,0.2226884961128235,1,0.03073395416140556,1,0.03404518589377403,1,-0.001674027997069061,1,-0.0003891060478053987,1,0.1745429188013077,1
1772660165975049216,0.1238229349255562,1,0.1256275475025177,1,0.03739028796553612,1,-0.000913147465325892,1,0.0007630286272615194,1,0.2262327522039413,1
1772660165984512000,-0.1127918213605881,1,0.1350757628679276,1,0.04178104549646378,1,0.003038413356989622,1,-0.001562865450978279,1,0.2752876281738281,1
1772660165993880320,-0.3577254712581635,1,0.04215780645608902,1,0.04304037243127823,1,-0.001143644796684384,1,0.0005045091384090483,1,0.2996059656143188,1
1772660166003314176,-0.3249864280223846,1,0.06999343633651733,1,0.04266522452235222,1,-0.002595433732494712,1,0.001820244709961116,1,0.2871114015579224,1
1772660166014055680,-0.4088728725910187,1,0.110710971057415,1,0.04209321364760399,1,-0.002993366913869977,1,0.0004991815658286214,1,0.2619187533855438,1
1772660166024692480,-0.2966321706771851,1,0.1871176809072495,1,0.04330365732312202,1,-0.001201322302222252,1,0.001549059292301536,1,0.2364091575145721,1
1772660166035225088,-0.2178052961826324,1,0.1553738117218018,1,0.05066546425223351,1,-7.295167597476393e-05,1,0.001294777961447835,1,0.2091674506664276,1
1772660166045656576,-0.4562157690525055,1,0.08453784137964249,1,0.04853298515081406,1,0.0001244802260771394,1,0.001632641535252333,1,0.187688022851944,1
1772660166055987200,-0.3755264282226562,1,0.04854971542954445,1,0.04043000936508179,1,-0.001294946763664484,1,0.002897446043789387,1,0.1901061236858368,1
1772660166066218240,-0.492065817117691,1,-0.01728319190442562,1,0.01976844482123852,1,0.0005358249763958156,1,0.001715373015031219,1,0.2007056474685669,1
1772660166076352768,-0.3204182386398315,1,-0.02584437653422356,1,0.04120718315243721,1,0.006643599364906549,1,0.0002247977390652522,1,0.1891753673553467,1
1772660166086394880,-0.717337965965271,1,-0.01222475990653038,1,0.05586064606904984,1,0.005775998812168837,1,0.000504806695971638,1,0.1606628000736237,1
1772660166096338688,-0.4896129369735718,1,0.09331861883401871,1,0.05395869538187981,1,0.002062726300209761,1,-0.0001044807213474996,1,0.134888768196106,1
1772660166106184960,-0.422964483499527,1,0.2098487317562103,1,0.03980441391468048,1,-0.0001587364531587809,1,-0.0007878657197579741,1,0.09878309816122055,1
1772660166125619712,0.1483114659786224,1,0.2046564966440201,1,0.03757217898964882,1,-0.003035530215129256,1,0.0004680493148043752,1,-0.01196631789207458,1
1772660166135179008,0.04278316348791122,1,0.1203184202313423,1,0.03701838105916977,1,-0.0042303167283535,1,0.0008630543015897274,1,-0.004127632826566696,1
1772660166144647424,-0.2931405305862427,1,-0.06266453862190247,1,0.05686438456177711,1,-0.0008585407631471753,1,0.0002973964728880674,1,0.03519579395651817,1
1772660166154023168,-0.4722499549388885,1,-0.1875068843364716,1,0.04269138723611832,1,-0.003393539227545261,1,0.001675567240454257,1,0.07770262658596039,1
1772660166163610880,-0.6102334856987,1,-0.1794436275959015,1,0.04325741156935692,1,-0.004294965881854296,1,0.001089760567992926,1,0.09790941327810287,1
1772660166174314240,-0.3506377041339874,1,-0.1161431521177292,1,0.05101676657795906,1,-0.004700148943811655,1,0.001283502555452287,1,0.0955742821097374,1
1772660166184913408,-0.2518439888954163,1,-0.0300254300236702,1,0.04236239194869995,1,-0.002752177650108933,1,0.0005571739748120308,1,0.09185530245304108,1
1772660166195409920,-0.1071147248148918,1,-0.005745599046349525,1,0.04604898765683174,1,-0.003290291875600815,1,0.00117588066495955,1,0.0941229984164238,1
1772660166205807616,-0.193144753575325,1,0.05131121352314949,1,0.04037294536828995,1,-0.003267985302954912,1,0.0009381666895933449,1,0.09650113433599472,1
1772660166216105216,-0.5055385828018188,1,0.08842146396636963,1,0.03977584466338158,1,-0.003019907278940082,1,0.00106505025178194,1,0.09115801751613617,1
1772660166226302464,-0.6383199691772461,1,0.04837414249777794,1,0.03689995035529137,1,-0.002557810395956039,1,0.0008652679971419275,1,0.06817887723445892,1
1772660166236401152,-0.5595356225967407,1,0.03907479718327522,1,0.04083750769495964,1,-0.002111816545948386,1,0.0005772226140834391,1,0.04044092819094658,1
1772660166246401280,-0.2989855110645294,1,0.02943048812448978,1,0.04713917523622513,1,-0.0009306235588155687,1,0.0001003334327833727,1,0.02195961773395538,1
1772660166256303360,-0.1526782363653183,1,0.02343005500733852,1,0.04220544174313545,1,0.0001161419640993699,1,0.0003016935661435127,1,0.01175966951996088,1
1772660166266109184,-0.07447493076324463,1,0.02519533410668373,1,0.04237770289182663,1,0.0003550608525983989,1,0.0005118888220749795,1,0.006273808889091015,1
1772660166275820544,-0.03276228159666061,1,0.02784442529082298,1,0.04256444796919823,1,-3.627178011811338e-05,1,0.0005856283823959529,1,0.003487964160740376,1
1772660166285436416,-0.007542578037828207,1,0.03190996497869492,1,0.04049252718687057,1,-0.0005322312354110181,1,0.0008137788390740752,1,0.001850430388003588,1
1772660166294959360,0.007027353160083294,1,0.03310342133045197,1,0.04038401693105698,1,-0.0005238836747594178,1,0.0001843871723394841,1,0.001166242291219532,1
1772660166304389376,0.01570232212543488,1,0.02868855558335781,1,0.0391380749642849,1,-0.0001800084137357771,1,-9.984744247049093e-05,1,0.0007858187309466302,1
1772660166313726720,0.02300358004868031,1,0.02360872365534306,1,0.04123582690954208,1,-8.099313708953559e-05,1,-9.95834416244179e-05,1,0.0007761523011140525,1
1772660166323887616,0.001457788050174713,1,0.0252628605812788,1,0.03582148626446724,1,-0.0007517437916249037,1,-0.0002089766203425825,1,0.0006311868783086538,1
1772660166334556416,0.03508180379867554,1,0.01038967818021774,1,0.04285751655697823,1,-0.0004981919191777706,1,-0.0006327460869215429,1,0.0004426508094184101,1
1772660166345122304,0.01052572019398212,1,0.02118992991745472,1,0.04346415773034096,1,-0.0002304149966221303,1,-0.0005142543232068419,1,0.0002485891454853117,1
1772660166355585024,0.01361565105617046,1,0.03127767518162727,1,0.04744302481412888,1,-0.0008126333123072982,1,-0.0001633107021916658,1,0.0002503585128579289,1
1772660166365948416,0.04828619956970215,1,0.03567837178707123,1,0.04308958351612091,1,-0.0007518744678236544,1,-0.0003463097382336855,1,0.0003672699385788292,1
1772660166376214016,0.2748187482357025,1,0.05462623760104179,1,0.03645605221390724,1,-0.000474426313303411,1,-0.0007347656646743417,1,-0.001206578686833382,1
1772660166386379776,-0.05407750979065895,1,0.05487534031271935,1,0.03612459450960159,1,0.0001345636701444164,1,-0.000498006702400744,1,-0.004769714549183846,1
1772660166396446464,-0.08202674984931946,1,0.03308338671922684,1,0.0427280105650425,1,0.0007807951187714934,1,-0.0004882955690845847,1,-0.003880713367834687,1
1772660166406416128,-0.03798257559537888,1,0.01985799521207809,1,0.04851000756025314,1,0.0006127666565589607,1,-0.0001296936970902607,1,-0.002561357105150819,1
1772660166416288256,-0.009949447587132454,1,0.01162894908338785,1,0.04692230373620987,1,0.0006181122735142708,1,1.715089820208959e-05,1,-0.001349666621536016,1
1772660166426063360,0.005449878983199596,1,0.01012471783906221,1,0.04256901890039444,1,0.0003957269946113229,1,0.0005519723636098206,1,-0.0006347039598040283,1
1772660166435745024,0.01510701607912779,1,0.01804565265774727,1,0.03609385713934898,1,-0.0005233832634985447,1,6.086509529268369e-05,1,-0.0002491541963536292,1
1772660166445331200,0.01977039128541946,1,0.02553063258528709,1,0.03687241673469543,1,-0.0007503185770474374,1,0.0005655813729390502,1,0.0001432174176443368,1
1772660166454824448,0.02425119280815125,1,0.03261791542172432,1,0.03798031061887741,1,-0.0009695906192064285,1,0.0003649048157967627,1,0.0002554908860474825,1
1772660166464225024,0.02615711092948914,1,0.03710390999913216,1,0.0396558977663517,1,-0.0009652388980612159,1,-8.428184810327366e-05,1,0.000269736279733479,1
1772660166473532672,0.02389831840991974,1,0.03206314519047737,1,0.04092381149530411,1,-0.00104341737460345,1,2.779575152089819e-05,1,0.0002519285189919174,1
1772660166484136192,0.02791564166545868,1,0.0263824500143528,1,0.03894465789198875,1,-0.001276902505196631,1,0.0001887722755782306,1,0.0003664612304419279,1
1772660166494789632,0.3129804134368896,1,-0.009316432289779186,1,0.03591223806142807,1,-0.001087837386876345,1,-8.962339779827744e-05,1,0.0006437848787754774,1
1772660166505338368,0.2317198663949966,1,-0.01125301793217659,1,0.04370274394750595,1,-0.0007851269328966737,1,-0.0001511996379122138,1,-0.003275113180279732,1
1772660166515783680,0.1937154084444046,1,-0.003842388978227973,1,0.0397329181432724,1,-0.0006530981627292931,1,0.0001459082413930446,1,-0.01045430824160576,1
1772660166526125568,0.05087102949619293,1,0.02391970157623291,1,0.03904865309596062,1,-0.00106205465272069,1,0.0005048842285759747,1,-0.01313096564263105,1
1772660166536367616,-0.0526508241891861,1,0.04363282397389412,1,0.03871161118149757,1,-0.0008128363406285644,1,0.000394942908314988,1,-0.01303991675376892,1
1772660166546509312,-0.02639464661478996,1,0.04843598231673241,1,0.04010003432631493,1,-0.0004109990841243416,1,0.0003929723752662539,1,-0.01375163067132235,1
1772660166556549632,-0.1569389551877975,1,0.06164784356951714,1,0.03964671492576599,1,-0.0008414173498749733,1,0.0004191294137854129,1,-0.0118819959461689,1
1772660166566492928,-0.1366876363754272,1,0.05406974256038666,1,0.04083340615034103,1,-0.0009772637858986855,1,0.0002352300216443837,1,-0.007937229238450527,1
1772660166576337152,-0.0726415291428566,1,0.03929321467876434,1,0.03830085322260857,1,-0.0004106246633455157,1,0.0004941363586112857,1,-0.00483569223433733,1
1772660166586083584,-0.02898328006267548,1,0.03121575899422169,1,0.03873711079359055,1,0.0002652763796504587,1,0.0003101403417531401,1,-0.002847947413101792,1
1772660166595735296,-0.006332492455840111,1,0.02757346443831921,1,0.04394854232668877,1,0.0003885302576236427,1,0.0003847600310109556,1,-0.001854336238466203,1
1772660166605291008,0.006538793444633484,1,0.02779710851609707,1,0.0450960174202919,1,0.0001062902301782742,1,0.0003008992352988571,1,-0.001701697008684278,1
1772660166614753536,0.01645139791071415,1,0.0307833943516016,1,0.04197190329432487,1,-1.299682480748743e-05,1,0.0001143585541285574,1,-0.001757489400915802,1
1772660166624122624,0.02491073310375214,1,0.03576797246932983,1,0.04111258313059807,1,-8.776142203714699e-05,1,0.0001186726294690743,1,-0.002608875278383493,1
1772660166633553920,0.06314367800951004,1,0.04992354661226273,1,0.04444072023034096,1,-0.0002709512191358954,1,-7.721164365648292e-06,1,-0.007465068250894547,1
1772660166644285184,0.06803102791309357,1,0.0479605458676815,1,0.04130178689956665,1,-9.810173651203513e-07,1,-5.827842323924415e-05,1,-0.02107162028551102,1
1772660166654912256,0.04230256378650665,1,0.03980403393507004,1,0.0434752069413662,1,0.0007728802738711238,1,-0.0004486436955630779,1,-0.02783754840493202,1
1772660166665433344,-0.01834929920732975,1,0.01354186981916428,1,0.04225901886820793,1,0.0004302729212213308,1,-0.0005552191287279129,1,-0.02569432370364666,1
1772660166675853056,-0.01729559525847435,1,0.004110320471227169,1,0.04211916029453278,1,0.0003842258884105831,1,-0.0006203980301506817,1,-0.01676836423575878,1
1772660166686172672,0.001072462531737983,1,0.009051959961652756,1,0.0403774231672287,1,-0.0003001654404215515,1,-0.0002720327756833285,1,-0.009183951653540134,1
1772660166696389632,0.01093588396906853,1,0.01681721583008766,1,0.04330704361200333,1,-0.000493596657179296,1,1.510605670773657e-05,1,-0.005019717384129763,1
1772660166706507264,0.0172453410923481,1,0.0225474052131176,1,0.0432281456887722,1,-0.0001310263032792136,1,-5.075204535387456e-05,1,-0.002770378021523356,1
1772660166716524800,0.02068189717829227,1,0.02571282722055912,1,0.0443216972053051,1,0.000140886812005192,1,-7.582411490147933e-05,1,-0.001558569492772222,1
1772660166726444800,0.02292144484817982,1,0.02667116746306419,1,0.04117956385016441,1,0.0001216664604726247,1,-0.0002535353123676032,1,-0.0009181714267469943,1
1772660166736266752,0.02208150736987591,1,0.02743743173778057,1,0.04087915271520615,1,-5.001554018235765e-05,1,-4.3845473555848e-05,1,-0.0005684160860255361,1
1772660166745993472,0.02108724229037762,1,0.02706292271614075,1,0.04194639623165131,1,-0.0002241354959551245,1,4.252346116118133e-05,1,-0.0003902474709320813,1
1772660166755623168,0.02095256373286247,1,0.0254329014569521,1,0.0428071916103363,1,-0.0004710120847448707,1,-0.0003248167340643704,1,-0.0002372398448642343,1
1772660166765157120,0.02126504108309746,1,0.0247365478426218,1,0.04379639402031898,1,-0.0002047440939350054,1,-0.0002019861713051796,1,-0.0001077825581887737,1
1772660166774598656,0.01938279345631599,1,0.02562452480196953,1,0.04319597408175468,1,-0.0003837777185253799,1,4.158308001933619e-05,1,-0.0001222830906044692,1
1772660166783946240,0.02187563665211201,1,0.02521131560206413,1,0.04176043346524239,1,-0.0001849413820309564,1,0.0002242913760710508,1,-5.808692367281765e-05,1
1772660166793664768,0.02466326951980591,1,0.02819102257490158,1,0.04020477086305618,1,-0.0003346895391587168,1,0.0001177358062705025,1,-0.0001528050634078681,1
1772660166804364288,0.02602601051330566,1,0.02921942248940468,1,0.03820743039250374,1,0.0001057948247762397,1,2.771085200947709e-05,1,2.915546428994276e-05,1
1772660166814958592,0.02560820057988167,1,0.02862894162535667,1,0.03656052425503731,1,0.0004823449999094009,1,-0.0002678114105947316,1,-0.00024697624030523,1
1772660166825448704,0.02357994765043259,1,0.02465343289077282,1,0.03805626556277275,1,0.0002035167417488992,1,-0.0002073823125101626,1,9.340731776319444e-05,1
1772660166835834624,0.02157536521553993,1,0.02354083023965359,1,0.03988360986113548,1,2.673235576367006e-05,1,-0.0002212866820627823,1,0.0001695126993581653,1
1772660166846120960,0.01719279587268829,1,0.02277951128780842,1,0.04152750596404076,1,-0.0004108451539650559,1,-0.0002362533123232424,1,0.0004924332024529576,1
1772660166856305664,0.01921251974999905,1,0.02414517849683762,1,0.04200102761387825,1,-0.0006803978467360139,1,-0.0001897615002235398,1,0.0001886727259261534,1
1772660166866389504,0.02121194638311863,1,0.02715027704834938,1,0.04024525359272957,1,-0.0009225240792147815,1,3.039403964066878e-05,1,-2.832293830579147e-05,1
1772660166876375296,0.02247094921767712,1,0.02940033376216888,1,0.03904683887958527,1,-0.0003759792598430067,1,8.979040285339579e-05,1,0.0001930949365487322,1
1772660166886261248,0.02222402766346931,1,0.03047135472297668,1,0.04065561667084694,1,0.0001678978733252734,1,0.0002304476365679875,1,1.452105061616749e-05,1
1772660166896049152,0.02042008005082607,1,0.02983289957046509,1,0.04166895896196365,1,0.000276908918749541,1,-4.331101808929816e-05,1,0.0001492409210186452,1
1772660166905741824,0.02098314091563225,1,0.0276081096380949,1,0.04181141033768654,1,0.0001133916593971662,1,-8.038809755817056e-05,1,0.0002108567277900875,1
1772660166915338496,0.02068872377276421,1,0.02400224842131138,1,0.04081219807267189,1,-2.798379136947915e-05,1,0.0002096397656714544,1,-1.261681973119266e-05,1
1772660166924840192,0.02058347687125206,1,0.02434296533465385,1,0.04009267687797546,1,-3.018592451553559e-07,1,0.0003542848280631006,1,-0.0001505122345406562,1
1772660166934249216,0.02222682535648346,1,0.02431208081543446,1,0.04200655221939087,1,-5.389834404923022e-05,1,0.0001792506664060056,1,-0.0001174498684122227,1
1772660166943564544,0.02246473357081413,1,0.0242298785597086,1,0.04044190421700478,1,-6.624026718782261e-05,1,-3.061064489884302e-05,1,-0.0001022097858367488,1
1772660166953717248,0.02281277440488338,1,0.03112715110182762,1,0.04081987217068672,1,-0.000141644908580929,1,-0.0001182320265797898,1,8.596220141043887e-05,1
1772660166964387840,0.02285701595246792,1,0.03193255141377449,1,0.03831666335463524,1,0.0002676681324373931,1,-0.000172989908605814,1,0.0001584481651661918,1
1772660166974954496,0.02436299249529839,1,0.03236917406320572,1,0.03722893446683884,1,0.0004475811147131026,1,-0.0003545358777046204,1,-2.831457641150337e-05,1
1772660166985419264,0.02406274899840355,1,0.0305597297847271,1,0.04074544087052345,1,0.0005816135671921074,1,-0.0002841894747689366,1,4.342249303590506e-05,1
1772660166995781376,0.02430423349142075,1,0.02803928591310978,1,0.04178718477487564,1,0.0008819181239232421,1,-0.0004496340989135206,1,0.0001263834128621966,1
1772660167006043136,0.02349860779941082,1,0.02587933465838432,1,0.03949649631977081,1,0.0005142149166204035,1,-0.0005553423543460667,1,0.0002517527609597892,1
1772660167016206848,0.02268501557409763,1,0.0222173947840929,1,0.04040705412626266,1,0.0003365102165844291,1,-0.0006168563850224018,1,-4.120997982681729e-05,1
1772660167026270720,0.02032197266817093,1,0.02307093888521194,1,0.0425667017698288,1,0.0005472188349813223,1,-0.0004772463580593467,1,-7.616933726239949e-05,1
1772660167036237312,0.02012100629508495,1,0.02473540417850018,1,0.04223703220486641,1,0.0005182618042454123,1,-0.0003558602766133845,1,-0.0004256146203260869,1
1772660167046106368,0.02235058881342411,1,0.02655513398349285,1,0.04168274626135826,1,0.0003876332193613052,1,-0.0001980441156774759,1,-0.0002960303972940892,1
1772660167055879424,0.02050374820828438,1,0.02907279878854752,1,0.04220523312687874,1,-0.0002156142727471888,1,2.74861668003723e-05,1,-2.137380943167955e-05,1
1772660167065556224,0.02270209044218063,1,0.0296593364328146,1,0.03871259465813637,1,-0.0004570367163978517,1,0.0002300773485330865,1,-0.0001390448451275006,1
1772660167075140096,0.02396986819803715,1,0.02875281497836113,1,0.03911871835589409,1,-0.0003576313320081681,1,0.000429819367127493,1,-0.0001949554571183398,1
1772660167084630272,0.02103768102824688,1,0.02817217819392681,1,0.03893234953284264,1,-0.0002211694954894483,1,0.0007005316438153386,1,4.403203638503328e-05,1
1772660167094028288,0.01990529708564281,1,0.02679015323519707,1,0.0411340557038784,1,-5.418665386969224e-05,1,4.357890429673716e-05,1,0.0001047798723448068,1
1772660167103342336,0.01954581588506699,1,0.02600899524986744,1,0.0394393764436245,1,-1.857032839325257e-05,1,0.0004253467777743936,1,0.0001255696843145415,1
1772660167113948416,0.02155600301921368,1,0.02593192085623741,1,0.0405208021402359,1,-0.0002005185233429074,1,0.0002701329358387738,1,6.810500053688884e-05,1
1772660167124601856,0.02076623030006886,1,0.0263457428663969,1,0.04336712509393692,1,0.0001322409952990711,1,0.0002186289493693039,1,-6.076222416595556e-05,1
1772660167135152128,0.02123372256755829,1,0.02784453332424164,1,0.04242775589227676,1,3.427723640925251e-06,1,-1.835462171584368e-06,1,8.10635247034952e-05,1
1772660167145599488,0.02278744056820869,1,0.0279997605830431,1,0.0419301725924015,1,-0.0002108687331201509,1,-1.108293872675858e-05,1,-8.245493518188596e-05,1
1772660167155942400,0.02420202270150185,1,0.02873588725924492,1,0.03847107291221619,1,-0.0002791119331959635,1,-0.0001709649950498715,1,0.0002168566861655563,1
1772660167166184448,0.02423747815191746,1,0.02565523609519005,1,0.0388806015253067,1,-8.122375584207475e-05,1,-0.0003538834280334413,1,8.813078602543101e-05,1
1772660167176324864,0.02219510264694691,1,0.02365805394947529,1,0.04325249791145325,1,-6.739789387211204e-05,1,-0.0002295334270456806,1,0.0004345536581240594,1
1772660167186366976,0.02221708744764328,1,0.02140850014984608,1,0.04179133102297783,1,-0.0001224391889991239,1,-0.0001647694589337334,1,0.0001835017174016684,1
1772660167196309504,0.02279631234705448,1,0.02292387001216412,1,0.04372679442167282,1,-0.0001516103511676192,1,-0.0005357647896744311,1,0.0002233593259006739,1
1772660167206157824,0.02290238067507744,1,0.02345858886837959,1,0.04230107739567757,1,-0.0003409353957977146,1,-5.207800131756812e-05,1,0.0001405376970069483,1
1772660167215911168,0.02295459248125553,1,0.02720051631331444,1,0.04222574457526207,1,-0.0002080195990856737,1,0.0003343134885653853,1,5.700865585822612e-05,1
1772660167225569280,0.02344123087823391,1,0.0290251187980175,1,0.03915105387568474,1,-0.0003469579969532788,1,0.0001645300362724811,1,9.021766891237348e-05,1
1772660167235131648,0.02223194018006325,1,0.02929510548710823,1,0.03897932544350624,1,-0.0002489824837539345,1,0.000104149803519249,1,7.367227226495743e-05,1
1772660167244599040,0.0213940218091011,1,0.02837617322802544,1,0.03985835239291191,1,-0.0002049241738859564,1,-4.195410292595625e-05,1,0.0001665095624048263,1
