Time,inertial-6286.188861:estAngularRateX,inertial-6286.188861:estAngularRateX:valid,inertial-6286.188861:estAngularRateY,inertial-6286.188861:estAngularRateY:valid,inertial-6286.188861:estAngularRateZ,inertial-6286.188861:estAngularRateZ:valid,inertial-6286.188861:estLinearAccelX,inertial-6286.188861:estLinearAccelX:valid,inertial-6286.188861:estLinearAccelY,inertial-6286.188861:estLinearAccelY:valid,inertial-6286.188861:estLinearAccelZ,inertial-6286.188861:estLinearAccelZ:valid
1771622130451376384,0.00158227642532438,1,0.0006542979972437024,1,-0.0001640521222725511,1,0.003815806703642011,1,0.03143642470240593,1,0.06112328916788101,1
1771622130461423872,0.004585606511682272,1,-0.0008652415126562119,1,0.0005890510510653257,1,0.005611388478428125,1,0.01771142147481441,1,0.05666134878993034,1
1771622130471371776,0.01012938376516104,1,-0.001447466551326215,1,-0.0001276555703952909,1,0.006300545297563076,1,0.03627120703458786,1,0.06114707887172699,1
1771622130481222400,0.01300596166402102,1,-0.0007763838511891663,1,0.0003106901422142982,1,0.004410807508975267,1,0.005835287272930145,1,0.03482621163129807,1
1771622130490975232,0.01090882066637278,1,-0.00030430470360443,1,-0.0001720968866720796,1,-0.007199298124760389,1,0.02042248658835888,1,0.04261504858732224,1
1771622130500632320,0.00271515385247767,1,-8.245951903518289e-05,1,-0.0007091112202033401,1,-0.01251040026545525,1,-0.04445570334792137,1,-0.01304731052368879,1
1771622130510194176,0.0004827999218832701,1,4.496759356698021e-05,1,0.0002588862553238869,1,-0.00894483644515276,1,0.008858633227646351,1,0.04771173372864723,1
1771622130519661056,0.003625375451520085,1,0.0001168701273854822,1,-0.0002147970953956246,1,-0.009434645995497704,1,-0.01485681999474764,1,0.05344199016690254,1
1771622130529035008,0.0006458864663727582,1,-0.001431964454241097,1,-0.0005502512212842703,1,-0.0001422221539542079,1,0.006427526939660311,1,0.04468774050474167,1
1771622130539182336,0.00072843162342906,1,0.000576670456212014,1,0.0003734594210982323,1,-0.000837712490465492,1,-0.0006119234603829682,1,0.02467089518904686,1
1771622130549805312,-0.0008880969253368676,1,0.001529277651570737,1,0.0001824825158109888,1,-0.006983993109315634,1,0.01045029517263174,1,0.04740855470299721,1
1771622130560324096,0.001529575325548649,1,-0.0002458110975567251,1,-0.0004349332302808762,1,-0.002587818773463368,1,0.01407341752201319,1,0.02819971926510334,1
1771622130570739200,0.001909869373776019,1,0.0005573085509240627,1,0.001403232454322278,1,2.85191199509427e-05,1,0.001502358936704695,1,0.0425829291343689,1
1771622130581052672,0.001744415261782706,1,-0.0002251119731226936,1,-0.0003187439870089293,1,0.004073833581060171,1,0.01189789455384016,1,0.02668788470327854,1
1771622130591267840,0.0005584445898421109,1,0.0005764723173342645,1,0.0002559724962338805,1,-0.001497785793617368,1,0.009918186813592911,1,0.04740544781088829,1
1771622130601382400,0.0009882311569526792,1,0.001303702243603766,1,-9.344379213871434e-05,1,0.004714602138847113,1,0.000620605715084821,1,0.04621592909097672,1
1771622130611397632,-0.0007624413701705635,1,-0.0005363262025639415,1,-0.0008030699100345373,1,-0.00386732374317944,1,0.0114342337474227,1,0.04350860789418221,1
1771622130621314560,0.000445708428742364,1,-0.000335696735419333,1,0.001454020384699106,1,-0.003114172490313649,1,0.005155961494892836,1,0.02853588946163654,1
1771622130631134976,-0.0007409777026623487,1,-0.0009678806527517736,1,3.608164115576074e-05,1,1.906238139781635e-05,1,0.00573760736733675,1,0.05042297020554543,1
1771622130640858112,-0.001002924633212388,1,-0.0006562131457030773,1,0.0008859281660988927,1,-0.004801749717444181,1,0.01132896542549133,1,0.03962930291891098,1
1771622130650486784,0.0002904961002059281,1,0.0005552936927415431,1,0.0002520880661904812,1,-0.006327206268906593,1,0.0136154480278492,1,0.04205649346113205,1
1771622130660019968,0.0006457916460931301,1,7.4026633228641e-05,1,-0.0004715281538665295,1,-0.003982561640441418,1,0.01332282647490501,1,0.04231389611959457,1
1771622130669458176,0.0002095107920467854,1,-0.0007395810098387301,1,0.0001091301601263694,1,0.000527966592926532,1,0.003779949154704809,1,0.03540349006652832,1
1771622130678947072,-0.000629964517429471,1,0.000386235915357247,1,0.0007207844173535705,1,-0.001302535529248416,1,0.007626362610608339,1,0.03661175072193146,1
1771622130689628928,-6.277811917243525e-05,1,0.0006101993494667113,1,-8.325489034177735e-05,1,-0.005805396474897861,1,0.00661923736333847,1,0.03182203695178032,1
1771622130700205312,0.0002700674813240767,1,0.0003873493114951998,1,-0.001880296040326357,1,-0.00213985238224268,1,0.01461817696690559,1,0.04560070484876633,1
1771622130710679296,-0.0005443384870886803,1,-0.001055719796568155,1,0.0004497747868299484,1,0.008571146987378597,1,0.01459625735878944,1,0.03802775219082832,1
1771622130721049856,-0.0008851616294123232,1,0.0002320409403182566,1,4.15969334426336e-05,1,-0.003413969883695245,1,0.009727032855153084,1,0.03903094679117203,1
1771622130731319808,5.333899389370345e-05,1,0.001421639928594232,1,0.0004895720048807561,1,-0.001037889276631176,1,0.00969531387090683,1,0.03425394743680954,1
1771622130741488128,-0.001033398089930415,1,-0.00068139802897349,1,-0.00044808434904553,1,0.004941384773701429,1,0.01148254983127117,1,0.03476127237081528,1
1771622130751555072,0.0005447369767352939,1,-0.0003869532665703446,1,-0.0006695957272313535,1,0.01002029702067375,1,0.005779500585049391,1,0.04316575825214386,1
1771622130761522944,0.0001906195102492347,1,0.0008812425076030195,1,0.0007238739053718746,1,0.006978843826800585,1,0.009148797951638699,1,0.04255880042910576,1
1771622130771393024,0.001746785012073815,1,-7.775811536703259e-05,1,0.001246515661478043,1,0.002822322538122535,1,0.01569954492151737,1,0.04588751122355461,1
1771622130781164800,0.0005469624884426594,1,-0.003139295848086476,1,0.000944843515753746,1,0.008241060189902782,1,-0.00546472379937768,1,0.03058807738125324,1
1771622130790841600,-4.668791734729894e-05,1,-0.0007306651095859706,1,-0.0002434883790556341,1,0.0002681597834452987,1,0.01012640260159969,1,0.04349027946591377,1
1771622130800422400,-0.0005074493237771094,1,0.0005296656745485961,1,0.0003015009860973805,1,-0.009345667436718941,1,0.01246091071516275,1,0.0465393103659153,1
1771622130809914624,0.0004527228011284024,1,-0.0007721229339949787,1,-5.158366548130289e-05,1,-0.002498378045856953,1,0.005100429523736238,1,0.05038576573133469,1
1771622130819314688,2.412532558082603e-05,1,0.000121242250315845,1,-0.0008909273310564458,1,0.001973558450117707,1,0.003831787267699838,1,0.03419270738959312,1
1771622130829194496,0.002606432884931564,1,0.0004913242300972342,1,0.0001424564688932151,1,0.003494321834295988,1,0.01318296603858471,1,0.0440761037170887,1
1771622130839830784,0.0007844396168366075,1,0.0007676359382458031,1,-0.0002389623841736466,1,0.003148735966533422,1,0.007726502604782581,1,0.03986512124538422,1
1771622130850362624,0.0003661756054498255,1,-0.0003669477591756731,1,0.0001072004306479357,1,0.0001293200766667724,1,0.01402286347001791,1,0.04022373631596565,1
1771622130860790784,9.835051605477929e-05,1,-0.001573185785673559,1,0.0001885709061753005,1,0.002238554414361715,1,0.01757382228970528,1,0.03234880045056343,1
1771622130871117312,-0.0009936215355992317,1,-0.0004742703167721629,1,-0.0004092963936273009,1,-0.0006031187949702144,1,0.01423533912748098,1,0.03780248761177063,1
1771622130881344512,0.0003331467451062053,1,0.0009537242003716528,1,0.0004592139448504895,1,0.007776270154863596,1,0.01894308626651764,1,0.04254141449928284,1
1771622130891469312,-3.380347698112018e-05,1,0.001126499497331679,1,0.0008761614444665611,1,0.006093485746532679,1,0.006197581067681313,1,0.05606279522180557,1
1771622130901495296,-0.001021070755086839,1,-0.0004386207147035748,1,-7.310757791856304e-05,1,0.01322456263005733,1,0.003465767716988921,1,0.06262590736150742,1
1771622130911421952,-0.001123625785112381,1,2.7240595954936e-05,1,-0.0006566736265085638,1,-0.007234656717628241,1,0.004565944895148277,1,0.03000167012214661,1
1771622130921249792,0.0001948360732058063,1,-0.0006500640301965177,1,6.473712710430846e-05,1,0.003897469025105238,1,0.008687910623848438,1,0.04502410441637039,1
1771622130930982400,-0.001454719225876033,1,0.001270770560950041,1,-0.0001536865602247417,1,-0.00578303961083293,1,0.01448281388729811,1,0.03060477040708065,1
1771622130940618240,-0.00145039870403707,1,-0.001494079595431685,1,-0.0007219951949082315,1,-0.001192634226754308,1,0.01422474812716246,1,0.04499231278896332,1
1771622130950158080,-0.001557933632284403,1,0.0001256709947483614,1,4.183529745205306e-05,1,-0.002163026249036193,1,0.01856270991265774,1,0.04441313445568085,1
1771622130959605504,6.908656359883025e-05,1,6.716184543620329e-06,1,0.0004077440244145691,1,0.006205208133906126,1,0.01137917395681143,1,0.0335821658372879,1
1771622130968958720,-9.697071072878316e-05,1,0.0003813489456661046,1,-0.001038861926645041,1,0.001125761307775974,1,0.002155008027330041,1,0.04470772668719292,1
1771622130979378176,0.001373195322230458,1,0.000795855768956244,1,0.0003980842302553356,1,0.005903433542698622,1,0.01412687264382839,1,0.04257035627961159,1
1771622130989985024,-0.001650927006267011,1,-0.001607382204383612,1,-0.0007280685822479427,1,0.007095859386026859,1,0.006765186786651611,1,0.04258352890610695,1
1771622131000488704,-0.0004155432106927037,1,-0.0006946671055629849,1,-1.406710725859739e-05,1,0.003854358801618218,1,0.01207276433706284,1,0.04199209809303284,1
1771622131010888960,-0.000935382442548871,1,0.0003078736772295088,1,0.0001504404353909194,1,0.009047141298651695,1,0.01438739337027073,1,0.04884351044893265,1
1771622131021187840,0.0005074964137747884,1,0.0007861661724746227,1,0.0002142683952115476,1,-0.002473772037774324,1,0.02218499593436718,1,0.02846752479672432,1
1771622131031387136,-0.0008460781536996365,1,-2.484587093931623e-05,1,0.0006479531875811517,1,-0.00294328760355711,1,0.0003372047503944486,1,0.03364045545458794,1
1771622131041486336,-3.62499099537672e-06,1,-0.000878628809005022,1,0.0005990495556034148,1,-0.002658739918842912,1,0.001573187881149352,1,0.02825022861361504,1
1771622131051485440,0.0008265245705842972,1,-0.000519938359502703,1,7.164973067119718e-05,1,0.001047280267812312,1,0.00647387420758605,1,0.04497352242469788,1
1771622131061386752,0.000148912746226415,1,-0.0007306619663722813,1,-0.0005077162641100585,1,0.002532726852223277,1,0.002043041633442044,1,0.04770740494132042,1
1771622131071190272,-0.0003195577301084995,1,-0.001259567332454026,1,-0.0004294330137781799,1,0.004378638230264187,1,0.003528524190187454,1,0.0416698269546032,1
1771622131080898048,-9.704958210932091e-05,1,0.0003855870745610446,1,-0.0002768588601611555,1,-0.007894291542470455,1,0.003812141483649611,1,0.03876405954360962,1
1771622131090511360,-0.0006702646496705711,1,0.0003781758423428982,1,-0.0003523295163176954,1,0.001266986131668091,1,0.01129707600921392,1,0.02879299595952034,1
1771622131100029440,-0.0005350480205379426,1,-0.0004100115911569446,1,-0.0004948102287016809,1,4.581762186717242e-05,1,0.01032546535134315,1,0.03418698534369469,1
1771622131109453056,0.0002195186243625358,1,0.0004252704966347665,1,-0.0001577422372065485,1,0.00956406258046627,1,0.01737140864133835,1,0.04043424129486084,1
1771622131118927360,0.0006840073619969189,1,0.0008135240059345961,1,-0.0005144196911714971,1,0.005216458812355995,1,0.01678002253174782,1,0.04737338423728943,1
1771622131129580032,0.001629325095564127,1,-0.0001879483461380005,1,0.0009088838705793023,1,0.000961650104727596,1,0.01008558087050915,1,0.04379115626215935,1
1771622131140128768,0.0006270959856919944,1,-0.0006054586847312748,1,2.493386773494422e-06,1,0.004229616839438677,1,0.009375720284879208,1,0.03869195654988289,1
1771622131150574336,-0.000274320220341906,1,-0.00108653015922755,1,-0.0006484192563220859,1,-0.002019251231104136,1,0.009852956980466843,1,0.04740818962454796,1
1771622131160916736,0.0001817953889258206,1,0.0005459876847453415,1,0.0001398692838847637,1,-0.00266852998174727,1,0.004590267315506935,1,0.0341879166662693,1
1771622131171157760,0.00102851283736527,1,0.0009552724077366292,1,-0.0008100027916952968,1,-0.006857448723167181,1,0.001285508158616722,1,0.03994398564100266,1
1771622131181300480,-0.0004205872828606516,1,0.0006519258604384959,1,-0.0004279689164832234,1,0.003052835818380117,1,0.01002244278788567,1,0.04709460586309433,1
1771622131191341824,-0.0002566942712292075,1,-0.0003118014428764582,1,-6.06965841143392e-06,1,-0.01525621116161346,1,0.01266383845359087,1,0.04261705651879311,1
1771622131201284352,5.192414755583741e-05,1,-0.0001571811590110883,1,0.0001465887762606144,1,0.001690342091023922,1,0.005507234483957291,1,0.03482788428664207,1
1771622131211129088,0.00121015845797956,1,0.0002588963252492249,1,0.0004525888944044709,1,-0.01193636376410723,1,0.008848998695611954,1,0.03339381515979767,1
1771622131220876288,-0.001823152066208422,1,-0.0007995142368599772,1,0.0003969122190028429,1,0.009945007041096687,1,0.01395858637988567,1,0.05751434341073036,1
1771622131230527744,-0.0004283068992663175,1,0.0004930648137815297,1,-0.00027138099540025,1,0.0002434241032460704,1,0.006729239597916603,1,0.03264351189136505,1
1771622131240084224,5.763779699918814e-05,1,7.701725553488359e-05,1,0.0001872293651103973,1,0.002401202684268355,1,0.007654873188585043,1,0.03991967439651489,1
1771622131249545728,-0.000277826125966385,1,-0.0006999991601333022,1,-0.0007281320868059993,1,-0.001502492115832865,1,0.01441005617380142,1,0.03869153559207916,1
1771622131258913280,-0.0004028813855256885,1,-0.0004726083716377616,1,-0.00057717424351722,1,-0.001527724089100957,1,0.01944179274141788,1,0.05064846947789192,1
1771622131269200896,-0.0008300117333419621,1,0.0006787973106838763,1,-0.0004586231661960483,1,0.001126467366702855,1,0.0013097362825647,1,0.01799357309937477,1
1771622131279817472,-0.0002823885588441044,1,-0.0006624898524023592,1,-0.0003390180645510554,1,0.006427602376788855,1,0.009094731882214546,1,0.04497423768043518,1
1771622131290331648,0.0007401455659419298,1,-0.0006953708943910897,1,0.0009447355405427516,1,-0.0001270849461434409,1,0.02141521126031876,1,0.05216963216662407,1
1771622131300743168,-0.001001093536615372,1,-0.0006291126483120024,1,0.0009934442350640893,1,-0.006901064421981573,1,0.00466567138209939,1,0.04835441708564758,1
1771622131311050240,-0.0001626984740141779,1,0.0007592198089696467,1,-0.0003098411252722144,1,0.009553893469274044,1,-0.006657890975475311,1,0.04470277205109596,1
1771622131321255936,0.0005709983524866402,1,-0.0004951076116412878,1,0.0001829913817346096,1,0.0001917337795021012,1,0.01630113460123539,1,0.06657160073518753,1
1771622131331362304,-0.001852535293437541,1,0.0006765365251339972,1,-0.0006872328813187778,1,-0.0111111830919981,1,0.01139956247061491,1,0.03573738783597946,1
1771622131341367552,0.0002994445967487991,1,-0.0007710823556408286,1,0.0005294262082315981,1,-0.00863297376781702,1,0.01847113855183125,1,0.0231141485273838,1
1771622131351277824,-0.001398669322952628,1,-0.0007761754095554352,1,0.0004237174871377647,1,0.003399447770789266,1,0.00206343992613256,1,0.04408957436680794,1
1771622131361092352,0.001982053508982062,1,0.001647153170779347,1,-0.0009432918741367757,1,0.008289584890007973,1,0.02160230837762356,1,0.06469910591840744,1
1771622131370811648,0.0006674146861769259,1,-0.00112857308704406,1,0.0003365161246620119,1,0.001632220693863928,1,0.015992296859622,1,0.03838736563920975,1
1771622131380434688,0.001014369307085872,1,-0.000683805497828871,1,-0.0008198441355489194,1,0.005038727540522814,1,0.01388568058609962,1,0.02963974885642529,1
1771622131389961984,-0.001261813216842711,1,0.00117743550799787,1,-0.0006487657665275037,1,0.001446823007427156,1,0.00298505462706089,1,0.04233552515506744,1
1771622131399396864,2.557727384555619e-05,1,-0.0001465025270590559,1,-0.0001707388437353075,1,-0.002203017938882113,1,0.006614768877625465,1,0.04291996359825134,1
1771622131408880896,-0.0001411569537594914,1,-0.0001285731559619308,1,0.0002975648385472596,1,-0.006673365831375122,1,0.004219803027808666,1,0.04293493926525116,1
1771622131419553792,0.001223231549374759,1,-0.001053425250574946,1,-0.0003124805516563356,1,8.856355270836502e-05,1,0.009235264733433723,1,0.0339273065328598,1
1771622131430120960,-0.0009600503253750503,1,-0.001192689873278141,1,0.0001104135808418505,1,0.005641654599457979,1,0.01190951466560364,1,0.05304235219955444,1
1771622131440583936,0.0008304114453494549,1,0.0008665066561661661,1,0.0006700747762806714,1,-0.001036745146848261,1,0.02070160582661629,1,0.0572475828230381,1
1771622131450946816,-0.0005676893051713705,1,0.0004088793357368559,1,0.0001890609855763614,1,-0.001987348077818751,1,0.005975365173071623,1,0.02729777432978153,1
1771622131461207296,0.0003446564369369298,1,0.001148701179772615,1,0.0006297670188359916,1,-0.006086275447160006,1,0.005506737157702446,1,0.04172182083129883,1
1771622131471367936,0.002123389160260558,1,-0.001406761934049428,1,0.001171375624835491,1,-0.0009129410027526319,1,0.002893637400120497,1,0.04500184953212738,1
1771622131481426944,0.003188938368111849,1,-0.0001580001699039713,1,-0.0005900123505853117,1,-0.007077563088387251,1,0.003360842820256948,1,0.06154473498463631,1
1771622131491387136,-0.0001393865095451474,1,0.0005842914688400924,1,0.0005176682607270777,1,0.003813939169049263,1,0.005070137325674295,1,0.04528268799185753,1
1771622131501249536,-0.0005605703918263316,1,0.001332590356469154,1,0.0003038886352442205,1,-0.000969471933785826,1,0.004162582568824291,1,0.04442774131894112,1
1771622131511015680,-3.89876076951623e-05,1,-0.0009547902154736221,1,-0.0001911939471028745,1,0.0008403575047850609,1,0.0253893043845892,1,0.04673371836543083,1
1771622131520685568,3.757482045330107e-05,1,-0.0002707520907279104,1,0.0001398759777657688,1,-0.006944583728909492,1,0.0316624604165554,1,0.0362827256321907,1
1771622131530265600,-0.001401991583406925,1,0.0002488250029273331,1,-0.0003849615168292075,1,0.004633566830307245,1,0.02111395262181759,1,0.02395553700625896,1
1771622131539751168,1.646470082050655e-05,1,-0.001155794016085565,1,-0.0009226299007423222,1,0.01139183063060045,1,0.02245898358523846,1,0.05120019242167473,1
1771622131549143040,0.0007022640202194452,1,-0.0002655872376635671,1,-0.0008536354289390147,1,0.01360126212239265,1,0.02487284503877163,1,0.05029973015189171,1
1771622131559157504,0.0005400424124673009,1,-3.593295332393609e-05,1,0.07219932973384857,1,0.314810574054718,1,0.6543327569961548,1,0.02658393047749996,1
1771622131569785088,0.0009486497147008777,1,0.0004024338559247553,1,0.1562393009662628,1,-0.08762780576944351,1,0.4669989347457886,1,0.02031959034502506,1
1771622131580309248,0.001048533245921135,1,-0.001391029334627092,1,0.1862847656011581,1,-0.05962461978197098,1,0.2287606000900269,1,0.06214941293001175,1
1771622131590728704,0.002275739796459675,1,-0.001258660689927638,1,0.1245582848787308,1,0.05091987177729607,1,0.3513140678405762,1,0.02964233420789242,1
1771622131601047296,0.0001101858215406537,1,-0.0001582968834554777,1,0.1467212289571762,1,0.04181484505534172,1,0.3829101026058197,1,0.06784062087535858,1
1771622131611262720,0.0003585800295695662,1,0.001550299697555602,1,0.1542496234178543,1,0.02864036709070206,1,0.2696036696434021,1,0.0438317097723484,1
1771622131621377280,-0.004245430696755648,1,0.001470003859139979,1,0.177426353096962,1,0.08437030017375946,1,0.1518844813108444,1,0.01711631938815117,1
1771622131631395072,-9.611900168238208e-05,1,0.0006297475774772465,1,0.1646104454994202,1,0.05417212843894958,1,-0.03793010115623474,1,0.02711307816207409,1
1771622131641316352,0.000691278197336942,1,-0.0001628994796192273,1,0.1260055303573608,1,-0.0705643892288208,1,-0.2885023355484009,1,0.06833881139755249,1
1771622131651138560,-0.001412420067936182,1,1.920786598930135e-05,1,0.1167274340987206,1,-0.04220979288220406,1,-0.3572256863117218,1,0.04069613665342331,1
1771622131660865280,-0.002379475394263864,1,0.001009877538308501,1,0.05985936149954796,1,-0.0815485417842865,1,-0.4723873138427734,1,0.02994253858923912,1
1771622131670495744,-3.92898109566886e-05,1,-0.0004456079332157969,1,0.008167332969605923,1,-0.1482591927051544,1,-0.6661168932914734,1,0.05183256790041924,1
1771622131680030208,-0.001005690195597708,1,0.0009683009120635688,1,-0.03470918536186218,1,0.01809624396264553,1,-0.8319854736328125,1,0.04408297315239906,1
1771622131689472000,0.0005392274470068514,1,0.0005714123835787177,1,-0.0008576117106713355,1,0.002120096003636718,1,0.002269132295623422,1,0.03599042072892189,1
1771622131698819840,-0.0004505221149884164,1,-4.514164174906909e-05,1,0.0007602358818985522,1,-0.002069187583401799,1,0.02201148495078087,1,0.04473382607102394,1
1771622131709376256,5.485504152602516e-05,1,-0.002465280005708337,1,-0.001951341750100255,1,0.006868168711662292,1,0.01273005455732346,1,0.03985375910997391,1
1771622131719972864,0.0003068117657676339,1,0.001434580073691905,1,-0.0001147087168646976,1,0.007421295624226332,1,0.01071258261799812,1,0.03958070278167725,1
1771622131730465536,0.0001732983946567401,1,-0.0004941709921695292,1,-0.001232165261171758,1,0.005723299458622932,1,0.003827813314273953,1,0.05757283046841621,1
1771622131740856064,-0.001089217490516603,1,0.0006835978711023927,1,-5.665219305228675e-06,1,0.0052530812099576,1,-0.0001871050917543471,1,0.03811149299144745,1
1771622131751142656,0.0005358798080123961,1,8.141042053466663e-05,1,-0.0003208574780728668,1,0.00115669600199908,1,0.004627807531505823,1,0.04261078685522079,1
1771622131761328896,0.0005393785540945828,1,-0.000160904775839299,1,-0.0003888403007294983,1,-0.003387422533705831,1,0.002258613938465714,1,0.0408223420381546,1
1771622131771414528,-0.001611931365914643,1,0.0002934325311798602,1,-7.454688602592796e-05,1,-0.004125442355871201,1,0.005750706419348717,1,0.05610730871558189,1
1771622131781401344,-0.0002546028699725866,1,0.000163063159561716,1,-0.0004236836393829435,1,-0.0002713835856411606,1,0.02009477093815804,1,0.04589065164327621,1
1771622131791291648,0.0003131212724838406,1,0.0004850855621043593,1,-0.0006886523915454745,1,0.004395504016429186,1,0.01774015463888645,1,0.03775092959403992,1
1771622131801088256,0.0008669623639434576,1,-0.0007470525451935828,1,0.0008665029890835285,1,0.009223632514476776,1,0.02334574051201344,1,0.04190266504883766,1
1771622131810788096,1.066678396455245e-05,1,0.001604660181328654,1,0.0006132209673523903,1,-0.001785125816240907,1,0.0200350247323513,1,0.04527412727475166,1
1771622131820391168,-0.0005944917211309075,1,-0.001520373858511448,1,-7.323837780859321e-05,1,-0.001498151570558548,1,0.01526109874248505,1,0.04345520958304405,1
1771622131829901568,0.001639773603528738,1,-0.0006912135286256671,1,0.0007203791756182909,1,0.007726461160928011,1,0.01263809204101562,1,0.03418175503611565,1
1771622131839316992,0.002133476315066218,1,0.001201021252200007,1,0.000441231211880222,1,0.01580476388335228,1,0.01066929474473,1,0.03172840550541878,1
1771622131848925440,-4.593537960317917e-05,1,-0.0002057068340945989,1,0.0004528379358816892,1,0.01316704601049423,1,0.004414559341967106,1,0.04974827170372009,1
1771622131859574272,0.0007871772977523506,1,-0.00237181643024087,1,-0.0001157707156380638,1,0.0009677053312771022,1,0.01066183298826218,1,0.03540871664881706,1
1771622131870119168,0.002100345445796847,1,-0.0005779273342341185,1,-0.05206954851746559,1,-0.119622528553009,1,0.486870288848877,1,0.04069079458713531,1
1771622131880558848,0.002261113608255982,1,0.0004950466100126505,1,-0.01538922917097807,1,-0.02076702564954758,1,0.2176354825496674,1,0.03793475404381752,1
1771622131890896128,0.0006601290660910308,1,-0.001114343293011189,1,0.05901541188359261,1,0.04657300561666489,1,0.03560354188084602,1,0.06490188091993332,1
1771622131901131008,-0.0002657964651007205,1,-0.0005147245246917009,1,0.07861725240945816,1,0.01337684039026499,1,0.1683782786130905,1,0.05300088599324226,1
1771622131911264256,-9.062980825547129e-05,1,0.0009287117864005268,1,0.07662470638751984,1,0.02241783775389194,1,0.09717143326997757,1,0.03421035781502724,1
1771622131921304320,0.002708995016291738,1,-0.001369594130665064,1,0.07604468613862991,1,0.01899334602057934,1,0.005152755882591009,1,0.03799860551953316,1
1771622131931247360,0.002201182534918189,1,-0.000502148293890059,1,0.06334061920642853,1,-0.03082029335200787,1,-0.1389710009098053,1,0.03968272358179092,1
1771622131941093120,-0.001244717976078391,1,0.001559560303576291,1,0.05064531043171883,1,-0.05867650359869003,1,-0.2327168583869934,1,0.05134522914886475,1
1771622131950841600,-0.003334406996145844,1,0.001108567579649389,1,0.03295126929879189,1,-0.06140466779470444,1,-0.3028212189674377,1,0.03411802649497986,1
1771622131960493056,-0.00191160396207124,1,0.0007742805755697191,1,0.006033570040017366,1,-0.0502694733440876,1,-0.4589790999889374,1,0.05230085551738739,1
1771622131970050560,-0.001589179737493396,1,0.0008730308618396521,1,0.0005745859816670418,1,0.001022618496790528,1,0.01084013376384974,1,0.05071187391877174,1
1771622131979513344,-0.0007910054409876466,1,0.001832571462728083,1,-0.0005044209538027644,1,-0.00541217066347599,1,0.008286972530186176,1,0.03541633486747742,1
1771622131988883200,-0.001282273093238473,1,0.0001894904999062419,1,0.0008013733895495534,1,0.006862455047667027,1,0.01374732982367277,1,0.03388100117444992,1
1771622131999169536,-4.677920878748409e-05,1,-0.0008381598745472729,1,-0.0004613726632669568,1,0.0004028589464724064,1,0.007386250887066126,1,0.03271309658885002,1
1771622132009785088,-0.0003734016208909452,1,0.001290661515668035,1,-0.0004533581668511033,1,0.01352637447416782,1,0.006732141133397818,1,0.05002038180828094,1
1771622132020297472,0.0009471317171119153,1,-0.0005071219056844711,1,-0.0003181741340085864,1,-0.006316805258393288,1,0.009011470712721348,1,0.03149795159697533,1
1771622132030704896,0.001363670919090509,1,0.0006855422980152071,1,-0.0007029800908640027,1,0.003714512567967176,1,0.01302961353212595,1,0.04740433022379875,1
1771622132041009408,-0.0009790448239073157,1,0.0006158665055409074,1,-3.20964099955745e-05,1,0.009280587546527386,1,0.01392190903425217,1,0.04376131296157837,1
1771622132051215360,0.0009822223801165819,1,0.0008509846520610154,1,-0.0001652754290262237,1,-0.008048562332987785,1,0.01819954067468643,1,0.04381079599261284,1
1771622132061319680,0.0003324792196508497,1,1.957186395884492e-05,1,-0.0009299257071688771,1,0.0002468088059686124,1,0.004716527182608843,1,0.03627146780490875,1
1771622132071324160,0.000521755195222795,1,0.0007306808256544173,1,-0.0008124510059133172,1,-0.00424801604822278,1,0.01140687707811594,1,0.04741594940423965,1
1771622132081231360,0.002367579843848944,1,-0.0006000865832902491,1,0.0002174430846935138,1,-0.002974118571728468,1,0.006673869211226702,1,0.05221660435199738,1
1771622132091040000,0.0004631048941519111,1,0.0002674489805940539,1,0.000714561901986599,1,0.01098274439573288,1,0.003672340186312795,1,0.05038243532180786,1
1771622132100750848,0.0007043680525384843,1,-0.001559906755574048,1,-0.000769158243201673,1,-0.003950152080506086,1,0.01144199725240469,1,0.03059748187661171,1
1771622132110367488,0.001468519796617329,1,0.001802768791094422,1,-0.0006582409841939807,1,-0.01099581737071276,1,0.01542633678764105,1,0.0507265105843544,1
1771622132119888384,0.001531359041109681,1,-0.001393838902004063,1,-0.0005171782104298472,1,0.008700708858668804,1,0.003548963228240609,1,0.04436078295111656,1
1771622132129314816,5.403209434007294e-05,1,-5.552127277042018e-06,1,-0.0003201569197699428,1,0.002411502646282315,1,0.01651336997747421,1,0.03956260532140732,1
1771622132138792192,-0.0001565338461659849,1,-0.0001239071279997006,1,0.000832688994705677,1,0.008972191251814365,1,0.003483403939753771,1,0.03714555129408836,1
1771622132149462784,-0.0002370124857407063,1,-0.0007642512791790068,1,0.0009737626533024013,1,-0.0038879020139575,1,0.01449671294540167,1,0.04502597451210022,1
1771622132160028160,-7.081642979755998e-05,1,0.001148917712271214,1,0.001125791692174971,1,-0.006249125115573406,1,0.003226226894184947,1,0.0426473431289196,1
1771622132170491136,-0.001044806558638811,1,-0.0008073832141235471,1,0.0003769384929910302,1,-0.006557409185916185,1,0.002932211384177208,1,0.04057247564196587,1
1771622132180853504,0.0001595537469256669,1,-0.0007192418561317027,1,0.0005141844740137458,1,-0.001737849321216345,1,0.01331434026360512,1,0.03392812237143517,1
1771622132191116032,-0.001176022808067501,1,-0.0006761845434084535,1,-0.001001915545202792,1,0.009293940849602222,1,0.008042866364121437,1,0.03205711767077446,1
1771622132201278464,0.0002838517248164862,1,2.121594843629282e-05,1,-1.971366509678774e-05,1,-0.003380229929462075,1,0.01195469871163368,1,0.05221900716423988,1
1771622132211340544,-0.000390036788303405,1,0.001280679018236697,1,0.001141084940172732,1,0.002199129899963737,1,0.01719053462147713,1,0.0359746553003788,1
1771622132221304064,0.0006834354135207832,1,0.0005068082828074694,1,0.0006327308947220445,1,0.002766201505437493,1,0.01727833598852158,1,0.03959226608276367,1
1771622132231178240,0.0001735476544126868,1,0.001114149112254381,1,-0.0005101639544591308,1,0.0003240073856431991,1,0.01540065091103315,1,0.03390665724873543,1
1771622132240958720,0.001471391296945512,1,7.893425936345011e-05,1,-0.0004021289059892297,1,-0.001133446465246379,1,0.01281766500324011,1,0.04620064422488213,1
1771622132250643968,0.001450795796699822,1,-0.0002940731064882129,1,0.0009298038785345852,1,-0.003173331962898374,1,0.0153215117752552,1,0.03960138559341431,1
1771622132260235520,-8.993491064757109e-05,1,-0.0006037706625647843,1,0.0001440311170881614,1,-0.0007254918455146253,1,0.01325572654604912,1,0.04290920123457909,1
1771622132269734656,-0.000224723742576316,1,-0.001772987190634012,1,0.003848742926493287,1,0.05538121983408928,1,0.08689810335636139,1,0.04310624301433563,1
1771622132279139840,0.003177995327860117,1,0.0008765347301959991,1,0.09758384525775909,1,0.02958272397518158,1,0.05405331775546074,1,0.04394286870956421,1
1771622132289160960,-0.003304511308670044,1,0.001071552163921297,1,0.07537563890218735,1,-0.09158632904291153,1,-0.1476398557424545,1,0.05343557521700859,1
1771622132299785472,-0.001486009801737964,1,-0.0004243693547323346,1,0.03607851266860962,1,-0.06960558146238327,1,-0.1308973729610443,1,0.03861651942133904,1
1771622132310305792,0.0007563500548712909,1,-0.001377920969389379,1,0.001327621517702937,1,-0.01718369126319885,1,-0.0353962630033493,1,0.03705153241753578,1
1771622132320721408,0.0006876164698041975,1,0.001077972818166018,1,0.0007427280070260167,1,-0.002489135134965181,1,0.002884941641241312,1,0.04562210291624069,1
1771622132331037440,0.0006165808299556375,1,0.0006307908333837986,1,-0.0004356138233561069,1,0.001102751935832202,1,0.01683873310685158,1,0.04258106648921967,1
1771622132341251840,-0.0005894482019357383,1,-0.001218931516632438,1,0.0002498331887181848,1,0.002788719721138477,1,0.00606237119063735,1,0.0374893993139267,1
1771622132351366400,-6.98839794495143e-05,1,-0.0003807928587775677,1,0.0004053472948726267,1,-0.000438965274952352,1,0.01523675490170717,1,0.04196999967098236,1
1771622132361381120,-0.0003206125984434038,1,-0.0006243682000786066,1,5.090758713777177e-05,1,0.002580816624686122,1,0.01650702767074108,1,0.04404051974415779,1
1771622132371297792,-0.002498454414308071,1,0.0006176801398396492,1,-0.0001684730086708441,1,-0.001647793455049396,1,0.02272563055157661,1,0.03897937014698982,1
1771622132381116416,-0.0003299312375020236,1,0.0006938270526006818,1,-0.000364697101758793,1,-0.006105518899857998,1,0.004872300662100315,1,0.04618881642818451,1
1771622132390839808,0.001159752951934934,1,0.0004949848516844213,1,0.0008576639229431748,1,0.00401260145008564,1,0.010076604783535,1,0.04794459789991379,1
1771622132400466688,0.0004022881621494889,1,0.0004976561176590621,1,0.0001295519614359364,1,-0.004583936650305986,1,0.007644249591976404,1,0.02072864957153797,1
1771622132409997824,0.0006074336124584079,1,0.002259605564177036,1,5.215183409745805e-05,1,0.005303353071212769,1,0.007450155913829803,1,0.03206213563680649,1
1771622132419436288,-0.0008720293408259749,1,-0.0003206834371667355,1,1.872247594292276e-05,1,-0.003626878838986158,1,0.008345163427293301,1,0.04559787735342979,1
1771622132428780800,0.001212112372741103,1,-0.0005998943233862519,1,8.572740625822917e-05,1,0.004468140657991171,1,0.01112370193004608,1,0.04132936149835587,1
1771622132439472384,0.001430515432730317,1,-0.0004576347710099071,1,5.783523010904901e-05,1,-0.003559534205123782,1,0.0100957378745079,1,0.0414525605738163,1
1771622132450061312,0.0003597023896872997,1,-0.001279440824873745,1,0.0003611821157392114,1,-0.006714398507028818,1,0.01910621672868729,1,0.04142357781529427,1
1771622132460547584,0.005045739933848381,1,-0.002914305310696363,1,0.0006494038971140981,1,0.0152828237041831,1,0.03936793655157089,1,0.03978479281067848,1
1771622132470931200,0.01443291082978249,1,-0.006559011992067099,1,0.0008032210171222687,1,0.01389540452510118,1,0.04534756392240524,1,0.03377499431371689,1
1771622132481212672,0.02229025028645992,1,-0.01061490830034018,1,0.000729249557480216,1,0.002492165891453624,1,0.006252144929021597,1,0.0396125391125679,1
1771622132491394304,0.02197923511266708,1,-0.009387215599417686,1,-0.0004125603300053626,1,0.001527041313238442,1,-0.0121241956949234,1,0.04144294932484627,1
1771622132501477120,0.01513765938580036,1,-0.009104340337216854,1,-0.0003760664549190551,1,-0.002081960439682007,1,-0.007882355712354183,1,0.03368499502539635,1
1771622132511476480,0.007536581251770258,1,-0.004012863617390394,1,0.0004211534687783569,1,-0.009189949370920658,1,-0.0152492318302393,1,0.05351719260215759,1
1771622132521381120,-0.001357123837806284,1,0.0001171659023384564,1,0.0007953228196129203,1,-0.01566367037594318,1,0.002801863010972738,1,0.04514715448021889,1
1771622132531188992,-0.003642055904492736,1,0.0006074407137930393,1,0.0002578144485596567,1,0.01842109858989716,1,0.03616137430071831,1,0.02003278769552708,1
1771622132540900864,0.002090510912239552,1,0.000478989037219435,1,-0.0005246457876637578,1,0.009577076882123947,1,0.03143439069390297,1,0.04198934510350227,1
1771622132550516736,0.008190788328647614,1,-0.003173849545419216,1,0.0008670802344568074,1,0.003834941890090704,1,0.009892146103084087,1,0.03661612048745155,1
1771622132560038912,0.004983915947377682,1,-0.002177537186071277,1,0.0005340849747881293,1,-0.005968585610389709,1,-0.001950431847944856,1,0.05587619543075562,1
1771622132569466880,-0.004044018685817719,1,0.0022529277484864,1,0.0002254410792374983,1,-0.01609453372657299,1,-0.02370909415185452,1,0.04515447095036507,1
1771622132579223552,-0.009243347682058811,1,0.004842866212129593,1,-0.0007081538205966353,1,-0.01734611392021179,1,-0.00759350648149848,1,0.04362588003277779,1
1771622132589862144,-0.01586747914552689,1,0.008649047464132309,1,-0.0003390797355677933,1,-0.006357799749821424,1,-0.01366606820374727,1,0.04480386152863503,1
1771622132600397568,-0.02435438521206379,1,0.01036003883928061,1,-0.0006878013955429196,1,-0.0130660142749548,1,-0.01246368605643511,1,0.03912106528878212,1
1771622132610829312,-0.03246980905532837,1,0.01693054474890232,1,-0.0002839882799889892,1,-0.0142061086371541,1,-0.02004302851855755,1,0.03912199661135674,1
1771622132621158912,-0.000311042764224112,1,0.0003491146781016141,1,-0.0008220322197303176,1,0.03554998710751534,1,0.08930516988039017,1,0.06721649318933487,1
1771622132631388160,-0.001215805415995419,1,0.0006359610124491155,1,0.000411649962188676,1,0.008931992575526237,1,0.008004575036466122,1,0.03207438066601753,1
1771622132641515776,-6.291434692684561e-05,1,-0.0001176747173303738,1,0.0001317800633842126,1,0.00118757807649672,1,0.01328925974667072,1,0.03807510063052177,1
1771622132651544576,-0.001318610040470958,1,-3.25517357850913e-05,1,3.198594276909716e-05,1,0.009389577433466911,1,0.02194898575544357,1,0.02246426604688168,1
1771622132661473792,-0.0007038986077532172,1,-0.0002693212009035051,1,0.0005517469253391027,1,0.0002641410101205111,1,0.03508273139595985,1,0.05067139118909836,1
1771622132671307520,0.001505755702964962,1,0.0004962049424648285,1,0.001013828325085342,1,-0.007874125614762306,1,0.01307968702167273,1,0.02374030277132988,1
1771622132681044992,0.0007928516715764999,1,-0.0002172108797822148,1,-0.0002963753358926624,1,-0.001217824639752507,1,-0.01108210161328316,1,0.03241221234202385,1
1771622132690688000,0.006258618086576462,1,-0.001537372590973973,1,-0.000618134974502027,1,0.02768532745540142,1,0.03218168765306473,1,0.04516620188951492,1
1771622132700240384,0.01032380945980549,1,-0.005584743339568377,1,-0.0007158891530707479,1,-0.02293792366981506,1,-0.007931867614388466,1,0.05140006169676781,1
1771622132709700096,0.004180741030722857,1,-0.002802056027576327,1,-3.283282785560004e-05,1,-0.01561544183641672,1,0.0007134071784093976,1,0.01478100195527077,1
1771622132719065344,-0.002925473032519221,1,0.0005109480116516352,1,0.0004158400988671929,1,-0.02081432193517685,1,-0.006439776159822941,1,0.03761432319879532,1
1771622132729488640,-0.01182137243449688,1,0.005926521029323339,1,-0.001447123591788113,1,0.005002552177757025,1,0.004549520090222359,1,0.0728801041841507,1
1771622132740096768,-0.001087396638467908,1,0.002822617534548044,1,-0.001284107682295144,1,0.01549826096743345,1,0.03621284291148186,1,0.04733314365148544,1
1771622132750599680,0.002049609087407589,1,-0.001151473727077246,1,-0.0002205272467108443,1,0.001095317769795656,1,0.01257085613906384,1,0.02369644120335579,1
1771622132761000704,0.002727631712332368,1,-0.003257365431636572,1,0.0008877100190147758,1,-0.005773754790425301,1,0.02489581890404224,1,0.04858411476016045,1
1771622132771297024,0.01476016361266375,1,-0.00602415669709444,1,0.0007259303820319474,1,0.01862206682562828,1,0.0492454469203949,1,0.0416271910071373,1
1771622132781493504,0.0329570472240448,1,-0.01432466320693493,1,0.001379300956614316,1,0.01785969920456409,1,0.068278968334198,1,0.03797890245914459,1
1771622132791589376,0.03969762474298477,1,-0.0180259682238102,1,0.00478832796216011,1,0.04495634511113167,1,0.07173032313585281,1,0.01686116307973862,1
1771622132801584384,0.03963076323270798,1,-0.01950991526246071,1,0.05963737890124321,1,-0.01633430831134319,1,-0.02067411877214909,1,0.05803040042519569,1
1771622132811481856,0.01214036997407675,1,-0.006186198443174362,1,0.04751618951559067,1,-0.05664835870265961,1,-0.116560123860836,1,0.07636729627847672,1
1771622132821284096,-0.003464078065007925,1,0.001755550969392061,1,0.03710592910647392,1,-0.03186161816120148,1,-0.01469321642071009,1,0.05088208615779877,1
1771622132830991872,-0.01605043560266495,1,0.008588343858718872,1,0.03486020863056183,1,-0.01954957656562328,1,-0.008265132084488869,1,0.02986600250005722,1
1771622132840604672,-0.02233723737299442,1,0.009573095478117466,1,0.04001917317509651,1,0.02086182497441769,1,-0.005255121272057295,1,0.04317804425954819,1
1771622132850123520,-0.02980629540979862,1,0.01496018376201391,1,0.05376571416854858,1,0.008889143355190754,1,0.01097000110894442,1,0.05698245018720627,1
1771622132859548672,-0.02984802052378654,1,0.01401742361485958,1,0.05766439810395241,1,0.01448550447821617,1,0.04068030416965485,1,0.04610096663236618,1
1771622132869024000,-0.02988786250352859,1,0.01457947678864002,1,0.06416047364473343,1,-0.02490582503378391,1,0.004077142104506493,1,0.01782315596938133,1
1771622132879681792,-0.005816544406116009,1,0.002101069316267967,1,0.03761354088783264,1,-0.04628658667206764,1,-0.06163006275892258,1,0.01079539768397808,1
1771622132890234880,0.001195373362861574,1,-9.686814155429602e-05,1,0.001473060925491154,1,-0.02454593405127525,1,-0.02408648282289505,1,0.04879506304860115,1
1771622132900685312,-0.0005513138021342456,1,0.001622987212613225,1,0.0002851123572327197,1,0.003522953484207392,1,0.003609143430367112,1,0.04980967193841934,1
1771622132911034112,-0.001678753411397338,1,-0.000188013436854817,1,-0.0001999501400860026,1,0.0003852111694868654,1,0.004427013453096151,1,0.02552787773311138,1
1771622132921279232,0.0006262888782657683,1,0.001414590748026967,1,0.0003170931595377624,1,-0.01629507914185524,1,0.001978382933884859,1,0.05319394171237946,1
1771622132931425536,9.884738392429426e-05,1,0.0006209576968103647,1,-0.0005245590000413358,1,0.002020173473283648,1,0.01950355246663094,1,0.04916048049926758,1
1771622132941470976,-0.002646912820637226,1,0.001366649637930095,1,0.001043041585944593,1,-0.01512360293418169,1,0.01380183640867472,1,0.02672263979911804,1
1771622132951416576,-0.0006581078632734716,1,0.0002899288665503263,1,-0.0004518545756582171,1,-0.004922261461615562,1,0.01912001892924309,1,0.03182614967226982,1
1771622132961265664,0.001213860232383013,1,-0.0008393555181100965,1,-3.591486165532842e-05,1,0.004474586807191372,1,0.02893189713358879,1,0.04489380121231079,1
1771622132971016448,0.0001689730124780908,1,-0.0007642231066711247,1,-7.078451017150655e-05,1,0.00420104106888175,1,0.01725690811872482,1,0.06026606634259224,1
1771622132980672768,0.0003699660010170192,1,-0.0002981165598612279,1,-0.0006084951455704868,1,-0.002840308006852865,1,0.01871750876307487,1,0.03901015967130661,1
1771622132990233088,0.002460280200466514,1,0.0006916043348610401,1,-0.000280612293863669,1,-0.006812048610299826,1,0.004311855882406235,1,0.03210645169019699,1
1771622132999698176,-0.0008551608771085739,1,-0.0002415718627162278,1,-0.0006069598603062332,1,0.01123521942645311,1,0.001141735818237066,1,0.04435829445719719,1
1771622133009078528,-0.0002480838156770915,1,-0.000157979506184347,1,0.000735685636755079,1,0.006138274446129799,1,0.008844578638672829,1,0.04708975553512573,1
1771622133019227136,-0.0005941629060544074,1,-0.0004942109808325768,1,0.0001260512071894482,1,0.005506563000380993,1,0.004548230674117804,1,0.04258293658494949,1
1771622133029846784,-0.001401106594130397,1,0.002292147604748607,1,-0.000329119066009298,1,-0.006794764194637537,1,0.01621771231293678,1,0.03724978491663933,1
1771622133040362496,-0.000148457198520191,1,-0.00122934824321419,1,-0.0007460314664058387,1,0.001843964564613998,1,0.01803968660533428,1,0.03474914655089378,1
1771622133050774784,0.001564395148307085,1,-0.0006229023565538228,1,-0.0004526408447418362,1,-0.006122925318777561,1,0.02413081377744675,1,0.04437266290187836,1
1771622133061083904,-0.0003319108509458601,1,-0.0005718453321605921,1,8.722265192773193e-06,1,-0.003424737136811018,1,0.0191404614597559,1,0.05102220177650452,1
1771622133071290624,0.0003430776414461434,1,-0.0009197835461236537,1,-0.0006400725687853992,1,-0.008482643403112888,1,0.009589496068656445,1,0.03635307773947716,1
1771622133081396480,0.0009049815707840025,1,-0.0003463122702669352,1,-0.0001869771367637441,1,0.0001771210954757407,1,0.01741237007081509,1,0.04350860789418221,1
1771622133091403264,0.0001122435351135209,1,-0.0008852285100147128,1,0.0001549144071759656,1,0.0002998442214448005,1,0.004615074954926968,1,0.03721825033426285,1
1771622133101311488,0.0004234265943523496,1,-0.0007657958194613457,1,0.0002691573172342032,1,0.006249909289181232,1,0.009503217414021492,1,0.03505343198776245,1
1771622133111120896,6.100623068050481e-05,1,-4.31051739724353e-05,1,0.0002306368696736172,1,0.005371217615902424,1,0.01372089050710201,1,0.0392884835600853,1
1771622133120835072,0.006179025396704674,1,-0.004473852925002575,1,-0.0002478802634868771,1,0.02032250910997391,1,0.06654772162437439,1,0.02294991165399551,1
1771622133130452736,0.01699069514870644,1,-0.008587179705500603,1,0.0004784023622050881,1,0.001897225854918361,1,0.01230788696557283,1,0.04316388443112373,1
1771622133139974656,0.01237395405769348,1,-0.006551141384989023,1,0.0002258240565424785,1,-0.004297566134482622,1,-0.001193589647300541,1,0.04535410925745964,1
1771622133149412864,0.001686275471001863,1,-6.168414984131232e-05,1,0.0002262168418383226,1,-0.01910591684281826,1,-0.02582901157438755,1,0.05743010714650154,1
1771622133158909184,-0.008252526633441448,1,0.004114607349038124,1,-0.001104026334360242,1,-0.01635406166315079,1,-0.004030664451420307,1,0.04483703896403313,1
1771622133169590528,-0.007535047829151154,1,0.003865145146846771,1,0.0002577865961939096,1,0.004670020658522844,1,0.008812905289232731,1,0.03302082419395447,1
1771622133180165120,-0.006157464347779751,1,0.002789072226732969,1,0.0001076693806680851,1,-0.004547256045043468,1,0.002441949443891644,1,0.0396592989563942,1
1771622133190635520,-0.006285753566771746,1,0.004167091567069292,1,-0.001152748242020607,1,0.004178531933575869,1,0.02272568829357624,1,0.02790144272148609,1
1771622133201007104,-0.001881503965705633,1,0.0006061181193217635,1,0.0002811382291838527,1,0.003453224664554,1,0.02032700926065445,1,0.04017621651291847,1
1771622133211277824,-0.002404250204563141,1,0.001206314307637513,1,-0.0002816542983055115,1,0.01000328920781612,1,0.0167375598102808,1,0.0464462898671627,1
1771622133221446144,-0.000849187548737973,1,0.0009972467087209225,1,0.0001963812246685848,1,0.00192894961219281,1,0.02258383482694626,1,0.05577217042446136,1
1771622133231514368,0.001484675332903862,1,-0.0001852296700235456,1,-0.0006119012832641602,1,-0.001186436275020242,1,0.009114054031670094,1,0.03602151200175285,1
1771622133241482752,-0.001498540979810059,1,0.0007260391139425337,1,0.0001221202401211485,1,-0.008024642243981361,1,0.005197676364332438,1,0.03725077956914902,1
1771622133251352320,-0.001323610777035356,1,7.8605989983771e-05,1,0.0001325522171100602,1,0.001753499149344862,1,0.009559135884046555,1,0.04681774228811264,1
1771622133261125632,-0.001733632292598486,1,-0.0008420092053711414,1,-0.0009398204274475574,1,-0.001276687253266573,1,0.01217754930257797,1,0.04861250892281532,1
1771622133270801920,-0.0006962587358430028,1,0.000752155261579901,1,-6.821449642302468e-05,1,-0.001117884530685842,1,0.009891808964312077,1,0.04141874611377716,1
1771622133280383232,0.0005119530251249671,1,0.0007269356865435839,1,-0.0002610278315842152,1,0.002138776937499642,1,0.01607462763786316,1,0.03810450434684753,1
1771622133289870336,-0.0007475339225493371,1,0.001426053117029369,1,0.00108845520298928,1,0.001530787209048867,1,0.01852583885192871,1,0.0299866795539856,1
1771622133299262720,0.0006031228112988174,1,-0.0006467493367381394,1,0.0005364160751923919,1,-0.009234148077666759,1,0.01706474088132381,1,0.02105867862701416,1
1771622133309137664,0.0008112907526083291,1,0.0008662044419907033,1,0.0001945054245879874,1,-0.004944394342601299,1,0.008085564710199833,1,0.03753863647580147,1
1771622133319775232,0.001757374149747193,1,0.001111144316382706,1,-0.0004301725421100855,1,0.006811638362705708,1,0.00520422263070941,1,0.05518082156777382,1
1771622133330308608,-0.0004020196793135256,1,0.0002381583472015336,1,-0.0002559474378358573,1,-0.002722265431657434,1,0.01740035973489285,1,0.05461708083748817,1
1771622133340738304,0.0009132533450610936,1,-0.000633057439699769,1,-0.0002980245917569846,1,0.004107128363102674,1,0.01802267879247665,1,0.04076812788844109,1
1771622133351065344,-0.0006956385332159698,1,0.0003931949322577566,1,0.0002801145019475371,1,-0.005079597234725952,1,0.01111499685794115,1,0.04052549600601196,1
1771622133361292032,-0.0004387058725114912,1,2.149708416254725e-05,1,0.0002912063209805638,1,-0.002984348684549332,1,0.01381719950586557,1,0.0381225049495697,1
1771622133371419392,-0.0007151805912144482,1,-8.827913552522659e-05,1,-0.000633705873042345,1,-0.00478678522631526,1,0.01551087945699692,1,0.03478090092539787,1
1771622133381445120,0.0004604170972015709,1,-0.001637247041799128,1,-0.0001426951203029603,1,0.02026946283876896,1,0.01730837300419807,1,0.05031917989253998,1
1771622133391373824,-0.0008596042171120644,1,-0.0003006746410392225,1,-0.0002204749907832593,1,0.01296454761177301,1,0.007377163507044315,1,0.03835886716842651,1
1771622133401203200,-0.0001750838418956846,1,-0.0001924319803947583,1,-0.0002584668982308358,1,-0.0004250165657140315,1,0.02530720457434654,1,0.04796800017356873,1
1771622133410935040,-0.00104722601827234,1,0.000576955615542829,1,0.0002480818948242813,1,0.0002375617623329163,1,0.004519027192145586,1,0.03996304050087929,1
1771622133420572416,-0.00193401426076889,1,0.000767811550758779,1,0.0004820695903617889,1,-0.001302998280152678,1,0.009100452996790409,1,0.03453592583537102,1
1771622133430113792,0.0001540813245810568,1,0.0001775167329469696,1,-6.43526145722717e-05,1,0.001589563908055425,1,0.0001841963094193488,1,0.03421799093484879,1
1771622133439560960,-0.0007107551791705191,1,-0.001040999428369105,1,-6.392630166374147e-05,1,-0.002186528174206614,1,0.00903231929987669,1,0.03720372170209885,1
1771622133448915968,0.0001388022792525589,1,-0.0001252124347956851,1,-6.088925874792039e-05,1,0.004548230208456516,1,0.02015883661806583,1,0.06359565258026123,1
1771622133459335168,-0.001415141741745174,1,0.0003594917652662843,1,0.0005513237556442618,1,-0.004643420688807964,1,0.008127165026962757,1,0.03453705459833145,1
1771622133469940736,0.000820170680526644,1,0.000257589592365548,1,-0.001066355733200908,1,-0.002823046874254942,1,0.003261003410443664,1,0.03754891082644463,1
1771622133480440832,0.001009553205221891,1,0.0002144927420886233,1,5.395725020207465e-05,1,-0.006413901690393686,1,0.009630762971937656,1,0.03482694923877716,1
1771622133490839552,0.001418627100065351,1,-0.001203242922201753,1,-0.0007974102627485991,1,-0.000951877620536834,1,0.007268345914781094,1,0.04891651123762131,1
1771622133501134080,0.0006803613505326211,1,-0.000629040296189487,1,-0.0009849108755588531,1,0.004123942460864782,1,0.003508206456899643,1,0.04801215976476669,1
1771622133511328000,0.001536236261017621,1,-0.0001811552356230095,1,-0.001059537753462791,1,0.001375712454319,1,0.01627967320382595,1,0.04949568212032318,1
1771622133521424384,0.001033531618304551,1,0.001377232372760773,1,0.0003837312397081405,1,-0.006415667477995157,1,0.01073040626943111,1,0.04023809358477592,1
1771622133531419648,-0.0005180194275453687,1,0.0001940213260240853,1,0.00085693399887532,1,-0.005652152001857758,1,0.00452027004212141,1,0.0519537441432476,1
1771622133541315328,8.176871779141948e-05,1,0.001078561879694462,1,0.0004294064710848033,1,-0.005788550712168217,1,0.008453250862658024,1,0.03159908577799797,1
1771622133551114752,0.001173827913589776,1,-0.0002926521410699934,1,0.0003142865025438368,1,-0.003295539878308773,1,0.0143685657531023,1,0.04412596300244331,1
1771622133560816896,-2.35953411902301e-05,1,0.0005266697844490409,1,0.0003888470237143338,1,-0.004227830562740564,1,0.002778194844722748,1,0.03872131556272507,1
1771622133570423296,0.0003387113392818719,1,0.0008572416845709085,1,0.0009596500312909484,1,0.007423181086778641,1,0.01557768788188696,1,0.0419551357626915,1
1771622133579936000,-0.0005216081626713276,1,-0.0004814836429432034,1,-0.001237175776623189,1,-0.007258179131895304,1,0.004800496157258749,1,0.03605988994240761,1
1771622133589353728,-7.192533666966483e-05,1,0.00133673963136971,1,-0.0004100241349078715,1,0.004647823050618172,1,0.01140773389488459,1,0.03718938678503036,1
1771622133598820864,0.001352623570710421,1,-0.0007275500101968646,1,0.0003043669858016074,1,0.001905954093672335,1,0.0177167896181345,1,0.02970275282859802,1
1771622133609475328,0.001781466766260564,1,-0.002829609671607614,1,-0.0002586350892670453,1,-9.895458788378164e-05,1,0.01424384210258722,1,0.02612368948757648,1
1771622133620024064,0.007666342426091433,1,-0.002581031760200858,1,0.0005146951298229396,1,0.012649305164814,1,0.05973490700125694,1,0.04339564591646194,1
1771622133630469888,0.02070376090705395,1,-0.01036259718239307,1,-0.0009573991992510855,1,0.01254913117736578,1,0.04871184378862381,1,0.03894688189029694,1
1771622133640814592,0.03026736900210381,1,-0.01403088681399822,1,0.0004585682763718069,1,0.006647355854511261,1,0.02085831202566624,1,0.04294044151902199,1
1771622133651057152,0.03354765474796295,1,-0.01605666056275368,1,0.0005340516217984259,1,0.01367899402976036,1,0.03735877200961113,1,0.03595803678035736,1
1771622133661198848,0.03799742832779884,1,-0.01715529523789883,1,0.007950169965624809,1,0.03871738910675049,1,0.0623505711555481,1,0.04182582721114159,1
1771622133671239936,0.03587520495057106,1,-0.01844943314790726,1,0.02616676688194275,1,0.01265478506684303,1,0.04424672573804855,1,0.05815381556749344,1
1771622133681181696,0.02703083120286465,1,-0.01268307957798243,1,0.03219617158174515,1,-0.1007686257362366,1,0.1367979496717453,1,0.06591208279132843,1
1771622133691030016,0.02222241461277008,1,-0.01003470085561275,1,0.03057203069329262,1,0.08054756373167038,1,0.4619742631912231,1,0.06333088874816895,1
1771622133700785408,0.02137673087418079,1,-0.01027431339025497,1,0.05129068344831467,1,-0.008802378550171852,1,0.311546266078949,1,0.05363348126411438,1
1771622133710445312,-0.01307537220418453,1,0.00687961233779788,1,0.07276476174592972,1,-0.02775122970342636,1,0.2784832715988159,1,0.06447568535804749,1
1771622133720012800,-0.04189323261380196,1,0.0202884878963232,1,0.08284332603216171,1,-0.008469315245747566,1,0.1761535555124283,1,0.04536735266447067,1
1771622133729486848,-0.06451863050460815,1,0.02859609015285969,1,0.09559547901153564,1,0.01633670553565025,1,0.3355562686920166,1,0.02731790952384472,1
1771622133738868736,-0.04886072129011154,1,0.02330498397350311,1,0.09583868086338043,1,0.1190232783555984,1,0.2552283108234406,1,0.03120126202702522,1
1771622133749160960,-0.03222675994038582,1,0.01393309514969587,1,0.08862003684043884,1,0.02522419765591621,1,0.3068727254867554,1,0.04289283603429794,1
1771622133759777536,-0.01926419697701931,1,0.009919289499521255,1,0.08119384199380875,1,0.01712736859917641,1,0.2375493496656418,1,0.01754914782941341,1
1771622133770290176,-0.01080281939357519,1,0.003742813365533948,1,0.08562472462654114,1,0.006757693365216255,1,0.2496838420629501,1,-0.01152545679360628,1
1771622133780700672,-0.001167794922366738,1,0.0008761327480897307,1,0.08810946345329285,1,0.003385348245501518,1,0.01986095309257507,1,0.06696503609418869,1
1771622133791007232,0.003542195074260235,1,-4.523496318142861e-05,1,0.08491168916225433,1,0.0007339566363953054,1,0.194375216960907,1,0.02870902419090271,1
1771622133801213440,0.004684308543801308,1,-0.001520619145594537,1,0.08488350361585617,1,0.03865528479218483,1,0.1471782028675079,1,0.04362032935023308,1
1771622133811318016,-0.000621975923422724,1,0.002272238489240408,1,0.063454769551754,1,0.02815810590982437,1,0.0950908362865448,1,0.03158000856637955,1
1771622133821322496,0.002316507510840893,1,0.00199783151037991,1,0.0888204351067543,1,-0.02636402659118176,1,0.02558837085962296,1,0.03075963072478771,1
1771622133831230464,0.004634024575352669,1,0.001879842486232519,1,0.08987081795930862,1,0.06022211909294128,1,0.4701447188854218,1,0.04990515112876892,1
1771622133841044224,0.002215058077126741,1,0.001677854568697512,1,0.08514358103275299,1,0.04027879610657692,1,0.1125424802303314,1,0.01128892041742802,1
1771622133850760448,0.00410434789955616,1,-0.002333820564672351,1,0.1001701876521111,1,-0.005098036490380764,1,0.228346973657608,1,0.04402603581547737,1
1771622133860380416,-0.0001576256763655692,1,-0.0003252180176787078,1,0.09877417981624603,1,0.05013518780469894,1,0.3417571485042572,1,0.04590772092342377,1
1771622133869906688,0.002016699872910976,1,0.001014822861179709,1,0.07774784415960312,1,-0.04662561416625977,1,0.05046187713742256,1,0.05767210945487022,1
1771622133879338240,0.003417463507503271,1,0.0007394453277811408,1,0.06585527211427689,1,-0.004254205618053675,1,-0.03821278363466263,1,0.02924594096839428,1
1771622133888819712,0.00141871115192771,1,0.0004272238584235311,1,0.04411166161298752,1,-0.003183997236192226,1,0.1398994773626328,1,0.01501496136188507,1
1771622133899492608,0.003458793507888913,1,-0.002622300758957863,1,0.04349518939852715,1,0.06229160726070404,1,0.4873467683792114,1,0.03042078576982021,1
1771622133910060032,0.01276113837957382,1,-0.004061290062963963,1,0.01666279882192612,1,0.02084426395595074,1,0.08398161083459854,1,0.07138005644083023,1
1771622133920526080,-0.003208443522453308,1,-0.0002053579519269988,1,0.001662916387431324,1,0.03894277289509773,1,0.08049538731575012,1,0.03149465098977089,1
1771622133930888960,-0.00951611902564764,1,0.0021494145039469,1,-0.05793609097599983,1,0.1707564145326614,1,0.3494420945644379,1,0.02766146324574947,1
1771622133941147648,-0.0002104733139276505,1,-0.001159451203420758,1,-0.09561862796545029,1,0.02083999291062355,1,0.4711313843727112,1,0.01014108024537563,1
1771622133951307776,-0.01059234794229269,1,-0.0002511871862225235,1,-0.1348217129707336,1,0.1156992167234421,1,0.4967295229434967,1,0.03359625861048698,1
1771622133961366016,-0.008677887730300426,1,0.002011308679357171,1,-0.1326223462820053,1,0.1364107578992844,1,0.5625230073928833,1,0.03560997545719147,1
1771622133971324672,-0.006928117014467716,1,0.002348292386159301,1,-0.1375775933265686,1,0.1000739708542824,1,0.722814679145813,1,0.02648703753948212,1
1771622133981191680,0.005389245692640543,1,-0.004887937568128109,1,-0.1541202813386917,1,-0.05245539918541908,1,0.4614396393299103,1,0.03734815120697021,1
1771622133990960384,0.01166396029293537,1,-0.00660671666264534,1,-0.1707696467638016,1,0.08772618323564529,1,0.4511343538761139,1,0.05507033318281174,1
1771622134000634368,0.03086773864924908,1,-0.01241248566657305,1,-0.2016330659389496,1,0.2331734150648117,1,0.6143807768821716,1,0.05290563032031059,1
1771622134010212352,0.0285127330571413,1,-0.007811321876943111,1,-0.1735278367996216,1,0.04080553725361824,1,0.6180193424224854,1,0.09124325960874557,1
1771622134019697152,0.01537721510976553,1,-0.004543047863990068,1,-0.15718112885952,1,0.01481249462813139,1,0.6915364265441895,1,0.1116241440176964,1
1771622134029088512,0.006850203033536673,1,-0.006365294102579355,1,-0.1436861008405685,1,-0.1365423202514648,1,0.5582628846168518,1,-0.02583732083439827,1
1771622134039103232,-0.02293999493122101,1,0.005576200783252716,1,-0.08871394395828247,1,0.03679439052939415,1,0.967698872089386,1,0.06062261760234833,1
1771622134049732096,-0.01747688092291355,1,0.004487811587750912,1,-0.1051727309823036,1,0.06545266509056091,1,0.8888861536979675,1,0.1847351789474487,1
1771622134060255744,-0.003761451924219728,1,0.001655020634643734,1,-0.1385347694158554,1,0.2391347438097,1,0.3100228607654572,1,0.09107960015535355,1
1771622134070674944,-0.01746917515993118,1,0.01051195617765188,1,-0.172651007771492,1,0.4638840556144714,1,0.7945414185523987,1,0.064620740711689,1
1771622134080993792,-0.01586486771702766,1,0.008806221187114716,1,-0.2159585654735565,1,0.1527198553085327,1,0.4399453699588776,1,0.02769244648516178,1
1771622134091211008,-0.01083159726113081,1,0.002783399540930986,1,-0.2217828035354614,1,-0.03269936144351959,1,0.02477383241057396,1,-0.03601972758769989,1
1771622134101329152,-0.001605122932232916,1,0.001077062799595296,1,-0.2402781546115875,1,-0.2395471930503845,1,0.01446095481514931,1,-0.06314030289649963,1
1771622134111346688,0.002375092357397079,1,-0.004345171619206667,1,-0.2276472747325897,1,-0.006340986117720604,1,0.3596796989440918,1,0.02131672203540802,1
1771622134121264640,-0.0005847872234880924,1,-0.007311954628676176,1,-0.2094823718070984,1,-0.01326670218259096,1,0.1855923682451248,1,0.07213161140680313,1
1771622134131086336,-0.01687126606702805,1,0.007050591055303812,1,-0.2195104658603668,1,-0.04977202042937279,1,0.1282581090927124,1,0.001609125174582005,1
1771622134140810240,-0.006208549719303846,1,0.002708632731810212,1,-0.2102439999580383,1,0.1016593798995018,1,0.5836766958236694,1,0.2231800109148026,1
1771622134150439680,-0.01271770521998405,1,0.001878433511592448,1,-0.2050960808992386,1,0.0271990243345499,1,1.317801237106323,1,0.7484920620918274,1
1771622134159973376,0.00646201753988862,1,-0.002425359329208732,1,-0.2416322976350784,1,-0.07427115738391876,1,0.3804854452610016,1,-0.08877974003553391,1
1771622134169412352,-0.01066909451037645,1,-0.001845800434239209,1,-0.2581702172756195,1,-0.07704341411590576,1,0.3821299970149994,1,0.2018948793411255,1
1771622134178758144,-0.006891888566315174,1,-0.002784930169582367,1,-0.2854843139648438,1,0.2374798953533173,1,0.6142399311065674,1,0.0845203772187233,1
1771622134189314048,-0.01218760292977095,1,0.001197156612761319,1,-0.3115999102592468,1,0.05587163195014,1,0.3379074335098267,1,0.0677562803030014,1
1771622134199911424,-0.01406595576554537,1,0.005629386752843857,1,-0.214549332857132,1,-0.435200423002243,1,0.790757954120636,1,0.1980756372213364,1
1771622134210407680,-0.02062415145337582,1,0.005332995671778917,1,-0.1750548034906387,1,-0.5605552792549133,1,-0.9982789754867554,1,0.1369772106409073,1
1771622134220799488,-0.007342727854847908,1,-0.005880288779735565,1,0.02758624404668808,1,-0.8473675847053528,1,0.2352913022041321,1,-0.1888847500085831,1
1771622134231088896,-0.00659509701654315,1,0.004187280312180519,1,-0.01658967509865761,1,-0.2322791218757629,1,0.6707866787910461,1,0.1621767580509186,1
1771622134241277696,-0.00831395760178566,1,0.0007055657333694398,1,0.03578123450279236,1,-0.5351401567459106,1,0.08650869131088257,1,0.2698435187339783,1
1771622134251364608,-0.02090593613684177,1,0.004466611426323652,1,0.09794804453849792,1,-0.3744368851184845,1,0.2484702318906784,1,0.1159607768058777,1
1771622134261353216,0.00525727029889822,1,0.007439935114234686,1,0.1729784160852432,1,-0.3988922536373138,1,0.536912739276886,1,-0.1477243155241013,1
1771622134271243264,-0.02521214261651039,1,0.01235987525433302,1,0.1490882635116577,1,-0.1777300387620926,1,0.8976011276245117,1,0.09347808361053467,1
1771622134281036800,-0.02290196716785431,1,0.01179177965968847,1,0.1613601595163345,1,0.2154648005962372,1,0.8525680899620056,1,0.1104856356978416,1
1771622134290733312,0.007233152631670237,1,0.005022154655307531,1,0.1439987272024155,1,0.4779541194438934,1,0.5015124082565308,1,0.1133827492594719,1
1771622134300333824,-0.002351886359974742,1,0.008562219329178333,1,0.2169151306152344,1,0.0658266693353653,1,1.435980200767517,1,0.2682150304317474,1
1771622134309840896,-0.0074489526450634,1,0.0006659819046035409,1,0.2420383840799332,1,0.194797471165657,1,1.168768048286438,1,0.1671076714992523,1
1771622134319254784,-0.01213147863745689,1,0.009983846917748451,1,0.2110294252634048,1,0.4667899906635284,1,1.11323094367981,1,-0.03539249300956726,1
1771622134328869632,0.02181055955588818,1,0.001848018146120012,1,0.1961087882518768,1,0.4977455139160156,1,0.3835501074790955,1,-0.1947735846042633,1
1771622134339519232,0.002119617303833365,1,0.003687714226543903,1,0.1907347589731216,1,0.3648070693016052,1,1.548769950866699,1,0.3160484135150909,1
1771622134350065664,-0.009604554623365402,1,0.004960494581609964,1,0.07525908946990967,1,0.5606299638748169,1,1.341624021530151,1,0.2425244003534317,1
1771622134360509952,-0.0009255434852093458,1,0.002276433166116476,1,0.01014889590442181,1,0.3880559206008911,1,0.5059038996696472,1,0.1422749906778336,1
1771622134370852352,-0.01041692215949297,1,0.005823205690830946,1,-0.04769492894411087,1,0.1510559916496277,1,0.5596885085105896,1,-0.0848512277007103,1
1771622134381095680,-0.00912851095199585,1,0.007274164818227291,1,-0.04429193958640099,1,0.05115491151809692,1,0.9686030745506287,1,-0.06368938088417053,1
1771622134391244032,-0.00461558997631073,1,0.0001182623236672953,1,0.01985310763120651,1,0.1073979884386063,1,0.6945393085479736,1,-0.108392745256424,1
1771622134401293568,0.07918595522642136,1,-0.03627573698759079,1,0.05276880785822868,1,0.1284656673669815,1,0.5231059789657593,1,-0.101766049861908,1
1771622134411244544,0.08361750841140747,1,-0.03065364807844162,1,0.06672347337007523,1,0.1275319904088974,1,0.9697061777114868,1,0.1616513580083847,1
1771622134421097472,0.09506502002477646,1,-0.03495966270565987,1,-0.03474538028240204,1,0.551206648349762,1,0.316366970539093,1,0.0473792552947998,1
1771622134430854400,0.053059171885252,1,-0.01375827006995678,1,-0.1030116900801659,1,-0.01718572340905666,1,0.3675748109817505,1,-0.05014148354530334,1
1771622134440514816,0.01564992964267731,1,0.0001580405223648995,1,-0.1763140708208084,1,0.1829434633255005,1,-0.1749870926141739,1,0.233219712972641,1
1771622134450081536,0.0007853300194256008,1,0.0011650868691504,1,-0.2366006821393967,1,0.1351343542337418,1,-0.4396675527095795,1,-0.3493198752403259,1
1771622134459553024,0.01593269780278206,1,-0.008796920999884605,1,-0.2314232885837555,1,-0.009854371659457684,1,-0.1222353875637054,1,0.2037481069564819,1
1771622134468931328,-0.07108201086521149,1,0.02436031028628349,1,-0.2112585306167603,1,0.2963383495807648,1,1.036413550376892,1,0.2234291583299637,1
1771622134479219200,-0.04452724382281303,1,0.01107701472938061,1,-0.1706704199314117,1,0.2400550544261932,1,0.1425269097089767,1,0.1113065257668495,1
1771622134489833472,-0.05098587647080421,1,0.02623581513762474,1,-0.1283753514289856,1,-0.262999415397644,1,0.1148369312286377,1,-0.1254768967628479,1
1771622134500343808,-0.1070073992013931,1,0.05814281851053238,1,-0.1041076704859734,1,0.2541074156761169,1,0.4928336441516876,1,-0.6956812739372253,1
1771622134510750208,-0.07870946079492569,1,0.02165990322828293,1,-0.3030425310134888,1,0.6496391296386719,1,0.3930534422397614,1,0.2488174736499786,1
1771622134521053952,-0.05028749257326126,1,0.01118297595530748,1,-0.3976965844631195,1,0.362432599067688,1,0.153226226568222,1,0.02127833291888237,1
1771622134531257344,-0.0312877856194973,1,0.003674190724268556,1,-0.4535844326019287,1,-0.2030656188726425,1,1.414440274238586,1,0.2992296814918518,1
1771622134541360640,-0.02170422859489918,1,0.01421934273093939,1,-0.3945271670818329,1,-0.4538924992084503,1,-0.08643276989459991,1,-0.2432447224855423,1
1771622134551365632,-0.01498242653906345,1,0.00932585820555687,1,-0.325828492641449,1,-0.3784466087818146,1,0.5285047888755798,1,0.2016397565603256,1
1771622134561271296,-0.0340694785118103,1,0.0171417947858572,1,-0.2187391668558121,1,-0.3637984097003937,1,-0.1913915425539017,1,0.05034549906849861,1
1771622134571078144,-0.006471348460763693,1,0.006302416790276766,1,-0.1577650606632233,1,-0.1634440720081329,1,0.9683675765991211,1,0.07367034256458282,1
1771622134580789760,0.008009504526853561,1,-0.006004191469401121,1,-0.06165300309658051,1,0.1287679821252823,1,0.3716141581535339,1,0.1094255968928337,1
1771622134590405120,-0.01898028142750263,1,0.007635421119630337,1,0.03072082065045834,1,0.3695288002490997,1,1.194559693336487,1,0.2502781748771667,1
1771622134599926272,0.01137768477201462,1,-0.006791655439883471,1,0.08349984139204025,1,0.3837780654430389,1,1.540570735931396,1,-0.05757367983460426,1
1771622134609353472,-0.01007502712309361,1,-0.0001444621593691409,1,-0.04565209895372391,1,0.9174246788024902,1,0.3479254543781281,1,0.1704306751489639,1
1771622134618830080,0.01579912193119526,1,-0.004867832642048597,1,-0.1736446022987366,1,0.9477095603942871,1,0.3699749708175659,1,-0.09377587586641312,1
1771622134629498880,0.03032116778194904,1,-0.01865300536155701,1,-0.3123357594013214,1,0.6477621793746948,1,1.005115509033203,1,0.1524929255247116,1
1771622134640062208,0.02898404933512211,1,-0.01050762366503477,1,-0.3881292939186096,1,0.4401583075523376,1,1.206668734550476,1,0.001135906903073192,1
1771622134650523136,0.009304954670369625,1,0.01301435008645058,1,-0.4849331676959991,1,0.3161996901035309,1,0.5410476326942444,1,0.2618982195854187,1
1771622134660880896,-0.03685531765222549,1,0.01900535635650158,1,-0.4893256723880768,1,0.04178126901388168,1,0.3522352874279022,1,0.02341784723103046,1
1771622134671136256,-0.08902708441019058,1,0.02886701188981533,1,-0.4835042953491211,1,-0.008593420498073101,1,0.9602304697036743,1,-0.3997324705123901,1
1771622134681291776,0.008655713871121407,1,-0.007070363964885473,1,-0.4291729331016541,1,0.1576212346553802,1,0.5972947478294373,1,0.07261915504932404,1
1771622134691346432,-0.007949019782245159,1,0.01120506040751934,1,-0.4558449983596802,1,0.1467347741127014,1,0.1735315471887589,1,-0.066501185297966,1
1771622134701300992,-0.003008057363331318,1,0.000315330718876794,1,-0.4070319831371307,1,-0.1144139990210533,1,0.785179615020752,1,0.1071615293622017,1
1771622134711158784,-0.001146424561738968,1,0.002897219965234399,1,-0.3561260998249054,1,0.0009128149249590933,1,0.4774452447891235,1,0.07921311259269714,1
1771622134720918784,-0.009677727706730366,1,0.00766996294260025,1,-0.4134092628955841,1,0.1736140549182892,1,0.6697402596473694,1,0.1206189841032028,1
1771622134730584064,-0.02650649473071098,1,0.001487128902226686,1,-0.3887231051921844,1,-0.70256108045578,1,0.4538226127624512,1,0.003032797947525978,1
1771622134740157696,-0.03643327578902245,1,0.01552829053252935,1,-0.5691186785697937,1,-0.5521714687347412,1,-0.6521746516227722,1,0.1805645972490311,1
1771622134749636352,-0.0535498708486557,1,0.009175391867756844,1,-0.5804035067558289,1,0.006193418521434069,1,0.07139281928539276,1,0.01476701442152262,1
1771622134759023104,0.04451233521103859,1,-0.008902423083782196,1,-0.32766392827034,1,-1.190601587295532,1,0.5946107506752014,1,0.3279459774494171,1
1771622134769033216,-0.0001313394604949281,1,0.01127446815371513,1,-0.3585546314716339,1,-0.821104884147644,1,0.8218812942504883,1,0.6353464722633362,1
1771622134779659008,0.04039186984300613,1,-0.008658937178552151,1,-0.1433205008506775,1,-0.7482612729072571,1,0.7460691332817078,1,-0.1805055439472198,1
1771622134790179328,-0.02753205597400665,1,0.01575610786676407,1,-0.03672994673252106,1,0.03991258144378662,1,0.2485853284597397,1,-0.1051077768206596,1
1771622134800596224,-0.005294326227158308,1,0.00421434547752142,1,0.08713772892951965,1,-0.005707629956305027,1,1.718462467193604,1,0.2026169747114182,1
1771622134810913024,0.02323740161955357,1,0.001170244999229908,1,-0.1397286653518677,1,0.5862114429473877,1,-0.6957424879074097,1,-0.348432332277298,1
1771622134821127424,-0.008749566040933132,1,0.01068989373743534,1,-0.2319257110357285,1,0.2135601341724396,1,0.1633729338645935,1,0.1049758642911911,1
1771622134831240448,-0.01224547158926725,1,0.004757885821163654,1,-0.1392022520303726,1,-0.378429651260376,1,1.051499724388123,1,0.3403914868831635,1
1771622134841255168,-0.01289817877113819,1,-0.001731274649500847,1,-0.02539603784680367,1,-0.6453620791435242,1,-0.06143518909811974,1,0.195299044251442,1
1771622134851170048,-0.003580387216061354,1,-0.002353380899876356,1,0.07041294872760773,1,-0.3601526021957397,1,-0.2523376941680908,1,0.3527039885520935,1
1771622134860987392,-0.001267284154891968,1,0.003510493785142899,1,0.1661602705717087,1,-0.7556399703025818,1,0.05939805880188942,1,0.004854992963373661,1
1771622134870708480,-0.009822836145758629,1,0.01747842133045197,1,0.2318735420703888,1,-0.2864165604114532,1,0.4068130850791931,1,0.04059519246220589,1
1771622134880332800,0.02569197863340378,1,-0.007739692460745573,1,0.3112976253032684,1,0.5549483299255371,1,-0.5491642355918884,1,0.3977760672569275,1
1771622134889868032,-0.0002937153331004083,1,-0.006525856908410788,1,0.3338021039962769,1,0.6315656900405884,1,0.4618068337440491,1,-0.4518691301345825,1
1771622134899309056,0.01934979856014252,1,0.01673070527613163,1,0.3121612370014191,1,0.3722958862781525,1,-0.8165795803070068,1,-0.243733823299408,1
1771622134908656128,-0.02235297672450542,1,0.01144805364310741,1,0.1973249614238739,1,0.8848797678947449,1,-0.1348364949226379,1,0.1790637224912643,1
1771622134919348992,-0.02267590165138245,1,0.001039549242705107,1,0.02047854103147984,1,0.8112913966178894,1,0.4553762376308441,1,0.388304740190506,1
1771622134929936384,-0.03302085399627686,1,0.00654160650447011,1,-0.08174886554479599,1,0.5325309634208679,1,0.4061965346336365,1,0.3092973828315735,1
1771622134940420864,-0.006978435907512903,1,0.004195449873805046,1,-0.1924398243427277,1,0.4213705062866211,1,-0.9559569358825684,1,-0.1622485518455505,1
1771622134950801664,-0.03535109385848045,1,0.0191492922604084,1,-0.3465105295181274,1,-0.1101480722427368,1,-0.1178940832614899,1,-0.04034911841154099,1
1771622134961079296,0.01840183138847351,1,0.001525064697489142,1,-0.3755118250846863,1,0.2714687883853912,1,-0.9700582027435303,1,0.08272738009691238,1
1771622134971257088,0.03087605908513069,1,-0.0154251754283905,1,-0.3180718123912811,1,-0.3073920607566833,1,-0.07987993955612183,1,0.1162981763482094,1
1771622134981337600,0.0268892552703619,1,0.00237401551567018,1,-0.2440966814756393,1,-0.7201362252235413,1,-0.3980368971824646,1,0.1800559759140015,1
1771622134991318272,-0.01533006317913532,1,0.0001363432529615238,1,-0.1787637323141098,1,-0.4999068677425385,1,-0.2552730143070221,1,0.3383206725120544,1
1771622135001200128,-0.02173658832907677,1,-0.008766951039433479,1,-0.1033531799912453,1,-0.452970951795578,1,-0.5935643911361694,1,0.3055174648761749,1
1771622135010985472,-0.005684570875018835,1,-0.00491615291684866,1,-0.1446923911571503,1,-0.03957231342792511,1,-0.3824089169502258,1,-0.2022654414176941,1
1771622135020673280,-0.0261660423129797,1,-0.003856511553749442,1,-0.1248856410384178,1,-0.1040728837251663,1,0.9463276267051697,1,0.616838276386261,1
1771622135030266624,-0.02299720235168934,1,0.006655465345829725,1,0.07811266183853149,1,-0.6760575175285339,1,-0.03400291875004768,1,0.03967165574431419,1
1771622135039765248,-0.04600772634148598,1,0.007963820360600948,1,0.1752312630414963,1,-0.3293591141700745,1,0.1559252589941025,1,0.1091447174549103,1
1771622135049169408,-0.02302832901477814,1,0.002677761251106858,1,0.1243991628289223,1,0.002115096896886826,1,-0.4423874318599701,1,-0.0102034779265523,1
1771622135058910976,-0.02185913734138012,1,0.00970001332461834,1,0.1221649870276451,1,-0.3278307616710663,1,-0.02467575296759605,1,0.08699090778827667,1
1771622135069553664,-0.02561205066740513,1,0.002349195070564747,1,0.1203513815999031,1,0.1079588383436203,1,-0.2786130011081696,1,0.02665103413164616,1
1771622135080092672,-0.04659603536128998,1,-0.000187325815204531,1,0.09392876923084259,1,0.1815037429332733,1,-0.2157071679830551,1,-0.2693502902984619,1
1771622135090529280,-0.0145823173224926,1,-0.000860070635098964,1,-0.01777166500687599,1,0.7407848238945007,1,-1.000633835792542,1,0.2122955471277237,1
1771622135100862720,0.04872362315654755,1,-0.006981121376156807,1,0.08656493574380875,1,-0.2171619385480881,1,1.226703286170959,1,-0.003448527306318283,1
1771622135111094272,-0.004283948801457882,1,0.001890674000605941,1,-0.03133933991193771,1,0.493879646062851,1,-0.4693723618984222,1,-1.071907162666321,1
1771622135121225472,-0.007877950556576252,1,0.0003111387777607888,1,-0.1699257642030716,1,0.8031631112098694,1,0.7505268454551697,1,0.2581715881824493,1
1771622135131260672,0.008207743056118488,1,0.001773828407749534,1,-0.1668951511383057,1,0.01521815825253725,1,-0.4923597574234009,1,0.142423540353775,1
1771622135141196544,-0.0231669694185257,1,-0.005164693109691143,1,-0.277870774269104,1,0.02613804489374161,1,0.4313313364982605,1,0.4441688358783722,1
1771622135151033344,-0.01660402864217758,1,0.004271027166396379,1,-0.2975990474224091,1,-0.09298013895750046,1,-1.790437459945679,1,-0.2586587965488434,1
1771622135160774656,-0.08243089914321899,1,0.0127005921676755,1,-0.4046782255172729,1,0.2612193524837494,1,-0.4401807487010956,1,-0.5546449422836304,1
1771622135170418944,-0.05652844533324242,1,-0.00765440845862031,1,-0.3106847703456879,1,-0.3949443995952606,1,0.6731446981430054,1,0.3550005555152893,1
1771622135179967488,0.1100879013538361,1,0.001757235499098897,1,-0.3319614231586456,1,-0.270973801612854,1,-1.016842722892761,1,0.05825502052903175,1
1771622135189423360,-0.06341212242841721,1,7.985538832144812e-05,1,-0.1753987371921539,1,-0.7595347166061401,1,-0.1960445940494537,1,-0.4647136628627777,1
1771622135198784768,0.02608859352767467,1,0.00429116515442729,1,-0.06257345527410507,1,-0.6084849238395691,1,-0.05104572325944901,1,0.2462916374206543,1
1771622135209209344,0.0148610919713974,1,0.00115105276927352,1,-0.02453677728772163,1,-0.1095696836709976,1,-0.8646352887153625,1,0.06035697087645531,1
1771622135219819008,0.04945516213774681,1,0.002308360766619444,1,0.03207659721374512,1,-0.007520603016018867,1,-0.5442308783531189,1,0.1374081522226334,1
1771622135230324992,-0.03998979181051254,1,0.0007068060804158449,1,0.03139961138367653,1,-0.02257152460515499,1,-0.5996683835983276,1,0.3942382335662842,1
1771622135240727040,-0.002930424408987164,1,0.007157772779464722,1,-0.007115216460078955,1,0.05809548497200012,1,-0.6261422038078308,1,1.086794018745422,1
1771622135251028480,0.02364680171012878,1,0.00302003463730216,1,-0.06493758410215378,1,-0.1935080289840698,1,-0.5098050832748413,1,0.09741979092359543,1
1771622135261227520,-0.03165823966264725,1,-0.0003060097515117377,1,0.001658723456785083,1,-0.3083093464374542,1,-0.5190944075584412,1,0.5050746202468872,1
1771622135271324160,0.01136978343129158,1,0.01584520377218723,1,-0.02001344226300716,1,0.04492370039224625,1,-0.5810520648956299,1,-0.2607561647891998,1
1771622135281323264,0.03485190123319626,1,0.005860233213752508,1,0.1117054522037506,1,-0.475676953792572,1,-0.3224016427993774,1,0.2431501150131226,1
1771622135291222784,0.04570308327674866,1,0.002949364949017763,1,0.2067947834730148,1,-0.116275928914547,1,-1.139721155166626,1,0.2284556776285172,1
1771622135301025536,-0.01636524684727192,1,0.02352475747466087,1,0.1778694540262222,1,0.08023671805858612,1,-0.4143267869949341,1,0.2070014923810959,1
1771622135310734592,0.04080910235643387,1,0.002327611669898033,1,0.1172276958823204,1,0.4801296293735504,1,-2.096763372421265,1,-0.3436916470527649,1
1771622135320348928,-0.00925078522413969,1,-0.006181094795465469,1,-0.05814540013670921,1,0.828684389591217,1,0.322318971157074,1,0.2987799346446991,1
1771622135329867520,-0.03779462724924088,1,0.007446538656949997,1,-0.05597003921866417,1,0.3046228587627411,1,0.5510481595993042,1,0.07925749570131302,1
1771622135339293440,-0.0179455354809761,1,0.007169893942773342,1,0.02703208103775978,1,0.1475921869277954,1,-0.7501965761184692,1,-0.07555846869945526,1
1771622135348768768,-7.005124643910676e-05,1,0.004539999179542065,1,0.06108454242348671,1,-0.06086988747119904,1,-0.2481716424226761,1,0.07212478667497635,1
1771622135359430144,-0.004948148969560862,1,0.003563962178304791,1,0.1132131740450859,1,-0.4398744404315948,1,0.0183674544095993,1,0.3064700961112976,1
1771622135369988608,-0.01281962171196938,1,-0.0002702793572098017,1,0.1822786331176758,1,-0.2451068758964539,1,-0.3986207842826843,1,0.09172692149877548,1
1771622135380442880,-0.01572467759251595,1,0.001777146011590958,1,0.1661647856235504,1,-0.04530241340398788,1,-0.2840360403060913,1,-0.3672065138816833,1
1771622135390795264,0.01666794158518314,1,-0.02216648310422897,1,0.1950513273477554,1,0.06422144919633865,1,-0.9514142870903015,1,-0.1505787074565887,1
1771622135401047552,0.01449368707835674,1,-0.001255138777196407,1,0.1158691123127937,1,0.3032861351966858,1,-0.6443463563919067,1,-0.1242096498608589,1
1771622135411197952,-0.04226738214492798,1,0.008221680298447609,1,0.07072246819734573,1,0.09950342029333115,1,0.8637293577194214,1,0.2851348221302032,1
1771622135421247744,0.03491396456956863,1,0.002634905744343996,1,0.141814112663269,1,0.2397593408823013,1,0.3843896389007568,1,0.612216591835022,1
1771622135431199232,0.00916953943669796,1,-0.005319463089108467,1,0.07836079597473145,1,0.6278156042098999,1,-0.7740017175674438,1,-0.1461563557386398,1
1771622135441051904,-0.009312390349805355,1,0.005566516891121864,1,-0.001605763100087643,1,0.8245247602462769,1,0.05631433799862862,1,0.2956497669219971,1
1771622135450808832,0.001462331973016262,1,-0.007223569788038731,1,-0.05334793403744698,1,0.6284015774726868,1,0.6582688093185425,1,0.1417187750339508,1
1771622135460468480,0.05757547169923782,1,-0.01790690235793591,1,-0.1046394556760788,1,0.6442990303039551,1,-0.4041868448257446,1,0.08282660692930222,1
1771622135470037760,-0.06012830510735512,1,0.001758958678692579,1,-0.1092998683452606,1,0.1689494848251343,1,-0.4788283407688141,1,0.1470125168561935,1
1771622135479516416,0.03213980048894882,1,-0.006665179505944252,1,-0.1062512621283531,1,-0.0367240272462368,1,0.1654874235391617,1,0.4459767043590546,1
1771622135488900864,0.006737754214555025,1,0.001759358681738377,1,-0.2085562646389008,1,0.2283569872379303,1,-0.04722896590828896,1,0.2195125967264175,1
1771622135499052032,-0.01910145953297615,1,0.005546316504478455,1,-0.1643559038639069,1,0.1278814524412155,1,-0.1868274360895157,1,0.2096956968307495,1
1771622135509673472,-0.06265277415513992,1,0.008819662034511566,1,-0.2241053283214569,1,0.3081735670566559,1,-0.2953997850418091,1,-0.2486369162797928,1
1771622135520190720,0.08798796683549881,1,-0.0003323420532979071,1,-0.1613307297229767,1,-0.2035069167613983,1,-1.218039155006409,1,-0.09036447107791901,1
1771622135530604800,0.04008341580629349,1,-0.002556707244366407,1,-0.1577263325452805,1,-0.2138720750808716,1,0.4750777184963226,1,0.420441746711731,1
1771622135540915200,-0.0002692781272344291,1,-0.002242192625999451,1,-0.09072332829236984,1,0.0905800461769104,1,-0.5019856691360474,1,-0.3817104995250702,1
1771622135551123456,-0.04071270674467087,1,0.00666499137878418,1,-0.108477808535099,1,-0.1483389139175415,1,-0.6142635345458984,1,0.04779713973402977,1
1771622135561232896,-0.02587172575294971,1,0.0008485816651955247,1,-0.05512772873044014,1,-0.7107868194580078,1,-0.4354624450206757,1,-0.2900474667549133,1
1771622135571243008,-0.006472491659224033,1,-0.001900932984426618,1,0.05233437940478325,1,-0.3534736633300781,1,-0.1692525893449783,1,0.1879205405712128,1
1771622135581156608,-0.01567620225250721,1,-0.007730111014097929,1,0.1545762568712234,1,-0.4847210347652435,1,-0.6424428820610046,1,-0.1588103026151657,1
1771622135590971392,-0.002703444100916386,1,-0.004067770205438137,1,0.1927562654018402,1,-0.1503749191761017,1,-0.8408797979354858,1,-0.2350334823131561,1
1771622135600690944,-0.008840320631861687,1,0.006751149892807007,1,0.1460423916578293,1,0.2398329824209213,1,-0.07926586270332336,1,0.3411982953548431,1
1771622135610313984,0.007710215635597706,1,-0.00247040786780417,1,0.1405878961086273,1,0.2482083737850189,1,-0.1263365894556046,1,0.20193712413311,1
1771622135619841024,-0.0004389097448438406,1,-0.007808181922882795,1,0.2816640138626099,1,0.09247764199972153,1,-0.3223987519741058,1,-0.1889291703701019,1
1771622135629275136,0.02135978639125824,1,-0.01111222710460424,1,0.2493550777435303,1,0.3813366293907166,1,-0.8557525277137756,1,0.2290424108505249,1
1771622135638760192,0.02849117293953896,1,-0.01080177910625935,1,0.2042329758405685,1,0.1014154106378555,1,-0.9944532513618469,1,-0.1091781109571457,1
1771622135649441536,0.001078544883057475,1,-0.00596520071849227,1,0.1916431933641434,1,0.1858851760625839,1,0.007378289941698313,1,0.504537045955658,1
1771622135660018176,0.02763023413717747,1,-0.002165524056181312,1,0.1480817496776581,1,0.1027230992913246,1,-0.8186597228050232,1,-0.02113962918519974,1
1771622135670492416,-0.02725213021039963,1,0.01612099446356297,1,0.1062462404370308,1,0.3549233675003052,1,-1.015047192573547,1,-0.3284502923488617,1
1771622135680862976,-0.01543892920017242,1,0.00490488950163126,1,0.07964523136615753,1,0.1437067985534668,1,-0.3248413801193237,1,0.2816004455089569,1
1771622135691131136,0.02880430966615677,1,0.004900965373963118,1,0.03676611557602882,1,0.34140744805336,1,-0.2721159160137177,1,-0.07422546297311783,1
1771622135701299456,-0.03674871474504471,1,0.003195703029632568,1,0.04031861945986748,1,0.2492173612117767,1,-0.2751021385192871,1,0.1688486188650131,1
1771622135711365376,-0.007331034168601036,1,-0.004362759180366993,1,0.02164320647716522,1,0.4595567286014557,1,0.4369153678417206,1,0.3919994831085205,1
1771622135721331968,-0.03380747511982918,1,-0.003165924688801169,1,0.01285330764949322,1,0.4810802638530731,1,-0.06054717674851418,1,0.1837806105613708,1
1771622135731204608,-0.01610052026808262,1,-0.0003039104922208935,1,0.0477372482419014,1,-0.007904859259724617,1,-0.186651349067688,1,0.193767249584198,1
1771622135740980736,0.03872685506939888,1,0.002172490814700723,1,0.07273590564727783,1,-0.1464432924985886,1,-0.86445552110672,1,-0.1957471370697021,1
1771622135750660608,0.009773294441401958,1,-0.001639948226511478,1,0.08691484481096268,1,-0.2054888308048248,1,-0.2943514287471771,1,-0.1580116748809814,1
1771622135760245760,-0.01600530184805393,1,0.008625853806734085,1,0.06542564928531647,1,0.2026203125715256,1,-0.318679541349411,1,0.07315126061439514,1
1771622135769735424,0.006822010967880487,1,-0.0006491764797829092,1,0.05529263243079185,1,0.06198111921548843,1,-0.2206857651472092,1,-0.1407829523086548,1
1771622135779131648,0.01874983869493008,1,0.003398672211915255,1,0.00517998868599534,1,0.03925635293126106,1,-0.8287583589553833,1,0.1704953461885452,1
1771622135789009920,-0.004769173450767994,1,-0.006326242350041866,1,0.004218109883368015,1,0.0594685971736908,1,-0.2383431196212769,1,0.006311435718089342,1
1771622135799648000,-0.02490525878965855,1,-0.0003324946155771613,1,0.03467226400971413,1,-0.02658022195100784,1,-0.08966933935880661,1,-0.04760676249861717,1
1771622135810182144,-0.08376914262771606,1,0.00314537319354713,1,0.1040600761771202,1,0.06050135567784309,1,-0.06910655647516251,1,-0.143869161605835,1
1771622135820611840,-0.03588764742016792,1,0.008822614327073097,1,0.1976370811462402,1,0.02723513916134834,1,0.4836759567260742,1,0.07730749994516373,1
1771622135830939904,-0.04605214670300484,1,0.01009862683713436,1,0.1635540872812271,1,0.4767059683799744,1,0.28358194231987,1,0.7303420901298523,1
1771622135841167360,0.001442166976630688,1,-0.00144823850132525,1,0.1705176681280136,1,0.3808325529098511,1,-0.2487135678529739,1,-0.1258251070976257,1
1771622135851294720,0.01085357926785946,1,-0.01088237855583429,1,0.09984558820724487,1,0.3940909802913666,1,-0.5837483406066895,1,0.2305419743061066,1
1771622135861321472,0.01386293675750494,1,-0.007524279411882162,1,0.1030236631631851,1,-0.1700178682804108,1,-1.009384870529175,1,0.1835137605667114,1
1771622135871249920,-0.01066387630999088,1,0.0005567220505326986,1,0.04527547582983971,1,-0.4283884763717651,1,-0.8725726008415222,1,-0.07848066836595535,1
1771622135881079296,0.00635856855660677,1,-0.008628013543784618,1,0.06551644951105118,1,-0.6197675466537476,1,-0.2590336799621582,1,0.2618288397789001,1
1771622135890812416,-0.00226231780834496,1,0.003556999377906322,1,0.1116098538041115,1,-0.4193677604198456,1,-0.3707932531833649,1,0.1056956127285957,1
1771622135900449792,0.02507743425667286,1,-0.01200995128601789,1,0.1376891881227493,1,-0.3707695007324219,1,-0.8922545313835144,1,-0.3196108341217041,1
1771622135909992192,0.01504710130393505,1,-0.00712274108082056,1,0.1614004969596863,1,-0.2483001500368118,1,-0.8453475832939148,1,0.1092177033424377,1
1771622135919441152,0.00687864888459444,1,0.004933356773108244,1,0.1473472267389297,1,-0.0738813653588295,1,-0.7701799869537354,1,-0.09641674160957336,1
1771622135928796160,0.01579072885215282,1,-0.003425189992412925,1,0.1668063998222351,1,0.009927722625434399,1,-1.149402141571045,1,0.1450964063405991,1
1771622135939217152,-0.01025451719760895,1,0.003335775109007955,1,0.1170839220285416,1,0.2031592428684235,1,-1.029008507728577,1,0.1482600122690201,1
1771622135949823488,-0.004291336983442307,1,0.003357245353981853,1,0.07956711202859879,1,0.06444447487592697,1,-1.472244501113892,1,-0.01594343222677708,1
1771622135960326144,0.007528096437454224,1,-9.485954069532454e-05,1,0.008150181733071804,1,0.2097518295049667,1,-0.661454439163208,1,0.1228649765253067,1
1771622135970726144,0.0009811554336920381,1,-0.00614851713180542,1,-0.0258258730173111,1,-0.09007679671049118,1,-0.5562908053398132,1,0.2887095808982849,1
1771622135981022464,0.004006725270301104,1,-0.002679633209481835,1,-0.09853444993495941,1,-0.04090005159378052,1,-0.7130233645439148,1,0.07826860994100571,1
1771622135991218176,-0.004095337353646755,1,0.001790677313692868,1,-0.1457476764917374,1,-0.1624111533164978,1,-0.531516969203949,1,0.01927281357347965,1
1771622136001316352,0.006012584548443556,1,0.001304578385315835,1,-0.1200370565056801,1,-0.1026818454265594,1,-0.2892720997333527,1,0.1342641562223434,1
1771622136011313920,-0.01871082000434399,1,0.0006137815653346479,1,-0.08312454074621201,1,-0.1801424026489258,1,-0.3159565925598145,1,0.2250012010335922,1
1771622136021212416,0.004035547841340303,1,0.001153313205577433,1,-0.08092939853668213,1,-0.1867218166589737,1,-1.001698017120361,1,-0.02276895195245743,1
1771622136031014656,0.009710120037198067,1,-0.0002813578757923096,1,-0.09049636125564575,1,0.03452666476368904,1,-0.2687324583530426,1,0.1519842892885208,1
1771622136040719360,-0.006236530374735594,1,0.0003346726589370519,1,-0.1167713478207588,1,0.1291357278823853,1,-0.1421972364187241,1,0.2023611664772034,1
1771622136050329344,-0.001388158067129552,1,-0.0001047231125994585,1,-0.1555490642786026,1,0.05288724973797798,1,0.008655020967125893,1,0.04438907653093338,1
1771622136059844096,0.001215594238601625,1,0.0009709118166938424,1,-0.1633888632059097,1,-0.06145738065242767,1,0.3919373750686646,1,-0.005846972577273846,1
1771622136069264384,-0.003066754434257746,1,0.001468811999075115,1,-0.1670444011688232,1,0.001367484452202916,1,0.3457588851451874,1,0.0193299725651741,1
1771622136078734336,0.001481914427131414,1,-0.0008049930329434574,1,-0.1587027609348297,1,-0.06337252259254456,1,0.894624650478363,1,-0.01367193832993507,1
1771622136089388544,-0.01954448595643044,1,0.0001917737972689793,1,-0.06472557783126831,1,-0.2687977254390717,1,0.6046028733253479,1,0.2757874429225922,1
1771622136099938560,-0.003962572198361158,1,0.002585352165624499,1,0.0115618696436286,1,-0.2486801445484161,1,1.141101956367493,1,0.002660298720002174,1
1771622136110384128,-0.006881010252982378,1,0.001370026730000973,1,0.072774738073349,1,-0.2185765504837036,1,-0.07904326170682907,1,-0.1535763591527939,1
1771622136120729344,-0.01731846854090691,1,0.002530690981075168,1,0.04103721305727959,1,0.1948315501213074,1,0.02742707170546055,1,-0.3073847889900208,1
1771622136130971904,-0.007819745689630508,1,0.002719982992857695,1,-0.009940143674612045,1,0.2246705293655396,1,0.07970909774303436,1,0.1050445064902306,1
1771622136141114112,-0.004718665033578873,1,0.002304959576576948,1,-0.02024832367897034,1,0.08889635652303696,1,0.1394559741020203,1,0.02884664200246334,1
1771622136151156480,0.002167425118386745,1,0.001390908495523036,1,0.02516802772879601,1,0.2734937965869904,1,-0.5363165140151978,1,0.1770077794790268,1
1771622136161100032,-0.0004298537387512624,1,-0.00233492162078619,1,-0.01093367300927639,1,0.3298974633216858,1,-0.9077665209770203,1,0.02797307819128036,1
1771622136170944768,-0.0002707946114242077,1,0.0004204002616461366,1,-0.08313773572444916,1,0.1958125084638596,1,-0.4799433052539825,1,0.06819575279951096,1
1771622136180693760,-0.003437838051468134,1,0.001847867853939533,1,-0.08450798690319061,1,-0.1904268115758896,1,-0.8756260871887207,1,0.04034098610281944,1
1771622136190345472,-0.001414816593751311,1,0.0003719881060533226,1,-0.1027879267930984,1,-0.1352880001068115,1,-0.561767041683197,1,0.06710110604763031,1
1771622136199901696,-0.001786237000487745,1,-0.001403886824846268,1,-0.1450898200273514,1,-0.02027058787643909,1,-0.4334563910961151,1,0.02985978499054909,1
1771622136209364992,0.0002933641953859478,1,0.000884109758771956,1,-0.1903225183486938,1,-0.07421015948057175,1,-0.253960907459259,1,-0.0004762545577250421,1
1771622136218734080,-0.006864885333925486,1,0.0005792914889752865,1,-0.1887937635183334,1,-0.08689256757497787,1,-0.06350171566009521,1,0.03500039875507355,1
1771622136229021952,0.00399513216689229,1,-0.001341357128694654,1,-0.1751152276992798,1,-0.1192576140165329,1,-0.2983028292655945,1,-0.008547734469175339,1
1771622136239640832,0.00639952952042222,1,-0.0003285017737653106,1,-0.1776496767997742,1,-0.06190379709005356,1,-0.197052389383316,1,0.06369411200284958,1
1771622136250156800,-0.003258467419072986,1,0.0004499114875216037,1,-0.1572415679693222,1,0.01527616661041975,1,-0.1592772752046585,1,0.006786070298403502,1
1771622136260569856,0.0002435368078295141,1,0.001569594955071807,1,-0.1453261524438858,1,-0.0893118754029274,1,-0.4317005276679993,1,-0.007204386871308088,1
1771622136270880768,-0.006923453416675329,1,0.001436996273696423,1,-0.109982430934906,1,-0.08557260036468506,1,-0.2478451728820801,1,0.0302553828805685,1
1771622136281093376,-0.006313268560916185,1,-2.527428841858637e-05,1,-0.0808231309056282,1,-0.07974398136138916,1,-0.1347525119781494,1,0.06179450079798698,1
1771622136291205376,-0.003243857296183705,1,0.0007188578601926565,1,-0.04991469904780388,1,-0.06938567012548447,1,-0.1581884175539017,1,0.03777541220188141,1
1771622136301220096,-0.003597664413973689,1,0.001611151499673724,1,-0.02823540568351746,1,-0.04029687494039536,1,-0.07440271228551865,1,0.04802288115024567,1
1771622136311137536,-0.0001773383701220155,1,0.0003043913457076997,1,-0.01071123871952295,1,-0.04965796321630478,1,-0.09091326594352722,1,0.03876261785626411,1
1771622136320957696,0.0006519323796965182,1,-0.001244713319465518,1,-0.001162165775895119,1,0.004750474821776152,1,0.007461613044142723,1,0.03679647296667099,1
1771622136330682368,0.001233208226040006,1,-0.0004997159703634679,1,0.0006704794941470027,1,0.002564966445788741,1,0.009157705120742321,1,0.03983462974429131,1
1771622136340312832,0.0004866688686888665,1,3.50231712218374e-05,1,2.643218977027573e-05,1,-0.007194070145487785,1,0.00209185853600502,1,0.04684928059577942,1
1771622136349848832,0.0006544896750710905,1,0.000110408385808114,1,-8.781722863204777e-05,1,0.007986568845808506,1,-0.0003173179284203798,1,0.03565860912203789,1
1771622136359290624,-0.001086721080355346,1,-0.0001516369375167415,1,0.001066239667125046,1,-0.002292991848662496,1,0.009865051135420799,1,0.03059087507426739,1
1771622136368783360,-0.000360413221642375,1,-0.0002851199242286384,1,0.00114392617251724,1,-0.009633185341954231,1,0.006809209007769823,1,0.04324346780776978,1
1771622136379457280,0.001264119287952781,1,-0.001073655672371387,1,0.0007529055001214147,1,-0.008645888417959213,1,0.006838991306722164,1,0.04526802152395248,1
1771622136390025728,0.0008252846309915185,1,0.0009831119095906615,1,-0.0006333077326416969,1,-0.01256041135638952,1,0.01711654104292393,1,0.04707953706383705,1
1771622136400491264,0.002034971490502357,1,0.0009842190193012357,1,0.0003649767895694822,1,-0.005107209552079439,1,0.01001101732254028,1,0.0425933375954628,1
1771622136410853632,0.003100158413872123,1,0.0002397603821009398,1,-0.0006770496256649494,1,-0.007505028508603573,1,0.01316082291305065,1,0.0311970766633749,1
1771622136421114112,0.002568809082731605,1,-0.00149228482041508,1,6.704017869196832e-05,1,0.00240031466819346,1,0.00394105352461338,1,0.04225078225135803,1
1771622136431274752,0.001468161703087389,1,-0.0005944529548287392,1,-0.0005841399542987347,1,-0.001721418695524335,1,0.01401545945554972,1,0.04016012698411942,1
1771622136441335040,0.0001892029104055837,1,0.000151543048559688,1,0.0007226953748613596,1,-0.003279272466897964,1,0.001875356421805918,1,0.03658055514097214,1
1771622136451296000,0.002025281079113483,1,0.0002655613934621215,1,0.0003276964125689119,1,0.01150747202336788,1,-0.003561371238902211,1,0.05215147882699966,1
1771622136461159168,-4.049822746310383e-05,1,0.0004928090493194759,1,0.001408839016221464,1,0.004836023785173893,1,0.002164403442293406,1,0.03987325727939606,1
1771622136470924800,-0.0002299559564562514,1,-0.0006911423406563699,1,-0.0006200359202921391,1,0.002725771395489573,1,0.01129903923720121,1,0.03118851780891418,1
1771622136480595456,-0.001436661928892136,1,-0.001501998980529606,1,0.0001625733857508749,1,0.00605429895222187,1,0.008583005517721176,1,0.0338018536567688,1
1771622136490169856,-0.000718694063834846,1,0.0006447748164646327,1,0.0004882105567958206,1,-0.009426357224583626,1,0.01504866499453783,1,0.04410751909017563,1
1771622136499648768,-0.0008720042533241212,1,0.0006438838317990303,1,0.0002600763400550932,1,0.006623259745538235,1,0.01740785501897335,1,0.03561478853225708,1
1771622136509035776,-0.0006009783828631043,1,0.001027096644975245,1,6.751235923729837e-05,1,-0.002638952108100057,1,0.01079799048602581,1,0.04827840998768806,1
1771622136519048448,-0.003202276770025492,1,0.000389466411434114,1,-0.0005697046872228384,1,0.00512522691860795,1,0.001742145512253046,1,0.0461730845272541,1
1771622136529678848,-0.0001471795985708013,1,0.0006013404345139861,1,0.0001434948499081656,1,0.005054712295532227,1,0.002191836014389992,1,0.04433968290686607,1
1771622136540205312,-0.001439752639271319,1,-0.0007651795167475939,1,-0.0002975763927679509,1,0.002626215107738972,1,-0.0009706200798973441,1,0.03357107564806938,1
1771622136550630144,7.724775787210092e-05,1,0.0008687651716172695,1,-0.0003496792342048138,1,0.009000759571790695,1,0.01131351012736559,1,0.0553850494325161,1
1771622136560952064,0.0008680602186359465,1,-0.0003604914236348122,1,0.0005312064313329756,1,-0.008035596460103989,1,0.0164039209485054,1,0.0269552506506443,1
1771622136571174144,0.001497253309935331,1,0.0005593380774371326,1,-0.0002436388313071802,1,0.0007728413911536336,1,0.01459829043596983,1,0.05065189301967621,1
1771622136581293824,0.003315618960186839,1,-0.0008225989295169711,1,-0.001206255285069346,1,0.0174141526222229,1,0.07091221958398819,1,0.03753243759274483,1
1771622136591314944,-0.0007801916799508035,1,-0.0004788674414157867,1,-0.08970661461353302,1,-0.2922979593276978,1,0.7780154347419739,1,0.01523174345493317,1
1771622136601236736,-0.009633263573050499,1,0.001214595511555672,1,0.05878539755940437,1,0.1981023699045181,1,0.2524260878562927,1,0.07444743067026138,1
1771622136611065856,-0.006681556813418865,1,0.001929159625433385,1,-0.02268066443502903,1,0.1559492498636246,1,-0.2592578828334808,1,0.01829312369227409,1
1771622136620799488,0.001215491909533739,1,-0.001038548769429326,1,-0.04755939170718193,1,-0.009176744148135185,1,-0.2914879024028778,1,0.03970388695597649,1
1771622136630438144,0.0007708952762186527,1,0.001978867454454303,1,-0.05987373739480972,1,-0.07051011919975281,1,-0.09595267474651337,1,0.05745071917772293,1
1771622136639981824,0.001944641815498471,1,-0.000651471724268049,1,-0.07466753572225571,1,0.02647356875240803,1,-0.2301012873649597,1,0.02485662885010242,1
1771622136649432064,-0.0002610342926345766,1,0.001390577061101794,1,-0.04178904369473457,1,-0.08519358187913895,1,-0.2063263058662415,1,0.01604806073009968,1
1771622136658788352,-0.000485189026221633,1,-0.0002018028026213869,1,-0.01850461028516293,1,-0.07107111066579819,1,-0.1445911824703217,1,0.06028268858790398,1
1771622136669345536,-0.001868695137090981,1,1.015472662402317e-05,1,-0.001328310230746865,1,0.001877029193565249,1,0.0007938348571769893,1,0.03565819934010506,1
1771622136679941376,-0.002851420780643821,1,-0.0004233924846630543,1,0.0004325728223193437,1,-0.009465556591749191,1,0.01423521339893341,1,0.04347094893455505,1
1771622136690433792,-0.001677400781773031,1,0.0003391561040189117,1,0.0002230550599051639,1,0.001629539998248219,1,0.004802080802619457,1,0.04972432553768158,1
1771622136700824064,-0.002353257033973932,1,0.001190685550682247,1,-0.000314052653266117,1,0.006731380708515644,1,0.007604732643812895,1,0.05298543721437454,1
1771622136711110144,-0.0005745899397879839,1,0.0008240574970841408,1,7.148103031795472e-05,1,0.004183722659945488,1,0.009478133171796799,1,0.04702165722846985,1
1771622136721295104,-0.0009276558994315565,1,-0.0004457810136955231,1,-3.731968536158092e-05,1,-0.001778701436705887,1,0.01779193617403507,1,0.04939821362495422,1
1771622136731384064,-0.001403236412443221,1,0.0006905221380293369,1,-0.0002642653416842222,1,0.0121647659689188,1,0.006323256064206362,1,0.03013565205037594,1
1771622136741371904,-0.004765468183904886,1,-0.0006851187790744007,1,-0.001045601908117533,1,-6.560087786056101e-05,1,-0.00836049672216177,1,0.03502053767442703,1
1771622136751261696,-0.01359747629612684,1,0.001291405293159187,1,-0.001200243597850204,1,0.004558282904326916,1,0.01616987586021423,1,0.05989589169621468,1
1771622136761054208,-0.003633643267676234,1,-0.001101584639400244,1,0.001823571044951677,1,0.0007269532070495188,1,-0.002388674532994628,1,0.02965252101421356,1
1771622136770749184,-0.005048888735473156,1,-0.0007771175005473197,1,0.0002523335861042142,1,-0.005628751590847969,1,0.02187067456543446,1,0.06532192975282669,1
1771622136780349440,0.0005864262348040938,1,0.001213091774843633,1,-0.0001933702733367682,1,-0.0003319123352412134,1,0.009972476400434971,1,0.03924271464347839,1
1771622136789854976,-0.0002309147967025638,1,0.001178335980512202,1,0.000491708517074585,1,-0.002794383093714714,1,-0.003066268749535084,1,0.04133001714944839,1
1771622136799266048,0.004448173101991415,1,-0.0001587201695656404,1,0.0003192290896549821,1,0.006588675081729889,1,0.01498847361654043,1,0.06077409163117409,1
1771622136808871936,0.006689662113785744,1,-0.0004562079557217658,1,-0.000447137514129281,1,-0.0105706537142396,1,0.0006081030005589128,1,0.02731223776936531,1
1771622136819522048,0.008558638393878937,1,0.000570152304135263,1,0.0006433951202780008,1,0.001214524847455323,1,0.009030703455209732,1,0.04912492632865906,1
1771622136830067456,0.001443048473447561,1,0.0007973964093253016,1,-1.644253302401921e-06,1,-7.050325802993029e-05,1,0.01348595507442951,1,0.0368320569396019,1
1771622136840509440,0.001727296505123377,1,-0.0008359653293155134,1,-0.001081953756511211,1,8.942601562011987e-05,1,0.007044808939099312,1,0.01941422373056412,1
1771622136850851328,7.019932672847062e-05,1,-0.0001375314895994961,1,0.0009584224899299443,1,-0.002148244297131896,1,0.006507331039756536,1,0.04044818878173828,1
1771622136861088768,-0.0002525082381907851,1,-3.152926728944294e-05,1,0.0005068575264886022,1,-0.00635139225050807,1,0.002927086548879743,1,0.0329873226583004,1
1771622136871226624,0.001617249799892306,1,-0.0002452446497045457,1,0.0007135721389204264,1,0.002406337531283498,1,0.01616558991372585,1,0.04910627380013466,1
1771622136881264640,0.003687141463160515,1,0.0002213481056969613,1,-0.0002911898773163557,1,0.002997284987941384,1,0.01223406568169594,1,0.03349171578884125,1
1771622136891203072,0.004083454608917236,1,-0.0007295678951777518,1,-9.202095679938793e-05,1,0.007169285323470831,1,0.01615901477634907,1,0.03079606778919697,1
1771622136901044224,0.002992613008245826,1,-0.0008914326317608356,1,-0.0004781251773238182,1,-0.001791905844584107,1,-0.002623885869979858,1,0.02755002118647099,1
1771622136910793472,0.002064640400931239,1,-0.001623933902010322,1,-0.00127195380628109,1,0.009063747711479664,1,0.01220556814223528,1,0.03322216123342514,1
1771622136920448000,0.0007375413551926613,1,-0.0009946390055119991,1,-0.0001496612094342709,1,-0.004547107499092817,1,0.01481914613395929,1,0.04615265130996704,1
1771622136930006528,0.00232061417773366,1,-0.0002389476139796898,1,-0.0002007092989515513,1,-0.004213445354253054,1,0.005987973883748055,1,0.04523118585348129,1
1771622136939472384,0.000856472528539598,1,-0.0001948446151800454,1,-0.001413493184372783,1,0.0009793102508410811,1,0.002951087662950158,1,0.03895745798945427,1
1771622136948844032,0.001032150816172361,1,-0.00156704755499959,1,-0.0005367600242607296,1,-0.005217296071350574,1,0.01232983637601137,1,0.03232909366488457,1
1771622136959130112,-0.0009760395623743534,1,-0.0003935723216272891,1,8.92207317519933e-05,1,-0.002312950789928436,1,-0.01018895208835602,1,0.02728400938212872,1
1771622136969743872,-0.00130369293037802,1,-1.551187210679927e-06,1,-0.0004102135717403144,1,0.001237526652403176,1,0.0136040486395359,1,0.04222553968429565,1
1771622136980253952,-0.003702485468238592,1,0.0002064329746644944,1,0.0002480600087437779,1,-0.007731224875897169,1,0.0116036357358098,1,0.03595462068915367,1
1771622136990661632,-0.0005012723850086331,1,-0.0009986016666516662,1,0.0001982823305297643,1,0.003112014383077621,1,0.007912607863545418,1,0.05420884490013123,1
1771622137000965632,0.0001955418265424669,1,-8.005071140360087e-05,1,-0.0002318962651770562,1,-0.008496513590216637,1,0.004474139306694269,1,0.05186617374420166,1
1771622137011167488,0.001986425137147307,1,-0.0005242483457550406,1,-0.0007021435885690153,1,-0.0007734406390227377,1,0.01507027726620436,1,0.04375595226883888,1
1771622137021272576,0.00192827417049557,1,0.0004899245104752481,1,-0.0005876935902051628,1,0.004338342230767012,1,0.01585572212934494,1,0.04582640528678894,1
1771622137031277312,0.0007572125759907067,1,0.00022705047740601,1,0.0005324407829903066,1,0.001851115259341896,1,0.01474130898714066,1,0.03857767209410667,1
1771622137041185280,0.0001881283242255449,1,0.002204465679824352,1,-0.0004637518140953034,1,-0.005161385517567396,1,0.008533594198524952,1,0.0530993640422821,1
1771622137050994176,-0.001369881443679333,1,-4.445527156349272e-05,1,0.0003122960042674094,1,0.001828612992540002,1,0.007009737193584442,1,0.04738911241292953,1
1771622137060705792,-0.0002885466965381056,1,-4.828714281757129e-06,1,0.0005791820003651083,1,0.003366412362083793,1,0.0100005529820919,1,0.04397730529308319,1
1771622137070323200,0.0006550974794663489,1,0.001728268805891275,1,-0.0003122959460597485,1,-0.005881849676370621,1,-0.002712615765631199,1,0.04650397226214409,1
1771622137079844608,-0.0002597852435428649,1,1.047920250130119e-05,1,0.0006568109965883195,1,0.001160790561698377,1,0.00475197471678257,1,0.03980917111039162,1
1771622137089273856,-0.001694679143838584,1,0.0002331934811081737,1,-3.382024806342088e-05,1,0.005267980508506298,1,-0.004610894713550806,1,0.04013898223638535,1
1771622137098752512,-0.001592742744833231,1,0.0004499389906413853,1,-3.046445999643765e-05,1,0.003205726156011224,1,0.01497651729732752,1,0.04011476784944534,1
1771622137109423104,0.0007163276895880699,1,0.001373112667351961,1,0.0002622772299218923,1,0.00465206615626812,1,0.002979260636493564,1,0.03652417659759521,1
1771622137119987456,0.0004220325208734721,1,0.0007755783153697848,1,-0.001143058063462377,1,-7.494735473301262e-05,1,0.007797020953148603,1,0.04551622644066811,1
1771622137130449408,-0.0008399325888603926,1,-0.0009961321484297514,1,-0.0002251988626085222,1,-0.003687953110784292,1,0.02287933602929115,1,0.03980956971645355,1
1771622137140808704,0.001441909582354128,1,-0.001755862380377948,1,-0.0006910247611813247,1,-0.005296682938933372,1,-0.005446195602416992,1,0.02550682052969933,1
1771622137151066624,0.001492363517172635,1,-0.001140275853686035,1,0.0005641272873617709,1,0.005055923014879227,1,0.01143886428326368,1,0.05180329456925392,1
1771622137161222144,0.0008798573981039226,1,-0.0005127631593495607,1,0.0005745817325077951,1,-0.007602723315358162,1,0.008709743618965149,1,0.03656730055809021,1
1771622137171278592,-0.0006310786702670157,1,-0.001767194247804582,1,0.0003858013660646975,1,-0.001248914981260896,1,0.001915870816446841,1,0.03807234019041061,1
1771622137181235712,0.001414733123965561,1,-0.0001614039647392929,1,-0.0006977749872021377,1,-0.001856420421972871,1,0.006406413391232491,1,0.04342829436063766,1
1771622137191095808,0.001250131404958665,1,-0.0007377248839475214,1,-0.0006565527874045074,1,0.002334154443815351,1,0.002204188378527761,1,0.0392291359603405,1
1771622137200860160,-0.0007115433108992875,1,0.0006002989830449224,1,3.605434540077113e-05,1,0.002003377769142389,1,0.0009874359238892794,1,0.04221746698021889,1
1771622137210527232,0.0007289408822543919,1,0.0005008328007534146,1,4.731438457383774e-05,1,0.00884125754237175,1,0.006711538415402174,1,0.04369575157761574,1
1771622137220105984,-0.0009491695091128349,1,-0.0005725447554141283,1,-0.0008336887112818658,1,0.002535211155191064,1,0.01134576462209225,1,0.03711330518126488,1
1771622137229594112,0.0002394386101514101,1,-1.431168038834585e-05,1,0.001223758328706026,1,-0.01109775900840759,1,0.01878695376217365,1,0.04942253232002258,1
1771622137238989824,-0.00265937764197588,1,0.0002233113336842507,1,0.0004778028815053403,1,0.005622651427984238,1,0.01302984543144703,1,0.04130152612924576,1
1771622137249005056,-0.003994522150605917,1,0.001747165224514902,1,0.0002083031577058136,1,0.0006302430992946029,1,0.02367890812456608,1,0.05182528868317604,1
1771622137259631104,-0.001988336443901062,1,-0.0002202810137532651,1,0.0009365188307128847,1,-0.001012363121844828,1,-0.004148379433900118,1,0.03002381324768066,1
1771622137270153216,-0.004831312224268913,1,0.0006130484398454428,1,0.0002144276513718069,1,-0.008022614754736423,1,-0.03689001500606537,1,0.004533656407147646,1
1771622137280571904,-0.009934235364198685,1,-0.0001606431324034929,1,0.0003112221020273864,1,0.0007352560060098767,1,0.0489657074213028,1,0.07725352048873901,1
1771622137290888704,-0.005343675147742033,1,-0.0007165474235080183,1,0.000457489921245724,1,-0.006845456082373857,1,-0.00533435819670558,1,0.03146003186702728,1
1771622137301103104,-0.002631773473694921,1,-0.001762015861459076,1,0.001124408561736345,1,-0.001748638809658587,1,0.03921571746468544,1,0.06558629870414734,1
1771622137311216896,0.002523971255868673,1,-0.0006910236552357674,1,0.0008748315158300102,1,-0.003989380784332752,1,0.005535259377211332,1,0.03355441242456436,1
1771622137321230336,0.003544791601598263,1,0.001602786011062562,1,0.001404336653649807,1,0.003552276408299804,1,0.01277147140353918,1,0.05298618227243423,1
1771622137331144704,0.004648788366466761,1,-0.000380935933208093,1,0.0009385771700181067,1,-0.002747166436165571,1,0.0008431554888375103,1,0.04702901095151901,1
1771622137340962304,0.002137593924999237,1,-0.0009427190525457263,1,0.0006422093720175326,1,0.005640049465000629,1,0.01218407694250345,1,0.04338635131716728,1
1771622137350682368,0.002556344727054238,1,-2.121686702594161e-05,1,-0.001731818192638457,1,0.008080587722361088,1,0.006120357196778059,1,0.04514267668128014,1
1771622137360324096,0.0005848110886290669,1,-0.00116020068526268,1,-0.0009590059635229409,1,0.001109588774852455,1,-0.008047907613217831,1,0.0227171964943409,1
1771622137369875456,-0.000114029215183109,1,0.0001055961038218811,1,2.351676630496513e-05,1,-0.004110599867999554,1,0.02722080424427986,1,0.05570916831493378,1
1771622137379332864,-0.0001935678301379085,1,0.0007340137381106615,1,0.0006491889362223446,1,-0.006902811117470264,1,0.007233014330267906,1,0.03264951705932617,1
1771622137388698368,0.0008019261294975877,1,0.001218865043483675,1,0.0007996262866072357,1,-0.0006356069352477789,1,0.01090061105787754,1,0.04254012927412987,1
1771622137399390464,0.002643851563334465,1,-0.0006227595149539411,1,-0.0005118938279338181,1,-0.01133471820503473,1,0.02437429875135422,1,0.05693210661411285,1
1771622137409976832,0.002344494452700019,1,-0.0004573719052132219,1,0.0001357580185867846,1,0.004217823501676321,1,0.002180801704525948,1,0.05124074593186378,1
1771622137420460032,0.006394446361809969,1,-0.0008460821118205786,1,0.000740723276976496,1,-0.001973582431674004,1,0.03855729103088379,1,0.06528889387845993,1
1771622137430840832,0.0007074992754496634,1,0.000363335624570027,1,0.0006434019305743277,1,0.006640021689236164,1,0.01837652735412121,1,0.04667253047227859,1
1771622137441119232,-0.0002390494337305427,1,-0.0009083308978006244,1,7.510877912864089e-05,1,0.002380635589361191,1,0.002635087352246046,1,0.03382384777069092,1
1771622137451295744,-0.001792594557628036,1,0.002129271626472473,1,-4.422055042141437e-07,1,0.02351858466863632,1,0.07438170164823532,1,0.08127463608980179,1
1771622137461372160,-0.0007285267347469926,1,0.0002695907314773649,1,0.0005333013250492513,1,0.05188319459557533,1,-0.04421046003699303,1,0.1914528161287308,1
1771622137471348736,0.0005857131327502429,1,-0.001511888578534126,1,0.0003398473490960896,1,-0.05039733648300171,1,0.0827576071023941,1,0.005774375982582569,1
1771622137481226752,-0.0008351647411473095,1,0.0006831437349319458,1,0.0009491508244536817,1,0.004786290228366852,1,-0.007995354011654854,1,0.05449748784303665,1
1771622137491009536,0.001366055686958134,1,0.0001951080776052549,1,0.000304497720208019,1,0.004323442000895739,1,0.05628202483057976,1,0.08443187177181244,1
1771622137500698624,0.0006605948437936604,1,0.0009902258170768619,1,0.0009107533260248601,1,0.0001804986532079056,1,-0.02282974682748318,1,0.03204334154725075,1
1771622137510290944,-0.000165417994139716,1,0.001410135882906616,1,0.0001125746057368815,1,-0.03009157255291939,1,0.03098367340862751,1,0.06570742279291153,1
1771622137519789824,0.0002217575965914875,1,-0.001142573077231646,1,0.0001911511062644422,1,0.0009326903964392841,1,0.01768836565315723,1,0.05927519127726555,1
1771622137529194752,0.0006584651418961585,1,0.001295670284889638,1,0.0006454024696722627,1,0.05260644853115082,1,-0.003187790280207992,1,0.1133787035942078,1
1771622137538935552,0.00363501557148993,1,-8.017968502826989e-05,1,-0.000287381699308753,1,-0.04089184105396271,1,0.001062714494764805,1,-0.01995567046105862,1
1771622137549576960,0.002226731274276972,1,-0.0008457612129859626,1,-0.0001297255366807804,1,0.01391150057315826,1,0.01640575565397739,1,0.06190548837184906,1
1771622137560114944,0.002682979917153716,1,-0.001658277935348451,1,-1.724412868497893e-05,1,0.007552873808890581,1,0.03001257963478565,1,0.03857727721333504,1
1771622137570550016,0.001138840452767909,1,0.0007170659373514354,1,-0.0006181551143527031,1,0.01207868009805679,1,0.007613293826580048,1,0.05685988441109657,1
1771622137580882176,-3.102741538896225e-05,1,-0.002065296517685056,1,0.0006225139368325472,1,0.004915120545774698,1,0.02107180468738079,1,0.04370735213160515,1
1771622137591112960,-0.001311103347688913,1,0.000927998626139015,1,0.0002280235203215852,1,0.009096410125494003,1,-0.01386305503547192,1,0.04729748889803886,1
1771622137601242880,-0.002079640282317996,1,-0.0006199969793669879,1,-3.682565147755668e-05,1,-0.01457726210355759,1,0.02752954140305519,1,0.03626057505607605,1
1771622137611271936,-0.001158469822257757,1,0.001293019275180995,1,-0.0001547527353977785,1,-0.0002116986725013703,1,0.0162977259606123,1,0.03561163693666458,1
1771622137621202432,-0.001498450990766287,1,0.0003406991017982364,1,-0.0003391692880541086,1,0.01639812439680099,1,0.04578892886638641,1,0.07180000841617584,1
1771622137631040768,-0.0003562466590665281,1,0.001139940810389817,1,-0.001300926320254803,1,-0.01271567959338427,1,-0.00712781585752964,1,0.03450645506381989,1
1771622137640785920,0.0001012555221677758,1,-0.001716589438728988,1,0.001152733340859413,1,-0.004298475570976734,1,-0.002161389915272593,1,0.03505434095859528,1
1771622137650435840,0.0003466546186245978,1,-0.000419963093008846,1,0.0001915997272590175,1,-9.964868513634428e-05,1,0.01190323196351528,1,0.04610099643468857,1
1771622137659990528,0.001806151587516069,1,8.276580774690956e-05,1,6.747118459315971e-05,1,-0.008219904266297817,1,0.002060104394331574,1,0.0422823429107666,1
1771622137669452544,4.204993092571385e-05,1,-0.0007213942590169609,1,0.0007652966305613518,1,-0.01192484144121408,1,0.01039762794971466,1,0.03302349522709846,1
1771622137678820864,0.002912755822762847,1,0.0002721085329540074,1,0.0001790468959370628,1,-0.000405659549869597,1,0.01746501214802265,1,0.04100891575217247,1
1771622137689247232,0.001104907016269863,1,0.001231770613230765,1,0.0008006988791748881,1,0.004402097314596176,1,0.005117540713399649,1,0.05691197142004967,1
1771622137699857664,0.002183166332542896,1,-0.001348477439023554,1,0.0002217211440438405,1,-0.001537316478788853,1,-0.02016634121537209,1,0.0168000478297472,1
1771622137710364672,0.0007918142364360392,1,0.001601857016794384,1,0.0001919468777487054,1,-0.00612486619502306,1,0.03134418651461601,1,0.04822505265474319,1
1771622137720767744,0.002042996929958463,1,-0.0004193958593532443,1,0.0004430761327967048,1,-0.008849282748997211,1,0.01769536174833775,1,0.04017618298530579,1
1771622137731067136,0.001205195090733469,1,-0.001573050976730883,1,-0.0004373601695988327,1,-0.001880396739579737,1,0.03287786617875099,1,0.03439303115010262,1
1771622137741267456,0.0009693219908513129,1,0.0003432001976761967,1,0.001052624080330133,1,0.005938130430877209,1,0.01392655726522207,1,0.04766666889190674,1
1771622137751367680,0.0005698438035324216,1,0.0007266885368153453,1,-0.001308323466219008,1,-0.01300622615963221,1,0.00196564756333828,1,0.03630006313323975,1
1771622137761367552,-5.749142655986361e-05,1,-0.0001915347529575229,1,0.000380108569515869,1,-0.001160321990028024,1,0.0449199303984642,1,0.06740286201238632,1
1771622137771270400,0.0012849485501647,1,-0.0001523948740214109,1,0.00106402556411922,1,0.003252706490457058,1,0.0142766609787941,1,0.05064355209469795,1
1771622137781074688,-0.001807113527320325,1,0.0009043831960298121,1,0.0004312363162171096,1,0.01007617637515068,1,0.01777313649654388,1,0.05029715970158577,1
1771622137790781440,-0.0007707730401307344,1,-0.00222285813651979,1,0.0002043379790848121,1,-0.003367997240275145,1,0.007001487538218498,1,0.03807935118675232,1
1771622137800394240,0.001645741402171552,1,-0.0004756740818265826,1,-0.0006171058630570769,1,-0.004877631552517414,1,0.02255507558584213,1,0.03983857110142708,1
1771622137809911296,0.0006885703187435865,1,-0.001875077607110143,1,0.0004960733931511641,1,0.002301065484061837,1,0.009042217396199703,1,0.0449230819940567,1
1771622137819334912,-0.0008094136137515306,1,0.001061135088093579,1,0.0009891727240756154,1,-0.009557555429637432,1,0.02556692063808441,1,0.04046791791915894,1
1771622137828808448,0.001091555575840175,1,0.0008167570340447128,1,0.001117978012189269,1,-0.01310957595705986,1,-0.002632424235343933,1,0.0372023805975914,1
1771622137839467776,0.00239343848079443,1,0.0001593133347341791,1,0.0002133020752808079,1,0.001822533435188234,1,0.005612495355308056,1,0.04195471107959747,1
1771622137850023168,0.004386682529002428,1,-0.001004090998321772,1,8.619970321888104e-05,1,-0.008264634758234024,1,-0.0290571004152298,1,0.01894974336028099,1
1771622137860474112,0.005556974560022354,1,-0.001721074571833014,1,-3.234031100873835e-05,1,-0.02125594764947891,1,-0.06913634389638901,1,0.01752433553338051,1
1771622137870822656,0.003040040144696832,1,-0.000193710089661181,1,-0.0003604014927987009,1,0.003548501757904887,1,0.005245188251137733,1,0.03864099457859993,1
1771622137881070336,0.00498295621946454,1,-0.002036035060882568,1,0.0007782888133078814,1,-0.007016514893621206,1,0.006267663091421127,1,0.04740258678793907,1
1771622137891217408,0.006129877176135778,1,-0.002732604509219527,1,-0.0003243644314352423,1,-0.008420734666287899,1,0.02698870189487934,1,0.03601750358939171,1
1771622137901265408,0.002333195647224784,1,-0.0012213378213346,1,0.0001409259712090716,1,0.01263058558106422,1,0.02265294641256332,1,0.04309670627117157,1
1771622137911212800,0.00777423894032836,1,-0.003328666090965271,1,-0.001139552914537489,1,0.03577644005417824,1,0.09047015756368637,1,0.02041018195450306,1
1771622137921063424,0.006934022065252066,1,-0.003810032038018107,1,-0.0003394676896277815,1,-0.06930192559957504,1,-0.1140328794717789,1,0.04252176731824875,1
1771622137930816256,0.009624982252717018,1,-0.004660353064537048,1,0.0008014304330572486,1,0.02562319673597813,1,0.05793771520256996,1,0.03370897471904755,1
1771622137940472832,0.001561630750074983,1,-0.0005064544384367764,1,0.0004468068946152925,1,-0.07672529667615891,1,-0.1748107671737671,1,0.08370213955640793,1
1771622137950034944,-0.03301001340150833,1,0.01239780429750681,1,-0.000180385060957633,1,0.1768013387918472,1,0.3654122054576874,1,-0.0183869507163763,1
1771622137959502080,-0.01391685754060745,1,0.004582443740218878,1,0.0002432473847875372,1,-0.04616990312933922,1,-0.1534783989191055,1,-0.001676247222349048,1
1771622137968874752,0.01863517984747887,1,-0.002859114436432719,1,0.002557214582338929,1,-0.02342391386628151,1,-0.2549476325511932,1,-0.08080296963453293,1
1771622137979021824,-0.1840596795082092,1,0.005985734984278679,1,0.004839193075895309,1,-0.03876993432641029,1,-0.369432270526886,1,-0.2318944931030273,1
1771622137989644288,-0.1265558004379272,1,0.00325465016067028,1,0.01681068725883961,1,0.02573600225150585,1,0.1247921362519264,1,0.09798645228147507,1
1771622138000162048,-0.07129406929016113,1,0.002230498939752579,1,0.02404040098190308,1,0.008925522677600384,1,0.1295197308063507,1,0.1031441763043404,1
1771622138010575104,0.007263537496328354,1,-0.001128749921917915,1,0.05495713278651237,1,-0.09982249885797501,1,0.1241633594036102,1,0.3319839239120483,1
1771622138020889088,0.108962781727314,1,-0.00234058708883822,1,0.06277664005756378,1,0.03000632300972939,1,0.2746318578720093,1,0.1891948878765106,1
1771622138031100928,0.1483532041311264,1,-0.004696652758866549,1,0.0479210652410984,1,0.04223722964525223,1,0.06059572845697403,1,0.02493249252438545,1
1771622138041212416,0.1165181323885918,1,-0.005465957801789045,1,0.01511864643543959,1,0.07495658099651337,1,-0.2694705724716187,1,-0.3107335865497589,1
