Time,inertial-6286.188861:estLinearAccelX,inertial-6286.188861:estLinearAccelX:valid,inertial-6286.188861:estLinearAccelY,inertial-6286.188861:estLinearAccelY:valid,inertial-6286.188861:estLinearAccelZ,inertial-6286.188861:estLinearAccelZ:valid,inertial-6286.188861:estAngularRateX,inertial-6286.188861:estAngularRateX:valid,inertial-6286.188861:estAngularRateY,inertial-6286.188861:estAngularRateY:valid,inertial-6286.188861:estAngularRateZ,inertial-6286.188861:estAngularRateZ:valid
1772488680841101568,0.0008249048260040581,1,0.0001027322723530233,1,0.04324158653616905,1,-8.700756006874144e-05,1,0.0001628503378015012,1,5.536785465665162e-07,1
1772488680850665216,0.001236594980582595,1,-0.0002995031827595085,1,0.04350059479475021,1,-0.0001141588145401329,1,-3.735698555829003e-05,1,-3.029983054148033e-05,1
1772488680860133376,-0.0001298103743465617,1,-0.001536775263957679,1,0.04035445302724838,1,-4.372355033410713e-05,1,-0.0003118878521490842,1,0.0001152584154624492,1
1772488680869509632,0.001215255237184465,1,-0.001273317844606936,1,0.04201387241482735,1,2.902273990912363e-05,1,3.256973286624998e-05,1,6.813303480157629e-05,1
1772488680878948096,0.001534221810288727,1,-0.0009734818595461547,1,0.0473095141351223,1,-0.0001788379158824682,1,0.0003065031778533012,1,-8.417428762186319e-05,1
1772488680889681664,0.003230963833630085,1,-0.001039189635775983,1,0.04799348115921021,1,4.248983896104619e-05,1,4.465320307645015e-05,1,0.0001882489304989576,1
1772488680900311040,0.003819080302491784,1,-0.0007153279148042202,1,0.04533344507217407,1,-0.0004273515660315752,1,2.283684443682432e-05,1,0.0002888090966735035,1
1772488680910839296,0.001025756704621017,1,-0.0008342484943568707,1,0.03834116831421852,1,-0.000437394657637924,1,6.917555583640933e-05,1,0.0002622583706397563,1
1772488680921265920,-0.001418074709363282,1,0.0001427499228157103,1,0.03309416398406029,1,-0.0002379985089646652,1,4.847819946007803e-05,1,0.0001217903773067519,1
1772488680931590400,-0.0007848757086321712,1,-0.0002320274361409247,1,0.0341779999434948,1,6.957730511203408e-05,1,0.0005042952252551913,1,0.0001716970873530954,1
1772488680941814272,-0.00447064358741045,1,-0.001209438778460026,1,0.04141973331570625,1,-0.0002092702488880605,1,0.0006275690975598991,1,4.957784767611884e-05,1
1772488680951939328,-0.004994124639779329,1,-0.004014265257865191,1,0.04526746273040771,1,-9.781934204511344e-05,1,0.0002244828210677952,1,0.0001394728751620278,1
1772488680961965568,-0.00152156047988683,1,-0.0003415943938307464,1,0.04449064284563065,1,-0.0001121001187129878,1,0.0001984576229006052,1,-0.0001699280110187829,1
1772488680971898368,0.00141440168954432,1,-0.0005747098475694656,1,0.04458297416567802,1,-0.0001525496918475255,1,0.0004068475100211799,1,-0.0002640972379595041,1
1772488680981739776,0.0005004556151106954,1,0.000854641490150243,1,0.0426751896739006,1,0.0002488647878635675,1,0.0001857076276792213,1,-0.000154046923853457,1
1772488680991485696,-6.480058073066175e-05,1,-1.424842048436403e-05,1,0.0440838448703289,1,0.00024995076819323,1,-0.000321388099109754,1,-0.0002019479579757899,1
1772488681001135360,-0.002730832435190678,1,0.001334241824224591,1,0.04378847777843475,1,0.0002809142752084881,1,-0.0001450806594220921,1,-0.0001198297322844155,1
1772488681010691584,-0.002083380240947008,1,-0.0003820949350483716,1,0.0429433174431324,1,0.0002663259219843894,1,-0.0001143359331763349,1,-0.0001659725967328995,1
1772488681020154368,-0.002115037525072694,1,-0.001468636794015765,1,0.04317107796669006,1,0.0004097952623851597,1,-0.0001250565110240132,1,-0.0002606244233902544,1
1772488681029524736,-0.0007709595374763012,1,0.0005334083689376712,1,0.0430346354842186,1,0.0001545753621030599,1,3.476252459222451e-06,1,-0.0001735595433274284,1
1772488681039261696,0.00110061198938638,1,0.0004525383119471371,1,0.043934166431427,1,-0.000160854440764524,1,-3.041633681277744e-05,1,7.337009446928278e-05,1
1772488681049961472,0.003024913603439927,1,0.002476985566318035,1,0.04424288496375084,1,0.0001235789968632162,1,-6.950020178919658e-05,1,1.705245449556969e-05,1
1772488681060557056,0.001816215459257364,1,0.001026577549055219,1,0.04131612554192543,1,0.000128586296341382,1,-0.0001700180146144703,1,0.0002282721543451771,1
1772488681071049984,0.0001040911811287515,1,0.0003114733844995499,1,0.04191452637314796,1,0.0001175227880594321,1,1.117196370614693e-05,1,0.0001340094459010288,1
1772488681081438464,-0.00247262348420918,1,3.704811388161033e-05,1,0.04434003680944443,1,0.0001386035582982004,1,2.082217179122381e-05,1,5.384653195505962e-05,1
1772488681091726848,-0.002930877031758428,1,-0.001033418462611735,1,0.04474799707531929,1,0.0004811963881365955,1,0.0003279035445302725,1,0.0001520139194326475,1
1772488681101913088,-0.002881243359297514,1,-0.003492143237963319,1,0.04523538053035736,1,0.0003878446004819125,1,-3.227705747121945e-05,1,-6.422773731173947e-05,1
1772488681111997184,-0.003510360606014729,1,-0.002488593570888042,1,0.04386484250426292,1,-4.085721593583003e-05,1,7.018052201601677e-06,1,-0.0001704027672531083,1
1772488681121983744,-0.005084425676614046,1,-0.002498756861314178,1,0.03346468135714531,1,9.510427480563521e-05,1,-0.0001512426824774593,1,-0.0001523151877336204,1
1772488681131872768,0.01490871235728264,1,-0.005665987264364958,1,0.05754220485687256,1,-0.0002531774807721376,1,-0.0001084596151486039,1,-0.0001916476467158645,1
1772488681141663488,0.009261352010071278,1,0.005667319055646658,1,0.0411251112818718,1,-7.463214569725096e-05,1,-9.307419531978667e-05,1,-7.274300151038915e-05,1
1772488681151356416,-0.01272658351808786,1,-0.002047971356660128,1,0.02775426767766476,1,0.0004024140071123838,1,-0.0003083407355006784,1,-0.0001843389181885868,1
1772488681160955904,-0.00497241597622633,1,-0.01150529831647873,1,0.04990671575069427,1,0.0001607738086022437,1,-0.0001667870092205703,1,-0.0003844447201117873,1
1772488681170459392,0.004820560105144978,1,0.001500786980614066,1,0.06116343289613724,1,5.591348235611804e-05,1,-7.648894825251773e-05,1,-7.719312270637602e-05,1
1772488681179878400,-0.0007869104738347232,1,0.006785436999052763,1,0.03485274687409401,1,9.250728908227757e-05,1,2.467113517923281e-06,1,0.0001771041133906692,1
1772488681189207296,0.002743341028690338,1,-0.006313694640994072,1,0.03725140914320946,1,-3.881629527313635e-05,1,-0.0001039905546349473,1,0.0001475397730246186,1
1772488681199365376,0.007627273909747601,1,-0.000958416610956192,1,0.04600144922733307,1,-0.0001387977390550077,1,-0.0002842512622009963,1,1.239040193468099e-05,1
1772488681210034688,0.007929170504212379,1,0.005192022304981947,1,0.04061225429177284,1,0.0006664631655439734,1,-9.796989616006613e-05,1,0.0002683633356355131,1
1772488681220599808,0.003869945183396339,1,0.003714767284691334,1,0.03380115330219269,1,0.0004766095953527838,1,-0.0001352174003841355,1,0.0002128556661773473,1
1772488681231061760,-0.002070852788165212,1,-0.004321583081036806,1,0.0448121465742588,1,0.0002693302521947771,1,0.0001395528961438686,1,0.0002816555788740516,1
1772488681241419520,-0.004757591523230076,1,-0.0004586409777402878,1,0.04625449702143669,1,-0.0001885019883047789,1,0.0003055108245462179,1,8.517937385477126e-05,1
1772488681251675904,-0.00439399154856801,1,0.003034351393580437,1,0.04746533185243607,1,-0.0002887481532525271,1,4.563655238598585e-05,1,-0.0001004361110972241,1
1772488681261831424,-0.005134018138051033,1,-0.004755282308906317,1,0.04301729053258896,1,-0.0001932406739797443,1,-0.0001194312353618443,1,-0.0001081747104763053,1
1772488681271885312,-0.002810067962855101,1,-0.003336356719955802,1,0.04621222615242004,1,-0.0004651783965528011,1,6.273114195209928e-06,1,-9.578525350661948e-05,1
1772488681281841664,0.002148397732526064,1,0.004393124952912331,1,0.04809233173727989,1,-0.0001206896849907935,1,-1.191470073536038e-05,1,-0.0001048579724738374,1
1772488681291698944,-0.008477494120597839,1,-0.04091630876064301,1,-0.045108862221241,1,0.001360707683488727,1,-0.001411287114024162,1,0.007354856934398413,1
1772488681301459712,0.0536111444234848,1,0.1372851133346558,1,0.1115212738513947,1,-0.001805500825867057,1,-0.0001671055797487497,1,0.007430673111230135,1
1772488681311137024,0.01943064108490944,1,-0.03890499472618103,1,0.02108642086386681,1,-0.0001331838575424626,1,6.440328434109688e-05,1,0.003869249252602458,1
1772488681320717824,0.01534106489270926,1,0.0422811396420002,1,0.1461230963468552,1,-0.001423744019120932,1,0.0001248303160537034,1,0.002036354038864374,1
1772488681330203904,-0.02404597401618958,1,0.02246811240911484,1,0.01272537838667631,1,-0.001312361331656575,1,-0.0001444947556592524,1,0.001132387318648398,1
1772488681339597824,-0.004659639205783606,1,-0.003922749310731888,1,0.03983788564801216,1,-0.0005760109634138644,1,-0.0001099855071515776,1,0.0005731327692046762,1
1772488681348898048,-0.002356976270675659,1,-0.004313348792493343,1,0.03073476627469063,1,-0.0005425236886367202,1,-0.0003837035037577152,1,0.0005460381507873535,1
1772488681359501824,0.025999890640378,1,0.01960469782352448,1,0.08355467021465302,1,0.0006883676978759468,1,-0.0004854275321122259,1,0.0004862895584665239,1
1772488681370156032,-0.0005071511259302497,1,0.03298788145184517,1,0.03670444339513779,1,-0.0005621360032819211,1,-0.0004305446054786444,1,0.000176413101144135,1
1772488681380707584,0.006281589157879353,1,-0.00492288451641798,1,0.01456628553569317,1,-0.0004491748404689133,1,-0.0001981952227652073,1,7.403701602015644e-05,1
1772488681391155712,0.01258904673159122,1,0.003589299041777849,1,0.08158166706562042,1,-0.0001093783066608012,1,-5.523572326637805e-06,1,7.314118556678295e-05,1
1772488681401500416,-0.00798334926366806,1,0.006361952051520348,1,0.02649448066949844,1,0.0006997996242716908,1,-0.000433201203122735,1,0.0001351013779640198,1
1772488681411741952,-0.004984397441148758,1,-0.01469414029270411,1,0.01940301619470119,1,0.0005999710992909968,1,-8.065308793447912e-05,1,0.0001536463241791353,1
1772488681421884160,-0.00872856006026268,1,-0.002812041901051998,1,0.03351122513413429,1,3.970968100475147e-05,1,0.0001542943646200001,1,6.236438639461994e-05,1
1772488681431926016,-0.001900602597743273,1,0.004120476543903351,1,0.04313411191105843,1,0.0003480379236862063,1,-1.027170947054401e-05,1,6.124285573605448e-05,1
1772488681441869568,-0.003967046737670898,1,0.01556244492530823,1,0.03712997585535049,1,0.0003778309910558164,1,-4.592348705045879e-05,1,1.504887768533081e-05,1
1772488681451714560,-0.0058179278858006,1,0.01084363553673029,1,0.0514243021607399,1,-4.907464608550072e-05,1,-0.0001202173007186502,1,-5.051189145888202e-05,1
1772488681461463552,0.009465469978749752,1,0.02993999049067497,1,0.09076126664876938,1,0.0004593341727741063,1,-0.0001909826532937586,1,-0.000121440549264662,1
1772488681471115264,0.004516653716564178,1,0.01446003466844559,1,0.03406884521245956,1,-1.357882865704596e-05,1,-0.0001617899833945557,1,-2.374533505644649e-05,1
1772488681480671232,-0.001949421013705432,1,0.002559760818257928,1,0.04253134876489639,1,0.0003926566569134593,1,-3.667049895739183e-05,1,0.000115201561129652,1
1772488681490134528,-0.005094621330499649,1,0.01257010735571384,1,0.04735942929983139,1,-0.0002649042289704084,1,8.268499368568882e-05,1,0.0001030460189213045,1
1772488681499503616,-0.004056757781654596,1,0.00131073035299778,1,0.04195719584822655,1,0.0001909216516651213,1,-1.511483060312457e-05,1,0.0001027878097374924,1
1772488681508937216,-0.003918845672160387,1,-0.002299640793353319,1,0.03946591168642044,1,0.000335086282575503,1,-7.965910481289029e-05,1,0.000292139477096498,1
1772488681519670784,-0.001552075147628784,1,-0.001263408572413027,1,0.03463887795805931,1,9.967540972866118e-05,1,-5.574383249040693e-05,1,-3.814924275502563e-05,1
1772488681530297856,-0.004125406965613365,1,-0.001527397893369198,1,0.04060498252511024,1,0.0001273960515391082,1,-6.080310413381085e-05,1,-0.0001272599620278925,1
1772488681540820992,0.004592923447489738,1,-0.01037992350757122,1,0.05708913505077362,1,0.0001008104882203043,1,-3.656413173303008e-05,1,-8.98340658750385e-05,1
1772488681551240192,0.0007875255541875958,1,-0.006579303648322821,1,0.05219965055584908,1,-4.823129711439833e-05,1,-0.0002942284336313605,1,-4.724355676444247e-06,1
1772488681561556992,-0.001097978092730045,1,0.005730264820158482,1,0.04671020805835724,1,-0.0004887511022388935,1,-0.0006322167464531958,1,-0.0001908160193124786,1
1772488681571772928,0.003382052760571241,1,0.003641780931502581,1,0.04317134618759155,1,-5.720765329897404e-06,1,-0.0006456214468926191,1,-0.0001281354780076072,1
1772488681581888768,-0.0006008256459608674,1,-0.004705517087131739,1,0.03530461341142654,1,0.0001287822669837624,1,-0.0004768112266901881,1,-0.0001284534228034317,1
1772488681591904000,-0.0025353345554322,1,0.003406606614589691,1,0.03703129664063454,1,-1.855939626693726e-05,1,-0.0004146914870943874,1,6.647399277426302e-05,1
1772488681601822208,-0.003356088418513536,1,-4.242407158017159e-05,1,0.03853535652160645,1,9.29683301365003e-05,1,-0.000248713738983497,1,8.272954437416047e-05,1
1772488681611641344,0.00327277765609324,1,-0.0004439210460986942,1,0.04355993121862411,1,7.413610728690401e-05,1,4.279151107766666e-05,1,0.0002268029929837212,1
1772488681621363968,0.001239453675225377,1,0.002388457302004099,1,0.03886336833238602,1,0.0002256909501738846,1,-5.237935693003237e-05,1,3.703438414959237e-05,1
1772488681630991616,0.006091195158660412,1,0.007109310477972031,1,0.05354699119925499,1,0.0001192568306578323,1,1.264264574274421e-05,1,7.113689207471907e-05,1
1772488681640523264,0.002682963386178017,1,0.000989692285656929,1,0.03755578771233559,1,0.0005565133760683239,1,-7.419141911668703e-05,1,4.255403109709732e-05,1
1772488681649959936,0.003664647694677114,1,-0.0007360831368714571,1,0.0516488179564476,1,0.0003313934430480003,1,-1.625320146558806e-05,1,0.0002706266532186419,1
1772488681659303936,-0.000333550909999758,1,5.684327334165573e-06,1,0.04172594100236893,1,-6.472237873822451e-05,1,-0.0001901952346088365,1,0.0001448610273655504,1
1772488681669021184,0.0005295567098073661,1,-0.003670238656923175,1,0.04176585376262665,1,-7.469803676940501e-05,1,-0.0001085524709196761,1,1.764863191056065e-05,1
1772488681679723520,0.001552995876409113,1,-0.000295259291306138,1,0.04539661854505539,1,0.0001841320918174461,1,-0.0003204601525794715,1,-8.28391857794486e-05,1
1772488681690320128,0.0018884118180722,1,0.001125927665270865,1,0.04042443633079529,1,0.000205045726033859,1,-0.0002134918322553858,1,5.342621079762466e-05,1
1772488681700813824,-0.0002572741941548884,1,0.0006805639131926,1,0.04139210283756256,1,0.0004297808918636292,1,1.296441769227386e-05,1,-9.937686263583601e-05,1
1772488681711204864,-0.001489403774030507,1,9.768770541995764e-05,1,0.04669203981757164,1,0.0005276682786643505,1,0.0001691108045633882,1,-0.0001427373936166987,1
1772488681721493504,0.001719642896205187,1,0.0006174964946694672,1,0.04276552051305771,1,0.0005536149838007987,1,0.0003072087129112333,1,0.0001344924967270344,1
1772488681731682304,0.001487808884121478,1,0.002198307309299707,1,0.04453706741333008,1,0.0005080311675556004,1,0.0003530779795255512,1,0.0002671286638360471,1
1772488681741768704,-0.001923015108332038,1,0.002016208367422223,1,0.04635219275951385,1,0.000166288751643151,1,0.0002300705236848444,1,0.0002721388882491738,1
1772488681751754496,0.0003572124114725739,1,-0.0008247292716987431,1,0.04826107248663902,1,0.0003934594278689474,1,0.0001228467881446704,1,0.0001524077670183033,1
1772488681761643520,0.001202329993247986,1,0.001888017053715885,1,0.04516125842928886,1,0.0005089650512672961,1,-0.0002402891404926777,1,0.0001535535702714697,1
1772488681771433984,0.001664996379986405,1,0.001972103491425514,1,0.0410275049507618,1,0.0002415560884401202,1,0.0001780204765964299,1,0.0001593524648342282,1
1772488681781129472,0.003033324843272567,1,0.001160388113930821,1,0.04471349343657494,1,0.0007012468995526433,1,-2.470800973242149e-05,1,0.0001006823949865066,1
1772488681790733568,-0.0004716069670394063,1,0.00187701964750886,1,0.04865413531661034,1,0.0003326521546114236,1,-3.551741974661127e-05,1,0.0001800182944862172,1
1772488681800242944,-0.002209942787885666,1,-0.0006259895744733512,1,0.04880575835704803,1,0.0001021478965412825,1,0.0003193124430254102,1,0.000106572697404772,1
1772488681809659392,-0.003019537311047316,1,-0.00121516059152782,1,0.0446803905069828,1,-7.103790994733572e-05,1,0.0002907407179009169,1,2.617197606014088e-05,1
1772488681818981888,-0.001537868869490921,1,0.0008726661326363683,1,0.0419708639383316,1,-0.0001876724709291011,1,0.0003461570595391095,1,0.0001662862778175622,1
1772488681829137152,0.002965116873383522,1,0.0009719104273244739,1,0.0398714654147625,1,-0.0001929605641635135,1,0.0003035726258531213,1,1.969737786566839e-05,1
1772488681839807744,-7.169030141085386e-06,1,0.006375795230269432,1,0.0260505173355341,1,0.0002683054190129042,1,0.0001576700160512701,1,0.0001614552456885576,1
1772488681850372864,0.007698472589254379,1,-0.01133328583091497,1,0.06157487258315086,1,0.0002102739817928523,1,9.171952842734754e-05,1,-0.0001337276771664619,1
1772488681860834560,0.01747256889939308,1,0.002722944831475616,1,0.04982752725481987,1,-9.38001976464875e-05,1,-3.54939402313903e-05,1,-8.400937804253772e-05,1
1772488681871193088,-0.006892961915582418,1,0.01212992053478956,1,0.03077825903892517,1,0.0004854956932831556,1,-0.0002196587156504393,1,0.0001825376530177891,1
1772488681881451008,-0.001231260364875197,1,-0.009469496086239815,1,0.03834816813468933,1,0.0002305048110429198,1,-7.582175021525472e-05,1,4.105410334886983e-05,1
1772488681891606528,0.01121641881763935,1,-0.00594312185421586,1,0.06795284152030945,1,-0.0005811743903905153,1,0.0001129367665271275,1,7.411553815472871e-05,1
1772488681901660672,-0.001417342689819634,1,0.01155799627304077,1,0.04622284695506096,1,-0.0005349934217520058,1,-0.0002521702263038605,1,9.988237252400722e-06,1
1772488681911617024,-0.00592994736507535,1,-0.005571348592638969,1,0.0372718907892704,1,-8.645701745990664e-05,1,-0.0001282291923416778,1,-5.187496208236553e-05,1
1772488681921479424,0.003428992349654436,1,-0.005279559642076492,1,0.05167341977357864,1,-0.000717976363375783,1,-0.000142362347105518,1,0.0001629328326089308,1
1772488681931243520,-0.0007028218824416399,1,0.002204282442107797,1,0.04338559880852699,1,-0.0002355607866775244,1,-0.0003125392249785364,1,-8.250799146480858e-05,1
1772488681940912384,0.001384791452437639,1,0.002637466415762901,1,0.03348183631896973,1,7.29438615962863e-05,1,0.0001421440101694316,1,0.0002852080506272614,1
1772488681950485504,0.006521041505038738,1,-0.0086489487439394,1,0.05187265574932098,1,1.524939580122009e-05,1,-3.109015233349055e-05,1,0.0001897934707812965,1
1772488681959963392,-0.00220808619633317,1,0.0006615687161684036,1,0.04714272543787956,1,-0.0003509497619234025,1,1.049224738380872e-05,1,0.0002536261454224586,1
1772488681969348608,-0.003487423062324524,1,0.001950954087078571,1,0.03938982635736465,1,-9.355027577839792e-05,1,3.64975567208603e-05,1,6.082899562898092e-05,1
1772488681978641152,-0.004128472879528999,1,-0.006600849330425262,1,0.03669813275337219,1,-1.365022762911394e-05,1,-0.0001996039354708046,1,8.017366781132296e-06,1
1772488681989400832,-0.007891157642006874,1,-0.006650511641055346,1,0.036533422768116,1,-0.0002490076294634491,1,-1.199590769829229e-06,1,-1.640491973375902e-05,1
1772488682000055552,-0.005136524792760611,1,0.0002246190269943327,1,0.03925663977861404,1,-0.0003455238766036928,1,8.535995584679767e-05,1,-0.0001059229398379102,1
1772488682010604544,0.001542731304652989,1,-0.001611636485904455,1,0.04249727353453636,1,-5.160024738870561e-05,1,0.000384991493774578,1,0.000158733717398718,1
1772488682021051136,0.0009341363329440355,1,-0.0007204979192465544,1,0.04188236594200134,1,-0.0001074841929948889,1,0.0004849837569054216,1,0.0003143127250950783,1
1772488682031393792,0.004502699710428715,1,0.003060533199459314,1,0.0409131646156311,1,-0.0001554755435790867,1,0.0002473965578246862,1,0.0002276829181937501,1
1772488682041636352,-0.0004361585015431046,1,0.002284278394654393,1,0.03869369626045227,1,-0.0004009199037682265,1,0.0004716363910119981,1,-8.032548794290051e-05,1
1772488682051779072,-0.001919227885082364,1,-0.003263248829171062,1,0.04234674945473671,1,-0.0004033360164612532,1,-4.385520514915697e-05,1,-8.450885070487857e-05,1
1772488682061821184,0.0007302864687517285,1,0.003133537946268916,1,0.03953181207180023,1,-0.0005265538347885013,1,0.0001351984974462539,1,9.693265019450337e-05,1
1772488682071763968,-0.005440935026854277,1,0.003307381644845009,1,0.0402192734181881,1,-0.0007099200156517327,1,-3.940564056392759e-06,1,2.604207838885486e-05,1
1772488682081609472,-0.001824370236136019,1,-0.001637237961404026,1,0.04589154571294785,1,-0.0003966482763644308,1,-0.0002096100361086428,1,-0.0001883865334093571,1
1772488682091357184,0.0006924385670572519,1,-0.002572596073150635,1,0.04306651279330254,1,-0.0002049696340691298,1,-0.0001480378123233095,1,-2.177519127144478e-05,1
1772488682101009664,-0.00148845708463341,1,0.0004041561915073544,1,0.03924240544438362,1,0.0001633414649404585,1,5.512211282621138e-05,1,8.602489833720028e-05,1
1772488682110566656,6.209895946085453e-05,1,-0.004176076501607895,1,0.0447440929710865,1,-0.000101910947705619,1,0.0002348546840948984,1,-5.6657605455257e-05,1
1772488682120028416,0.0007967989076860249,1,-0.001162336557172239,1,0.05334621667861938,1,-8.800636351224966e-06,1,-0.0001820882025640458,1,-0.0001787857472663745,1
1772488682129396224,-0.003212322248145938,1,0.002250292338430882,1,0.04441171884536743,1,-9.508291987003759e-05,1,-0.0003087086661253124,1,-3.915126580977812e-05,1
1772488682138828800,-0.00171814055647701,1,-0.003228587098419666,1,0.0426609180867672,1,-0.0001002151984721422,1,-0.0001996135542867705,1,-0.0001080495276255533,1
1772488682149562624,0.002848357893526554,1,-0.0006520160241052508,1,0.04503577947616577,1,2.67602317762794e-05,1,-0.0003203869273420423,1,-0.0001564766571391374,1
1772488682160190720,-1.212969073094428e-05,1,0.0007211707998067141,1,0.04375514015555382,1,-0.0001099000728572719,1,-0.0004646752786356956,1,-7.565594569314271e-05,1
1772488682170713088,0.002242011018097401,1,-0.001668392913416028,1,0.0487004891037941,1,5.333341687219217e-05,1,-0.0004379211459308863,1,-0.0003180061466991901,1
1772488682181133824,0.00175000901799649,1,-0.0009882031008601189,1,0.04974250122904778,1,-0.0001388143864460289,1,-0.0002591315133031458,1,-7.547088898718357e-05,1
1772488682191453184,-0.00143472827039659,1,-0.0003803927102126181,1,0.0490313246846199,1,-0.0001681221765466034,1,-0.0001209673791890964,1,-0.000218720335396938,1
1772488682201670912,-0.0008138687117025256,1,-0.002846273360773921,1,0.04376883804798126,1,-0.0001067172997863963,1,-0.0001398474269080907,1,0.0001528598950244486,1
1772488682211788032,0.0003497900615911931,1,-0.002599411411210895,1,0.04469157010316849,1,-0.0003451138327363878,1,6.506760109914467e-05,1,8.079956023721024e-05,1
1772488682221804544,-0.0005931744817644358,1,0.0002927097084466368,1,0.04085923731327057,1,-0.0001531138550490141,1,-0.0001047582845785655,1,-1.999478263314813e-05,1
1772488682231721216,0.001937020337209105,1,0.0009458246640861034,1,0.04324936866760254,1,-0.0001041613359120674,1,-3.11940057144966e-05,1,0.0001681365101831034,1
1772488682241541888,0.0008039668900892138,1,0.002151855267584324,1,0.04802895709872246,1,6.116325675975531e-05,1,-0.0002236789732705802,1,0.0002163737663067877,1
1772488682251264512,0.0007082576048560441,1,7.525042747147381e-05,1,0.04372378811240196,1,4.797903238795698e-05,1,-8.135531970765442e-05,1,-1.258100564882625e-05,1
1772488682260891904,0.000367602362530306,1,-0.002457884605973959,1,0.03936147317290306,1,-0.000132519329781644,1,-0.0004115417250432074,1,-0.0001354163105133921,1
1772488682270424576,0.0008171320660039783,1,-0.002669076900929213,1,0.04176875948905945,1,-0.0001706737966742367,1,-0.0003985283256042749,1,-6.459459837060422e-05,1
1772488682279862272,0.0004520377260632813,1,-0.00273384409956634,1,0.04784045740962029,1,-0.0001664953015279025,1,-0.0002604477049317211,1,9.136104927165434e-05,1
1772488682289206016,0.0007937257760204375,1,-0.002277578227221966,1,0.04670780897140503,1,-0.0004611649201251566,1,-0.0002811657323036343,1,2.673583912837785e-05,1
1772488682298922240,-0.0007947676931507885,1,-0.001420981250703335,1,0.04786578565835953,1,-0.000747696147300303,1,-0.000342957820976153,1,0.0001317787246080115,1
1772488682309620224,-0.002033496042713523,1,-0.000577408354729414,1,0.04464865103363991,1,-0.0004296059778425843,1,-0.0002187351929023862,1,9.293983021052554e-05,1
1772488682320214016,0.0006017234409227967,1,-0.002316411817446351,1,0.0414627268910408,1,-0.0007054816232994199,1,-3.651882798294537e-05,1,-5.654287087963894e-05,1
1772488682330707200,0.002146755810827017,1,-0.00167029385920614,1,0.03645479306578636,1,-0.0003082772600464523,1,-0.0001137718427344225,1,0.000121841236250475,1
1772488682341098240,0.0008844880503602326,1,-0.002018747851252556,1,0.0365271270275116,1,-6.630056304857135e-06,1,-0.0002066743036266416,1,0.0002614306868053973,1
1772488682351387136,0.001059033442288637,1,0.0001651609054533765,1,0.0392720140516758,1,-0.0002749425766523927,1,0.0002432141336612403,1,0.0002645324566401541,1
1772488682361576192,-0.0009665795369073749,1,0.0001829958928283304,1,0.04317544028162956,1,-8.955888915807009e-05,1,-0.0001358471345156431,1,-6.308934825938195e-05,1
1772488682371665920,-0.001613783533684909,1,-0.0005048534367233515,1,0.04538575932383537,1,0.0003291003522463143,1,-0.0001569839514559135,1,-0.0001198034879053012,1
1772488682381656832,-0.0008615613332949579,1,-0.0006088121444918215,1,0.04541893675923347,1,0.000215712541830726,1,9.549795504426584e-05,1,-0.0002430141612421721,1
1772488682391550720,-0.001270870096050203,1,-0.001365844160318375,1,0.04585064575076103,1,6.070142262615263e-06,1,-1.031599822454154e-05,1,-0.0002539173292461783,1
1772488682401347840,0.001254225498996675,1,-0.002598525257781148,1,0.04746488481760025,1,-0.0001533546164864674,1,-0.0002298518229508772,1,-0.0002230127574875951,1
1772488682411058176,0.003512341063469648,1,-0.001654130755923688,1,0.04731756821274757,1,-9.807783499127254e-05,1,-0.0001684293674770743,1,-1.564483318361454e-05,1
1772488682420678144,0.002350196707993746,1,-0.001040367409586906,1,0.04213964566588402,1,4.041507781948894e-05,1,-9.5064769993769e-06,1,-1.963040631380863e-05,1
1772488682430203904,-0.0003768041788134724,1,-0.001211258582770824,1,0.04261337593197823,1,-2.837053216353524e-05,1,7.157062646001577e-05,1,0.000104572725831531,1
1772488682439637504,0.0004965895786881447,1,0.000697107519954443,1,0.04007767885923386,1,-4.127324427827261e-05,1,-0.0001756613492034376,1,0.0002205480996053666,1
1772488682448978432,-0.001173733733594418,1,0.001076163956895471,1,0.04228567332029343,1,-0.0001762641477398574,1,-0.0001718848070595413,1,-5.81409149162937e-05,1
1772488682459293696,-0.00136459106579423,1,0.00170444801915437,1,0.04132883995771408,1,-0.0001546923449495807,1,1.822307967813686e-05,1,4.482746589928865e-05,1
1772488682469960192,-0.00338076613843441,1,-0.01183716766536236,1,0.04859120398759842,1,-0.0001785463828127831,1,-0.0001378026936436072,1,0.0002347890840610489,1
1772488682480523520,-0.002824311377480626,1,0.02313540317118168,1,0.02438459545373917,1,-0.001242331927642226,1,-0.0001765841152518988,1,0.0001019695919239894,1
1772488682490981376,-0.003581864293664694,1,-0.01339685916900635,1,0.02013552375137806,1,-0.001706011011265218,1,3.018301140400581e-05,1,0.0001291294029215351,1
1772488682501335296,0.000523924536537379,1,-0.003238219767808914,1,0.01564043574035168,1,-0.001881158561445773,1,0.0003175273886881769,1,0.0001670454075792804,1
1772488682511588608,0.004606249276548624,1,-0.004782082512974739,1,0.05942850187420845,1,-0.0007612660410813987,1,0.000228476244956255,1,7.120626833057031e-06,1
1772488682521741568,0.003596709109842777,1,0.001543129095807672,1,0.04139621183276176,1,-0.000836424354929477,1,0.0001444910740246996,1,9.328524902230129e-05,1
1772488682531797248,-0.001241332618519664,1,0.007562409620732069,1,0.03866984322667122,1,9.444175520911813e-05,1,7.849321991670877e-05,1,0.0001193307325593196,1
1772488682541752320,-0.002288720803335309,1,0.005854866467416286,1,0.03467731922864914,1,0.0009979854803532362,1,-0.0001962184614967555,1,9.498089639237151e-05,1
1772488682551610880,0.0002293644938617945,1,-0.003614593297243118,1,0.03587108850479126,1,0.001982236048206687,1,-0.0003745575377251953,1,8.644524496048689e-05,1
1772488682561371392,-0.0002400794182904065,1,-0.0008845566189847887,1,0.04605851322412491,1,0.001470782328397036,1,-0.0004209420294500887,1,0.0002046603767666966,1
1772488682571037184,-0.000397757044993341,1,-0.002489899517968297,1,0.04139802604913712,1,0.001063419273123145,1,-0.0005287041421979666,1,0.0001237821124959737,1
1772488682580607488,0.003825315274298191,1,-0.001296292524784803,1,0.0383414588868618,1,0.0005362961092032492,1,-2.920690894825384e-05,1,-5.406651325756684e-05,1
1772488682590084352,0.0004646998422686011,1,0.001607244601473212,1,0.04120076820254326,1,0.0008142277365550399,1,-0.0001300033327424899,1,-0.0001810626417864114,1
1772488682599467264,0.003325070254504681,1,-0.001417187391780317,1,0.04245620220899582,1,0.0006085692439228296,1,7.312066736631095e-05,1,4.293615347705781e-06,1
1772488682608757248,0.0001163998967967927,1,-0.0007741824956610799,1,0.04003764316439629,1,0.0002836095518432558,1,-0.0001437839091522619,1,1.646504460950382e-05,1
1772488682619514880,-0.001336253131739795,1,0.003361336886882782,1,0.03671767562627792,1,0.0003322565462440252,1,-4.790672755916603e-05,1,-4.497483314480633e-05,1
1772488682630166528,-0.001780404360033572,1,0.0007481228094547987,1,0.03865163400769234,1,0.0004760550800710917,1,0.0002664790081325918,1,-0.0002843168622348458,1
1772488682640715520,-0.00115367746911943,1,0.001089600962586701,1,0.03368698060512543,1,0.000657333992421627,1,0.0005074479850009084,1,-0.0001574345660628751,1
1772488682651161344,-0.001655135187320411,1,0.001703963382169604,1,0.03282627463340759,1,0.0007257331162691116,1,0.0007486721733585,1,-0.00019137303752359,1
1772488682661503744,-0.0001208113972097635,1,0.0008068508468568325,1,0.02729039825499058,1,0.0009133482817560434,1,0.0007826576475054026,1,-7.808308873791248e-05,1
1772488682671745280,0.0006594668375328183,1,0.0002565673785284162,1,0.03250422328710556,1,0.0009270363952964544,1,0.001173448632471263,1,-0.0002167497732443735,1
1772488682681885440,-0.0005749105475842953,1,0.001355550717562437,1,0.04101098701357841,1,0.001298304181545973,1,0.001242157537490129,1,-0.0001296627015108243,1
1772488682691923712,-0.000306912639643997,1,-0.0003013386158272624,1,0.04057776182889938,1,0.001619598944671452,1,0.001444300287403166,1,-1.59168012032751e-05,1
1772488682701863936,-0.002066515386104584,1,-0.002086778869852424,1,0.03956855833530426,1,0.001928558922372758,1,0.001206582062877715,1,7.145866402424872e-05,1
1772488682711710208,-0.004258622415363789,1,0.001072252867743373,1,0.04496655613183975,1,0.001780675258487463,1,0.0009144633659161627,1,-9.054819383891299e-05,1
1772488682721461760,0.0001295837573707104,1,-0.001796354888938367,1,0.03918085992336273,1,0.001402839901857078,1,0.0006924553890712559,1,1.76106968865497e-05,1
1772488682731116288,0.002876655198633671,1,0.000465975608676672,1,0.05773667991161346,1,0.0008676729048602283,1,0.0008408091380260885,1,0.0001036188550642692,1
1772488682740674816,0.001004502875730395,1,-0.005505761131644249,1,0.07045522332191467,1,0.001178504317067564,1,0.0006515071727335453,1,3.253928753110813e-06,1
1772488682750140672,-0.003526434069499373,1,-0.00192413735203445,1,0.03455385565757751,1,0.0007401678012683988,1,0.0004504921671468765,1,8.447128493571654e-05,1
1772488682759512320,-0.00339288916438818,1,0.000150164240039885,1,0.04170507565140724,1,0.0007947630365379155,1,0.0003584705118555576,1,-0.0002276426239404827,1
1772488682768946176,0.0008240251336246729,1,-0.00364319421350956,1,0.05518484860658646,1,0.0006455902475863695,1,0.0004987819120287895,1,-0.0003322109114378691,1
1772488682779672576,0.001652980921790004,1,-0.003342910436913371,1,0.04982751235365868,1,0.0006019372376613319,1,0.0002880533284042031,1,-0.0002444098645355552,1
1772488682790293760,0.0006925719208084047,1,0.006614698562771082,1,0.04192271456122398,1,0.0004561553359963,1,0.0003398775879759341,1,5.718910324503668e-05,1
1772488682800810496,9.718436194816604e-05,1,0.004288316704332829,1,0.03667569160461426,1,0.0006831934442743659,1,0.0001818074670154601,1,9.185869566863403e-05,1
1772488682811224320,-0.00120128586422652,1,0.002665352774783969,1,0.03944386169314384,1,0.0008340235217474401,1,0.0004194471111986786,1,6.103608757257462e-05,1
1772488682821537024,-0.004200985189527273,1,4.994217306375504e-06,1,0.04171182215213776,1,0.001227028318680823,1,0.0006366897141560912,1,7.196403748821467e-05,1
1772488682831747072,0.00324448524042964,1,-0.006165174301713705,1,0.05218332633376122,1,0.0007080334471538663,1,0.0006774332723580301,1,3.653650855994783e-05,1
1772488682841856512,0.002860151696950197,1,-0.001099054818041623,1,0.04570499435067177,1,0.0009755385690368712,1,0.0004980347584933043,1,0.0001922732917591929,1
1772488682851867136,0.0005976924439892173,1,0.005369600374251604,1,0.03959561511874199,1,0.001130571123212576,1,0.0006308496231213212,1,0.0001520161749795079,1
1772488682861778176,0.002411572262644768,1,0.0001809217501431704,1,0.04645051062107086,1,0.001207057386636734,1,0.0006880400469526649,1,9.408179903402925e-05,1
1772488682871591936,0.0009046430350281298,1,-0.00187937228474766,1,0.04630637168884277,1,0.0004714867391157895,1,0.000521026027854532,1,3.511066825012676e-05,1
1772488682881309440,-0.000182672796654515,1,0.001250084256753325,1,0.04190415143966675,1,0.0007199892424978316,1,0.0004110008012503386,1,4.475008245208301e-05,1
1772488682890929920,-0.0004186683217994869,1,0.0004710501234512776,1,0.04418797045946121,1,0.0004040576459374279,1,2.491701889084652e-05,1,0.0003150591510348022,1
1772488682900455936,-0.0001886607060441747,1,-0.001681572641246021,1,0.04901963099837303,1,0.000393814203562215,1,2.053886419162154e-06,1,0.0002321144856978208,1
1772488682909888256,-0.0002911110932473093,1,0.0004495372413657606,1,0.04490139707922935,1,0.0003337046655360609,1,-0.0001303948374697939,1,-0.0001019618721329607,1
1772488682919233024,0.001774955657310784,1,-0.001178995938971639,1,0.04194884747266769,1,0.0001258071570191532,1,8.836215420160443e-05,1,-1.773341500665992e-05,1
1772488682929105920,-0.000138354254886508,1,0.002323268679901958,1,0.04223395138978958,1,0.0003660735674202442,1,3.599207411753014e-05,1,0.0003993942518718541,1
1772488682939800320,0.0002250160614494234,1,0.002554327948018909,1,0.04266148433089256,1,7.899931370047852e-05,1,-0.0001211507333209738,1,0.0002927627938333899,1
1772488682950390272,0.001490456750616431,1,-0.002882632194086909,1,0.04455356672406197,1,-2.096931712003425e-05,1,-0.0002711472625378519,1,-7.579392331535928e-06,1
1772488682960875264,0.0006912540411576629,1,-0.004183170851320028,1,0.04451737925410271,1,-0.000162516618729569,1,-2.777509143925272e-05,1,-0.0001334631670033559,1
1772488682971256320,0.0008885834831744432,1,-0.001108006108552217,1,0.04335564002394676,1,-6.216384645085782e-05,1,5.002857142244466e-05,1,0.0001300247095059603,1
1772488682981537024,0.0005684057250618935,1,-0.0006051765521988273,1,0.04209192842245102,1,-7.935023313621059e-05,1,2.871586912078783e-05,1,6.061702515580691e-05,1
1772488682991717376,0.00206069927662611,1,-0.0001654979423619807,1,0.04422898590564728,1,0.0001434729347238317,1,-0.0001128630101447925,1,-0.0003740701358765364,1
1772488683001798656,0.002269709948450327,1,-8.367083501070738e-05,1,0.04415114223957062,1,0.0001208034082083032,1,-0.0001247846957994625,1,-0.0001493580493843183,1
1772488683011779328,-0.0002880289393942803,1,-0.0009126847144216299,1,0.04334621503949165,1,-0.0001826506922952831,1,-0.0002015892678173259,1,1.256402174476534e-05,1
1772488683021662208,0.0004314887337386608,1,-0.002686982741579413,1,0.04544876515865326,1,-0.0002333905576961115,1,-0.0001237493997905403,1,-0.0001047666228259914,1
1772488683031447808,0.001760800136253238,1,-0.0003280539531260729,1,0.04236201196908951,1,-7.705836469540372e-05,1,-6.463615136453882e-05,1,9.818487887969241e-05,1
1772488683041135872,0.001054002321325243,1,5.037938535679132e-05,1,0.03690791502594948,1,0.0001025133387884125,1,0.0002475143410265446,1,6.958407175261527e-05,1
1772488683050730240,0.002835595514625311,1,0.0002191440435126424,1,0.03992732241749763,1,9.700249938759953e-05,1,0.0002404281258350238,1,0.0001277950213989243,1
1772488683060228864,0.0006976961158216,1,0.0003818673721980304,1,0.04433795437216759,1,7.889827247709036e-05,1,-3.252909300499596e-05,1,0.0001387597003486007,1
1772488683069635328,-0.0003084072668571025,1,-6.202780059538782e-05,1,0.04227173328399658,1,8.417961362283677e-05,1,0.0002138653508154675,1,-7.313689275179058e-05,1
1772488683078948352,-0.0006831199862062931,1,-0.0007010203553363681,1,0.04177255183458328,1,0.0001486847177147865,1,5.654432970914058e-05,1,2.296001548529603e-05,1
1772488683089253120,-0.001896887784823775,1,0.0008022697875276208,1,0.04532855376601219,1,0.0002868291339837015,1,-0.0001279116404475644,1,0.0002309490228071809,1
1772488683099920384,-0.002320358762517571,1,0.000584342866204679,1,0.04428453743457794,1,0.0001573924673721194,1,-0.0001744652254274115,1,1.16887349577155e-05,1
1772488683110482688,-0.000937800679821521,1,-0.0006453625974245369,1,0.04257445782423019,1,0.0002462241100147367,1,0.0001335592824034393,1,1.453831282560714e-05,1
1772488683120941056,-0.001932423678226769,1,-0.001678928383626044,1,0.04414847493171692,1,0.0002117702388204634,1,6.496839341707528e-05,1,9.493841207586229e-05,1
1772488683131298560,-0.001252351212315261,1,0.001850567292422056,1,0.04363616183400154,1,0.0002463553682900965,1,-0.0004063047235831618,1,0.000177836773218587,1
1772488683141551360,0.0009847285691648722,1,0.002522062044590712,1,0.04038830101490021,1,0.0002068035100819543,1,-0.0001466944086132571,1,0.0001998393418034539,1
1772488683151703040,0.003677457803860307,1,0.0008520495612174273,1,0.04106716066598892,1,-0.0001085944095393643,1,0.0004152506007812917,1,3.981639019912109e-05,1
1772488683161755648,0.0009022851008921862,1,-0.0005704882205463946,1,0.04220210760831833,1,0.0001025474775815383,1,0.0002982257283292711,1,-2.907706038968172e-05,1
1772488683171710208,0.0006485464400611818,1,0.0005468796589411795,1,0.0442567765712738,1,-9.893797687254846e-05,1,0.0001128908770624548,1,-7.011753041297197e-05,1
1772488683181569536,0.0002478615788277239,1,-0.0008745671948418021,1,0.04501547291874886,1,-4.905933383270167e-05,1,-0.00028802509768866,1,-0.0001586888392921537,1
1772488683191330560,-0.001059568952769041,1,0.0008784125093370676,1,0.04602813720703125,1,-0.0003265515551902354,1,-0.0001059034038917162,1,-9.12195464479737e-05,1
1772488683200995328,0.001564608421176672,1,0.001114047016017139,1,0.04423702508211136,1,-0.0003559377510100603,1,3.077346991631202e-05,1,-1.495006290497258e-05,1
1772488683210565376,0.002605837304145098,1,-0.0002629896625876427,1,0.04057743027806282,1,0.0001590281317476183,1,-1.399410757585429e-05,1,1.142288328992436e-05,1
1772488683220040192,0.003330024890601635,1,0.0009339619427919388,1,0.04002330452203751,1,0.0003012033994309604,1,-0.0002079178520943969,1,-2.28769513341831e-05,1
1772488683229422080,0.003806316992267966,1,0.002578044077381492,1,0.04298565909266472,1,0.0003594910958781838,1,-4.227369208820164e-05,1,-0.0003751148178707808,1
1772488683238713856,0.001650337595492601,1,0.003940672148019075,1,0.04318345710635185,1,0.0002670897229108959,1,0.0001149156887549907,1,-0.0002544883755035698,1
1772488683249472768,0.001521026017144322,1,0.00179707701317966,1,0.04163117706775665,1,0.0001405737712047994,1,5.495089862961322e-05,1,-8.81494052009657e-05,1
1772488683260126464,0.0007897226605564356,1,0.000955573283135891,1,0.04260766506195068,1,-3.648987330961972e-06,1,-6.155603477964178e-05,1,-4.827743759960867e-05,1
1772488683270675200,0.000956543255597353,1,0.001088122487999499,1,0.04121993854641914,1,-2.747895996435545e-05,1,-6.745696009602398e-05,1,-5.021208198741078e-05,1
1772488683281118976,0.002031650627031922,1,-0.003719105152413249,1,0.04190415889024734,1,-0.0001770910457707942,1,-0.000274693826213479,1,-0.0002221028844360262,1
1772488683291461376,0.002613834105432034,1,-0.001923242001794279,1,0.04438379779458046,1,-0.0002111343928845599,1,-8.828166755847633e-06,1,-0.0002938573888968676,1
1772488683301702400,0.0015086664352566,1,0.0001380363828502595,1,0.04626985266804695,1,-0.0005142174195498228,1,-0.0001149806921603158,1,0.0001337226422037929,1
1772488683311842560,0.0006229825667105615,1,0.0006339335814118385,1,0.04440803453326225,1,-0.0002979785786010325,1,-0.0002238871675217524,1,0.0002067489258479327,1
1772488683321881600,0.0001443250221200287,1,0.001800044788978994,1,0.04181138426065445,1,1.302316377405077e-06,1,-0.0003152669232804328,1,5.855518247699365e-05,1
1772488683331820800,0.001093237195163965,1,-0.0008102093124762177,1,0.0420411005616188,1,0.0002618682628963143,1,9.684259566711262e-05,1,-4.668505425797775e-05,1
1772488683341662464,0.0002423929399810731,1,-0.001412177574820817,1,0.04587412625551224,1,0.0008644554764032364,1,0.0003921283932868391,1,3.953555278712884e-05,1
1772488683351407104,-0.001298569259233773,1,-0.0007357348222285509,1,0.04505009576678276,1,0.001165832043625414,1,7.392199040623382e-05,1,4.783602707902901e-05,1
1772488683361058816,-0.001199943479150534,1,-0.001127950032241642,1,0.04361745342612267,1,0.001120624714531004,1,0.0004931100993417203,1,0.000157982314703986,1
1772488683370617600,-0.0003411419165786356,1,-0.001854451955296099,1,0.0406900942325592,1,0.001236904528923333,1,0.0003513253177516162,1,9.835373930400237e-05,1
1772488683380081664,-0.001000301912426949,1,-0.001018526963889599,1,0.03910403326153755,1,0.0007019009790383279,1,3.223577732569538e-05,1,-3.925314740627073e-05,1
1772488683389451776,0.001567361643537879,1,0.001970341661944985,1,0.04031457006931305,1,0.0007425808580592275,1,-0.0001007152168313041,1,-3.116504012723453e-05,1
1772488683398883328,0.004005133174359798,1,-0.001031423918902874,1,0.03950262442231178,1,0.0008891257457435131,1,-0.0002734331646934152,1,-0.000262104906141758,1
1772488683409608960,0.002084433566778898,1,-0.001458926592022181,1,0.04323724657297134,1,0.0009745298302732408,1,-0.0001325118646491319,1,-0.0002816732740029693,1
1772488683420229376,0.002927750581875443,1,-0.00293092685751617,1,0.04271616414189339,1,0.0009513531113043427,1,1.235253876075149e-05,1,-0.0003996718442067504,1
1772488683430744064,0.005291067529469728,1,-9.659680654294789e-05,1,0.04489802569150925,1,0.0008400740334764123,1,3.345870936755091e-06,1,-0.000391382462112233,1
1772488683441154560,0.003420913126319647,1,0.002213992644101381,1,0.0418880321085453,1,0.0006538337911479175,1,-0.0001115648410632275,1,-0.000261957902694121,1
1772488683451464704,-0.0004240274429321289,1,-0.0007300730794668198,1,0.04123032838106155,1,0.0005801453371532261,1,0.0001791503455024213,1,-0.0002373059105593711,1
1772488683461673984,0.003729076124727726,1,-0.001600636402145028,1,0.04290658608078957,1,0.000302419881336391,1,9.562473860569298e-05,1,-5.013024565414526e-05,1
1772488683471780864,0.002128451596945524,1,0.0002823062241077423,1,0.04376516863703728,1,0.0004547822172753513,1,5.184459951124154e-05,1,-0.0001099581641028635,1
1772488683481790208,0.001735988538712263,1,-0.0009285503765568137,1,0.04176188260316849,1,0.0002414743066765368,1,2.661397229530849e-05,1,-3.770850162254646e-05,1
1772488683491699456,0.0009771153563633561,1,-0.0004180027754046023,1,0.04458928480744362,1,0.0003506189677864313,1,-0.0001383494382025674,1,-3.752957854885608e-05,1
1772488683501510400,-0.0001082424132619053,1,-0.0001079378562280908,1,0.04219819232821465,1,0.0003687296702992171,1,0.0002161843585781753,1,-0.0001683625014265999,1
1772488683511225344,-0.003281418234109879,1,-0.002820919966325164,1,0.03946220502257347,1,5.237898585619405e-05,1,0.000237924643442966,1,0.0002238391025457531,1
1772488683520844544,-0.002109560184180737,1,-0.00056172237964347,1,0.04570579156279564,1,-0.0001628587488085032,1,-0.0001344312768196687,1,9.87003804766573e-05,1
1772488683530367744,-0.002853733953088522,1,0.0003710955788847059,1,0.04472129791975021,1,-0.0004227563622407615,1,-0.0002277296298416331,1,0.000120346769108437,1
1772488683539798528,-0.0001976882631424814,1,0.0004648490867111832,1,0.04028224945068359,1,-0.0005269672838039696,1,-0.0003390324709471315,1,2.574660356913228e-06,1
1772488683549135616,-0.001011782907880843,1,0.000182464049430564,1,0.04055529832839966,1,-0.0003379407862666994,1,-0.0003228892455808818,1,4.212415660731494e-05,1
1772488683559000320,-0.0009828422917053103,1,-0.002421145094558597,1,0.04391781985759735,1,-0.0003782815765589476,1,-0.0003134160069748759,1,5.205488196224906e-05,1
1772488683569694208,0.002293528290465474,1,-0.0007919025956653059,1,0.04341490939259529,1,5.233218325884081e-05,1,0.0002449434832669795,1,7.208162423921749e-05,1
1772488683580283392,0.0009319500532001257,1,-0.001282762154005468,1,0.04719432443380356,1,1.039316703099757e-05,1,-0.0001759596198098734,1,-1.693229751253966e-05,1
1772488683590766848,-0.001688816118985415,1,0.001604495453648269,1,0.04359746351838112,1,-0.000316535762976855,1,-0.0002764635719358921,1,-0.0003490701492410153,1
1772488683601148160,-0.003459858242422342,1,0.0002245919313281775,1,0.04289404302835464,1,0.0002199448936153203,1,-0.0004090099828317761,1,-0.0003319625393487513,1
1772488683611429120,-0.001185524743050337,1,0.01463755778968334,1,0.05664400011301041,1,0.002283978275954723,1,-0.0007736330153420568,1,-0.0003269356675446033,1
1772488683621607680,-0.0002271407283842564,1,0.009000198915600777,1,0.04995184764266014,1,0.006128952838480473,1,-0.001203560852445662,1,-0.0002775278990156949,1
1772488683631687424,0.02087236568331718,1,0.07486718147993088,1,0.05736243352293968,1,0.01975498162209988,1,-0.005744030699133873,1,-0.0002038905222434551,1
1772488683641666816,0.03591926023364067,1,0.1191899999976158,1,0.06255429983139038,1,0.05722430720925331,1,-0.0164758525788784,1,0.0001079881039913744,1
1772488683651546880,0.02064826712012291,1,0.05236774682998657,1,0.05772655084729195,1,0.0938594788312912,1,-0.02635544165968895,1,-0.0001699244603514671,1
1772488683661330176,-0.02438710629940033,1,-0.1098178252577782,1,0.02172878198325634,1,0.05098887905478477,1,-0.01451809983700514,1,-0.000257660896750167,1
1772488683671016960,0.008370297029614449,1,0.009293820708990097,1,0.04005277529358864,1,0.03020153753459454,1,-0.00843302346765995,1,-0.0001618144888198003,1
1772488683680607488,-0.00776287354528904,1,-0.0350014939904213,1,0.04113655909895897,1,0.01805563643574715,1,-0.005034046713262796,1,-0.0002315333840670064,1
1772488683690105088,0.0009388039470650256,1,0.01186442188918591,1,0.04211582243442535,1,0.01365591585636139,1,-0.003955492749810219,1,-2.952723298221827e-05,1
1772488683699508480,-0.01066691242158413,1,-0.0189589336514473,1,0.04828982055187225,1,0.01138687133789062,1,-0.003641207935288548,1,-0.0002054377109743655,1
1772488683708817920,0.002061376348137856,1,0.02366861887276173,1,0.0445614717900753,1,0.01087477803230286,1,-0.003463028464466333,1,1.551664900034666e-05,1
1772488683719122688,0.002644975669682026,1,0.01707247458398342,1,0.04469937458634377,1,0.0194522961974144,1,-0.00563670601695776,1,8.736424206290394e-05,1
1772488683729791488,0.00892977137118578,1,0.0293960478156805,1,0.04287823289632797,1,0.02654093876481056,1,-0.007973319850862026,1,-0.0001126720308093354,1
1772488683740354816,0.02058045566082001,1,0.05375533178448677,1,0.04896961152553558,1,0.04540099203586578,1,-0.01315617840737104,1,-0.0002399799122940749,1
1772488683750814976,-0.01932442747056484,1,-0.07007843255996704,1,0.03376984596252441,1,0.04090854525566101,1,-0.01212859991937876,1,-0.0002455145004205406,1
1772488683761170176,0.0007282048463821411,1,-0.01910018175840378,1,0.03471226617693901,1,0.02545451559126377,1,-0.008077194914221764,1,0.000118682102765888,1
1772488683771425536,-0.0133283631876111,1,-0.04046470671892166,1,0.04558012261986732,1,0.0217825323343277,1,-0.007883219048380852,1,3.980944165959954e-05,1
1772488683781578496,-0.005095480941236019,1,-0.02068674191832542,1,0.04061490297317505,1,0.01096156798303127,1,-0.004252796061336994,1,-0.0002958044642582536,1
1772488683791630592,-0.01031022425740957,1,-0.0202900767326355,1,0.04592539742588997,1,0.008403950370848179,1,-0.003148821182549,1,-0.0002646048669703305,1
1772488683801584128,-0.004760493524372578,1,-0.01259808335453272,1,0.04108147323131561,1,0.004371857736259699,1,-0.002081216080114245,1,-0.0001178574020741507,1
1772488683811442432,-0.004407911561429501,1,-0.01820525899529457,1,0.04516977444291115,1,0.00426560128107667,1,-0.002097927499562502,1,-4.490462379180826e-05,1
1772488683821206272,-0.0009612362482585013,1,-0.01207565981894732,1,0.04016916081309319,1,0.003111789468675852,1,-0.00208019302226603,1,0.0001878159382613376,1
1772488683830874112,0.003039912786334753,1,-0.01050172280520201,1,0.0307968407869339,1,0.002959148492664099,1,-0.001649202429689467,1,4.806563083548099e-06,1
1772488683840445696,0.0001612979103811085,1,-0.01148817129433155,1,0.0379258394241333,1,0.003048569429665804,1,-0.001450757030397654,1,0.0002417257928755134,1
1772488683849922560,-0.001112502301111817,1,-0.009593484923243523,1,0.03219396993517876,1,0.003007045015692711,1,-0.00118536246009171,1,4.985149280400947e-05,1
1772488683859307008,0.001554407412186265,1,-0.009662308730185032,1,0.04209066927433014,1,0.003320887451991439,1,-0.00121528294403106,1,-0.0002161362790502608,1
1772488683868598016,-0.004798689391463995,1,-0.01323408354073763,1,0.04016531258821487,1,0.003011611290276051,1,-0.00127945956774056,1,2.34925864788238e-05,1
1772488683879355904,-0.004182111471891403,1,-0.01448999438434839,1,0.03674627840518951,1,0.002119169337674975,1,-0.0008900225511752069,1,0.0002077761018881574,1
1772488683890007040,-0.007571964990347624,1,-0.01311550661921501,1,0.04276374727487564,1,0.001370448735542595,1,-0.0004416105803102255,1,0.0002629478112794459,1
1772488683900554752,-0.0114219868555665,1,-0.01114389486610889,1,0.0670827180147171,1,6.592005956918001e-05,1,8.72337695909664e-05,1,0.0002768061240203679,1
1772488683910999552,-0.00888723973184824,1,-0.007623696699738503,1,0.06073910370469093,1,-0.001436676015146077,1,-0.0001748373761074618,1,0.0007952368468977511,1
1772488683921340672,-0.003494969103485346,1,-0.02722891792654991,1,-0.01082947943359613,1,-0.0005328224506229162,1,0.0008810613071545959,1,0.0007489387644454837,1
1772488683931578112,0.002721052849665284,1,-0.01169494353234768,1,0.001307236030697823,1,-0.002947097644209862,1,0.00151450780685991,1,0.0004064217791892588,1
1772488683941716992,0.002416258212178946,1,-0.01758982427418232,1,0.0762023851275444,1,-0.00101907376665622,1,0.0008130092173814774,1,0.0002824272669386119,1
1772488683951754752,0.00142031058203429,1,-0.02732313796877861,1,0.05625559389591217,1,-0.001973992912098765,1,0.001140589010901749,1,0.0001483219675719738,1
1772488683961692928,-0.005309564061462879,1,-0.002368560060858727,1,0.04643990471959114,1,2.576061524450779e-05,1,8.015100320335478e-05,1,2.602418135211337e-05,1
1772488683971533824,-0.003556992392987013,1,-0.01361586898565292,1,0.03032500669360161,1,-0.0003907552163582295,1,0.0003309260937385261,1,0.0001320126320933923,1
1772488683981277440,-0.001456433325074613,1,-0.01569143868982792,1,0.04949789494276047,1,0.001306085381656885,1,-0.0001134508929681033,1,0.0001015398447634652,1
1772488683990924032,-9.49667883105576e-05,1,-0.00496620824560523,1,0.06225726008415222,1,0.001456788275390863,1,-0.0001294672110816464,1,1.102335863834014e-05,1
1772488684000477440,-0.000895096396561712,1,-0.01602863520383835,1,0.03770864754915237,1,0.002305881818756461,1,-0.0009060620795935392,1,-0.0002718918258324265,1
1772488684009940736,0.00137694482691586,1,-0.01369004510343075,1,0.01646423898637295,1,0.001338226720690727,1,-0.0006404760642908514,1,-0.0001957975036930293,1
1772488684019312384,-0.005355756729841232,1,-0.01142279990017414,1,0.04732402786612511,1,0.001561744837090373,1,-0.0007556595373898745,1,-9.015295654535294e-05,1
1772488684028745216,-0.005044352263212204,1,-0.02143571712076664,1,0.05641967430710793,1,0.0009576028096489608,1,-0.000542831199709326,1,-2.857357321772724e-05,1
1772488684039471360,-0.007034393027424812,1,-0.02070102095603943,1,0.04702747613191605,1,0.0004221037961542606,1,-8.108556357910857e-05,1,-0.0001016473179333843,1
1772488684050091776,-0.007434791419655085,1,-0.008715116418898106,1,0.03683683276176453,1,-0.000327513407683,1,-0.0001376089348923415,1,-0.0001141061729867943,1
1772488684060608000,-0.00265270029194653,1,-0.0145011767745018,1,0.04125867038965225,1,-0.0002426365826977417,1,0.0001115575432777405,1,6.023883543093689e-05,1
1772488684071019776,-0.0004457661416381598,1,-0.01349931862205267,1,0.04801749065518379,1,-0.0006703727995045483,1,0.0002281171909999102,1,-4.117901335121132e-05,1
1772488684081332736,-0.0021985515486449,1,-0.008394040167331696,1,0.03531071916222572,1,-0.0005616827984340489,1,0.0006262381793931127,1,-3.306099097244442e-05,1
1772488684091542016,-0.001215707743540406,1,-0.0138886459171772,1,0.04269348829984665,1,-0.0004969826550222933,1,8.027186413528398e-05,1,7.403235940728337e-06,1
1772488684101651456,-0.0009916501585394144,1,-0.01519194710999727,1,0.04638170823454857,1,-0.0001148110968642868,1,-4.641823397832923e-05,1,-2.761290306807496e-05,1
1772488684111662080,-0.003029746003448963,1,-0.01284748036414385,1,0.05324696004390717,1,0.0001619271351955831,1,-0.000163494041771628,1,-2.820975169015583e-05,1
1772488684121573120,-0.002644381718710065,1,-0.01483465731143951,1,0.03340624272823334,1,-0.0002798226196318865,1,7.315132825169712e-05,1,-2.951192800537683e-05,1
1772488684131385088,-0.004085443913936615,1,-0.01466214284300804,1,0.04030006378889084,1,0.0001192499621538445,1,6.294356717262417e-05,1,-0.0001240766141563654,1
1772488684141101824,-0.00555606372654438,1,-0.01444540452212095,1,0.04901536181569099,1,0.0004233584913890809,1,9.857963596004993e-05,1,9.127872999670217e-07,1
1772488684150722304,-0.004502655006945133,1,-0.01333826035261154,1,0.0431487001478672,1,0.0002014170459005982,1,0.0001008683539112099,1,4.49120307166595e-05,1
1772488684160248832,-0.004243945237249136,1,-0.01447598449885845,1,0.03859226033091545,1,7.50084946048446e-05,1,0.0004094007017556578,1,0.000128398954984732,1
1772488684169681152,-0.003693794831633568,1,-0.01610831543803215,1,0.04281488806009293,1,-0.0001336613058811054,1,0.0001183373387902975,1,-3.349476173752919e-05,1
1772488684179019520,-0.004290301818400621,1,-0.01224203873425722,1,0.04863119125366211,1,-0.000241200701566413,1,0.0001659873232711107,1,-0.0001031990032061003,1
1772488684188884736,-0.00706272991374135,1,-0.01060538180172443,1,0.04719438776373863,1,-0.000248800846748054,1,0.0001111789315473288,1,0.0001218571269419044,1
1772488684199578624,-0.005787286441773176,1,-0.01340934261679649,1,0.04256201162934303,1,-0.0006158300675451756,1,0.0004346786299720407,1,0.0002109490887960419,1
1772488684210166016,-0.005234163254499435,1,-0.01209632679820061,1,0.04435195401310921,1,-0.0005878052907064557,1,0.0004081203369423747,1,7.898230978753418e-05,1
1772488684220651008,-0.006660304497927427,1,-0.008538444526493549,1,0.04975521564483643,1,0.0001099572109524161,1,0.000222869188291952,1,0.0002023281704168767,1
1772488684231031808,-0.006830403115600348,1,-0.01262681558728218,1,0.04783209040760994,1,0.000270452379481867,1,9.928121289703995e-05,1,4.02252990170382e-05,1
1772488684241311232,-0.006511398125439882,1,-0.01408085040748119,1,0.04198112711310387,1,0.000495059706736356,1,9.615470480639488e-05,1,0.0001567635190440342,1
1772488684251491328,-0.005445048678666353,1,-0.01189598999917507,1,0.04454797133803368,1,0.0002236784202978015,1,-0.0005084406584501266,1,0.0003966079966630787,1
1772488684261570048,-0.003786415793001652,1,-0.01539517845958471,1,0.04594467952847481,1,1.952857564901933e-05,1,-0.0002125110040651634,1,0.0001925255201058462,1
1772488684271548416,-0.003913556225597858,1,-0.01584711298346519,1,0.04384377971291542,1,-0.0001617358939256519,1,-0.0001678025582805276,1,1.86049728654325e-05,1
1772488684281429760,-0.004092020448297262,1,-0.01366166677325964,1,0.04012782871723175,1,-0.0006307283765636384,1,-4.575900675263256e-05,1,-0.0001990413584280759,1
1772488684291212800,-0.002902875654399395,1,-0.0141412690281868,1,0.04202310368418694,1,-0.0005457291263155639,1,0.0002973770315293223,1,-1.294757385039702e-05,1
1772488684300899584,-0.002410710323601961,1,-0.01181653421372175,1,0.05065896362066269,1,-0.0002584088360890746,1,0.0003551949339453131,1,-0.0001852422719821334,1
1772488684310491392,-0.003241911996155977,1,-0.01306414883583784,1,0.04459307715296745,1,0.0005476614460349083,1,0.0001058705092873424,1,-0.0001714185491437092,1
1772488684319987968,-0.005562198348343372,1,-0.01415792293846607,1,0.0396798849105835,1,0.0005251912516541779,1,-8.887721196515486e-05,1,-3.52404240402393e-05,1
1772488684329389568,-0.003520950442180037,1,-0.01281910017132759,1,0.04465657845139503,1,0.0005535943782888353,1,3.236685370211489e-05,1,-0.0001253600639756769,1
1772488684338699008,7.677599205635488e-05,1,-0.008780510164797306,1,0.049260213971138,1,0.001070419559255242,1,-0.0002058351092273369,1,0.0001375516731059179,1
1772488684349004800,0.003930040635168552,1,-0.00533294677734375,1,0.04741082713007927,1,0.002459892304614186,1,-0.0005993077647872269,1,1.999265805352479e-05,1
1772488684359672320,-0.005503281485289335,1,-0.01595514453947544,1,0.03324637934565544,1,0.003327807178720832,1,-0.001319025061093271,1,-0.0002052275231108069,1
1772488684370236160,-0.00255809142254293,1,-0.01417769026011229,1,0.03706281632184982,1,0.001822258811444044,1,-0.0007164025446400046,1,-3.814539377344772e-05,1
1772488684380697344,-0.003538355464115739,1,-0.01644178293645382,1,0.04465801641345024,1,0.001497491495683789,1,-0.000432195229222998,1,-4.784003249369562e-05,1
1772488684391055616,-0.005505125503987074,1,-0.01705191656947136,1,0.04929733648896217,1,0.0007532444433309138,1,3.123813075944781e-05,1,1.525447260064539e-05,1
1772488684401311488,-0.006232034880667925,1,-0.0139098996296525,1,0.0382942259311676,1,3.406348696444184e-05,1,0.000239323650021106,1,8.055384387262166e-05,1
1772488684411468032,-0.005574601236730814,1,-0.01285210158675909,1,0.03987909853458405,1,-0.0004937923513352871,1,0.0003520432219374925,1,1.257471012650058e-05,1
1772488684421527552,-0.005477789789438248,1,-0.01532689295709133,1,0.04605713486671448,1,-0.0003574173897504807,1,9.878657147055492e-05,1,3.335316432639956e-05,1
1772488684431488256,-0.005348504986613989,1,-0.01276579312980175,1,0.04596546664834023,1,-8.10029887361452e-05,1,0.0003802565042860806,1,3.835177631117404e-05,1
1772488684441350144,-0.003567874664440751,1,-0.01395138259977102,1,0.04557730630040169,1,0.0003306652943138033,1,3.837197436951101e-05,1,8.19360138848424e-05,1
1772488684451115776,-0.003538271645084023,1,-0.01442858763039112,1,0.04790826514363289,1,0.0002377705241087824,1,-0.0001909685670398176,1,-0.0001425061200279742,1
1772488684460784640,-0.005252632312476635,1,-0.01488017290830612,1,0.0446590967476368,1,0.0001436618331354111,1,2.131863584509119e-05,1,0.0002478804381098598,1
1772488684470356992,-0.00196839077398181,1,-0.01585106924176216,1,0.04976165294647217,1,-0.0001477016194257885,1,7.069144339766353e-05,1,8.972142677521333e-05,1
1772488684479835392,0.0006359547842293978,1,-0.01183393411338329,1,0.04720017313957214,1,0.0001271168002858758,1,-2.985267929034308e-05,1,-2.500829577911645e-05,1
1772488684489220864,-0.0005598111893050373,1,-0.01066677551716566,1,0.04021650925278664,1,0.0005864354898221791,1,-0.0005266883526928723,1,-0.0002205498167313635,1
1772488684498512896,-0.0003899962175637484,1,-0.01401155162602663,1,0.04243591800332069,1,0.0007618730887770653,1,-0.0005198302096687257,1,-0.0001510706933913752,1
1772488684509271296,-0.001037705456838012,1,-0.01327979657799006,1,0.04995567351579666,1,0.0007062418735586107,1,-0.0003698338696267456,1,-0.0002407004358246922,1
1772488684519923968,-0.001268710941076279,1,-0.01374354027211666,1,0.04597819969058037,1,0.0007437100284732878,1,-0.0001608800375834107,1,0.0002056337834801525,1
1772488684530472448,-0.002243437105789781,1,-0.01442711148411036,1,0.04337907209992409,1,0.0006676740013062954,1,-0.0001124406990129501,1,0.0002098669501719996,1
1772488684540915968,-0.006535083055496216,1,-0.01175597310066223,1,0.03869109228253365,1,-2.484677679603919e-06,1,9.115188731811941e-05,1,0.0001641658163862303,1
1772488684551256576,-0.009537634439766407,1,-0.0124010993167758,1,0.03935820236802101,1,-9.737355867400765e-05,1,-0.000229911704082042,1,0.0001827206870075315,1
1772488684561496576,-0.007596729788929224,1,-0.01400096993893385,1,0.04265578836202621,1,4.735844413517043e-05,1,-5.24134848092217e-05,1,0.0001067166667780839,1
1772488684571635200,-0.006017196923494339,1,-0.01503437850624323,1,0.04468138143420219,1,-0.0001357696892227978,1,0.0002386115083936602,1,0.0001342369214398786,1
1772488684581676544,-0.005361379124224186,1,-0.01558402087539434,1,0.04106592014431953,1,-0.0003060214512515813,1,0.0004996391944587231,1,0.000142546501592733,1
1772488684591618048,-0.001528098480775952,1,-0.01448541134595871,1,0.04530967399477959,1,0.0001899299822980538,1,0.0004085999680683017,1,4.308095958549529e-05,1
1772488684601461504,-0.002027167240157723,1,-0.01452129613608122,1,0.04826042056083679,1,0.0002506778109818697,1,0.0004328819341026247,1,9.672562737250701e-05,1
1772488684611208704,-0.002967746928334236,1,-0.0139448419213295,1,0.04648208245635033,1,0.0002556410327088088,1,9.13515395950526e-05,1,4.961750164511614e-05,1
1772488684620858880,-0.004961966536939144,1,-0.01460275053977966,1,0.04757478833198547,1,0.0003242889069952071,1,0.0001804620114853606,1,0.0003455829282756895,1
1772488684630412800,-0.003331798361614347,1,-0.01161790452897549,1,0.04801451414823532,1,0.0002272740821354091,1,0.0001237976830452681,1,2.578219937277026e-05,1
1772488684639874304,-0.0033405851572752,1,-0.01424193102866411,1,0.05130115523934364,1,0.0006095355493016541,1,0.0001505479594925418,1,6.837119144620374e-05,1
1772488684649241856,-0.003030867548659444,1,-0.01541525777429342,1,0.03719967603683472,1,0.001006798353046179,1,-0.0003369293408468366,1,-1.169797906186432e-05,1
1772488684658672384,-0.006987312342971563,1,-0.0156150134280324,1,0.03762283176183701,1,0.001145187532529235,1,-0.00011275069846306,1,-0.0003967864322476089,1
1772488684669398016,-0.006197746377438307,1,-0.0100289573892951,1,0.04183423519134521,1,0.001000419375486672,1,-0.0001312544773099944,1,-0.0002817966742441058,1
1772488684680018176,-0.007285958621650934,1,-0.01034006383270025,1,0.0449027307331562,1,0.001370330806821585,1,-0.0004624830617103726,1,-0.0003432287485338748,1
1772488684690532864,-0.008310148492455482,1,-0.01452489849179983,1,0.04824551567435265,1,0.001592759974300861,1,-0.0003331920888740569,1,-0.0004579747910611331,1
1772488684700944128,-0.00932117085903883,1,-0.01715230755507946,1,0.04905875399708748,1,0.0006810364429838955,1,-0.0001120875385822728,1,-0.0007692925282754004,1
1772488684711255808,-0.00489415880292654,1,-0.01783389411866665,1,0.04851065576076508,1,-0.0001039990384015255,1,0.0002744866360444576,1,-0.0003508171648718417,1
1772488684721465088,-0.003058493137359619,1,-0.01596083678305149,1,0.04363377019762993,1,-0.0006403968436643481,1,0.0006989670218899846,1,-0.0003589699626900256,1
1772488684731574016,-0.003393786493688822,1,-0.01355460286140442,1,0.03660590201616287,1,-0.0007716251420788467,1,0.0008196312701329589,1,-0.00019088588305749,1
1772488684741583104,-0.002037585014477372,1,-0.01314614620059729,1,0.03758621960878372,1,-0.0006887150811962783,1,0.0003035393310710788,1,-0.0003562220081221312,1
1772488684751492352,-0.002631560433655977,1,-0.01236387714743614,1,0.0407090038061142,1,-0.0007049497216939926,1,7.102774543454871e-05,1,-0.000120178097859025,1
1772488684761303808,-0.006043866276741028,1,-0.009665797464549541,1,0.04457750543951988,1,-0.0005687987431883812,1,0.0003504679480101913,1,-0.0002367820707149804,1
1772488684771019264,-0.004808766767382622,1,-0.01229750830680132,1,0.04310592263936996,1,-0.0001548087457194924,1,0.0005572198424488306,1,-0.0002810051082633436,1
1772488684780637952,-0.003895998932421207,1,-0.01498633064329624,1,0.0416509136557579,1,-0.0002808857243508101,1,0.0005132200894877315,1,-8.672172043588944e-06,1
1772488684790162944,-0.004605344496667385,1,-0.01676001958549023,1,0.04151062667369843,1,-0.0002881448890548199,1,0.0005256530712358654,1,-0.0002193972031818703,1
1772488684799593728,-0.006332578603178263,1,-0.0167974978685379,1,0.03992587700486183,1,-0.0006966936052776873,1,0.0003655551699921489,1,-5.762908040196635e-05,1
1772488684808930560,-0.002519326051697135,1,-0.01792699284851551,1,0.04404085874557495,1,-0.0005096405511721969,1,0.0003096533182542771,1,-6.758792005712166e-05,1
1772488684818795008,-0.003414703533053398,1,-0.01462840661406517,1,0.04505614563822746,1,-0.0009670560248196125,1,0.0002766981197055429,1,-3.41557570209261e-05,1
1772488684829487616,-0.001868481747806072,1,-0.01350267603993416,1,0.04014242440462112,1,-0.001141509506851435,1,0.0005262641352601349,1,-0.0001260720891878009,1
1772488684840076288,-0.002280518179759383,1,-0.01340226083993912,1,0.04019554704427719,1,-0.0009489539661444724,1,0.0005055465153418481,1,-0.0002090685302391648,1
1772488684850559744,-0.003348557511344552,1,-0.01285094860941172,1,0.04184239357709885,1,-0.001516262069344521,1,0.0001974541373783723,1,2.294890509801917e-05,1
1772488684860939776,-0.001912900246679783,1,-0.01643016934394836,1,0.04567752033472061,1,-0.001627564430236816,1,0.000323405402014032,1,-0.0001046112956828438,1
1772488684871219200,-0.002105453284457326,1,-0.0140033969655633,1,0.04441440477967262,1,-0.001230802619829774,1,0.0004840715555474162,1,2.569476055214182e-05,1
1772488684881397760,-0.001876098336651921,1,-0.01132859103381634,1,0.04717230424284935,1,-0.001134511549025774,1,-6.871379446238279e-05,1,0.0001843183563323691,1
1772488684891474688,-0.003990339115262032,1,-0.01413229666650295,1,0.04173235222697258,1,-0.0007059153285808861,1,0.0003439653664827347,1,4.798082954948768e-05,1
1772488684901451520,-0.004585122223943472,1,-0.01168170012533665,1,0.04471961781382561,1,-0.000190266000572592,1,0.000329790054820478,1,-0.0001139192463597283,1
1772488684911331584,-0.003615070134401321,1,-0.01174031104892492,1,0.04842464998364449,1,0.0005071450723335147,1,-8.36877734400332e-05,1,-0.0002155340771423653,1
1772488684921113344,-0.006388801150023937,1,-0.01210143975913525,1,0.04592465981841087,1,0.0006814609514549375,1,-0.0004830977122765034,1,-0.0002331130963284522,1
1772488684930798080,-0.007038136012852192,1,-0.01319616101682186,1,0.04471863433718681,1,0.0006638100603595376,1,-0.0005314394365996122,1,-0.0001159363891929388,1
1772488684940388352,-0.003889188170433044,1,-0.01459753699600697,1,0.03848270699381828,1,0.0008073346689343452,1,-0.0004260757996235043,1,-0.0001305309997405857,1
1772488684949883392,-0.002764109056442976,1,-0.01309721823781729,1,0.03764932975172997,1,0.0005916791851632297,1,-0.000508375815115869,1,0.0001312862441409379,1
1772488684959284224,-0.002673390088602901,1,-0.01159117463976145,1,0.03533775731921196,1,0.0006761487456969917,1,-0.0006610054988414049,1,9.109629900194705e-05,1
1772488684968591104,-0.004172776360064745,1,-0.00891285203397274,1,0.03703455626964569,1,0.001794775133021176,1,-0.0007546398555859923,1,0.0002494469226803631,1
1772488684978896896,-0.006629970856010914,1,-0.008721556514501572,1,0.05020403116941452,1,0.001688864664174616,1,-0.0004966441774740815,1,0.0001229710469488055,1
1772488684989565696,-0.007810504641383886,1,-0.01352880895137787,1,0.05079632624983788,1,0.001463928609155118,1,-0.0007954026223160326,1,0.000133635476231575,1
1772488685000129280,-0.007677039131522179,1,-0.01464928314089775,1,0.04944809153676033,1,0.001008374965749681,1,-0.0005296107847243547,1,-2.149927604477853e-05,1
1772488685010589440,-0.007462360896170139,1,-0.01138814445585012,1,0.03860976174473763,1,0.0009668582933954895,1,0.0001013181608868763,1,4.012647332274355e-05,1
1772488685020947200,-0.003637620713561773,1,-0.0124316792935133,1,0.04412579536437988,1,0.0002109533816110343,1,0.0003479651059024036,1,6.299390224739909e-05,1
1772488685031202560,0.0006876057595945895,1,-0.01204715576022863,1,0.05450285598635674,1,-7.3025788879022e-05,1,-2.821104135364294e-05,1,1.606081423233263e-05,1
1772488685041356288,0.000667122018057853,1,-0.01432422548532486,1,0.04956340417265892,1,-2.049957402050495e-06,1,3.203814776497893e-05,1,-6.112232222221792e-05,1
1772488685051410944,0.002421391196548939,1,-0.01415055990219116,1,0.04200082644820213,1,0.0002258569584228098,1,-6.438322088797577e-06,1,0.0001342287287116051,1
1772488685061365504,-0.000462971831439063,1,-0.01162618957459927,1,0.04772017523646355,1,-0.0002199412847403437,1,-1.362247189717891e-06,1,0.0001576986687723547,1
1772488685071225600,-0.003048264421522617,1,-0.01371249090880156,1,0.03432560712099075,1,-0.0004065757966600358,1,-5.566111940424889e-05,1,0.0002112309302901849,1
1772488685080990464,-0.004999108146876097,1,-0.01648217812180519,1,0.04066535830497742,1,0.0001228115725098178,1,-0.0003595471207518131,1,-2.478500391589478e-05,1
1772488685090658048,-0.007821818813681602,1,-0.01355091854929924,1,0.03616210445761681,1,-0.0005348744452930987,1,-0.0002157435956178233,1,-0.0001026363024720922,1
1772488685100230400,-0.006861951667815447,1,-0.0177921038120985,1,0.05232232064008713,1,-0.000343530613463372,1,-0.0001449836418032646,1,4.445194645086303e-05,1
1772488685109709056,-0.00480662053450942,1,-0.01601975783705711,1,0.04221343994140625,1,-0.0007780346204526722,1,0.0003280597447883338,1,0.0002607193309813738,1
1772488685119093504,-0.003738955827429891,1,-0.01394263841211796,1,0.04901570826768875,1,-0.0008991346694529057,1,0.0004206107987556607,1,3.378425390110351e-05,1
1772488685128541696,-0.003697049571201205,1,-0.01438677404075861,1,0.03885012120008469,1,-0.001139019965194166,1,0.0004279291315469891,1,0.0001951004815055057,1
1772488685139298304,-0.004037071019411087,1,-0.01512568537145853,1,0.04583116620779037,1,-0.001481614890508354,1,0.000478072150144726,1,5.176204649615102e-05,1
1772488685149948416,-0.004637822508811951,1,-0.01224103383719921,1,0.04548491910099983,1,-0.001613759435713291,1,0.001001216121949255,1,-0.000135554582811892,1
1772488685160495360,-0.00647494662553072,1,-0.01673028990626335,1,0.04676991328597069,1,-0.001647989032790065,1,0.0006794931832700968,1,-0.00026045783306472,1
1772488685170938880,-0.007115079555660486,1,-0.01681868359446526,1,0.04247234389185905,1,-0.002188337268307805,1,0.0009789575124159455,1,7.596831710543483e-05,1
1772488685181282560,-0.00729378592222929,1,-0.01642839796841145,1,0.04997937008738518,1,-0.003884344128891826,1,0.001438103499822319,1,0.0002229343226645142,1
1772488685191525120,-0.001447104732505977,1,-0.01162101607769728,1,0.05198324471712112,1,-0.003657798748463392,1,0.001453404198400676,1,0.0001823987113311887,1
1772488685201665280,-0.0002175429108319804,1,-0.01421823911368847,1,0.04670717567205429,1,-0.003158695995807648,1,0.00124461657833308,1,0.0001214839139720425,1
1772488685211705856,0.001556504052132368,1,-0.01348495297133923,1,0.04456821829080582,1,-0.003107935655862093,1,0.001117627369239926,1,0.0001129575975937769,1
1772488685221647360,-0.001295933150686324,1,-0.01701702550053596,1,0.04004178568720818,1,-0.003774926997721195,1,0.001527331187389791,1,7.741434092167765e-05,1
1772488685231489536,-0.004809195641428232,1,-0.01344081107527018,1,0.03498683124780655,1,-0.004190976265817881,1,0.00192081939894706,1,-1.63352451636456e-05,1
1772488685241234432,-0.006001406814903021,1,-0.006668956018984318,1,0.02995366603136063,1,-0.003060395130887628,1,0.001505192369222641,1,6.606044917134568e-05,1
1772488685250884608,-0.007673172280192375,1,-0.01033880189061165,1,0.03278768435120583,1,-0.001765321241691709,1,0.0005248095840215683,1,2.936087912530638e-05,1
1772488685260438528,-0.005707268137484789,1,-0.01342857629060745,1,0.03784763813018799,1,-0.0006917001446709037,1,0.000569530064240098,1,0.000191835715668276,1
1772488685269897472,-0.002624549902975559,1,-0.01459341309964657,1,0.03951407223939896,1,-0.0003323356504552066,1,0.0002988495107274503,1,0.000210876896744594,1
1772488685279270144,-0.0006227352423593402,1,-0.01780790835618973,1,0.03901439160108566,1,-0.0007383048068732023,1,0.0005390441510826349,1,1.800130849005654e-05,1
1772488685288703488,-0.00115953991189599,1,-0.0172449704259634,1,0.03588123247027397,1,-0.002206986537203193,1,0.0009963575284928083,1,-0.0001422571076545864,1
1772488685299427840,-0.002913785167038441,1,-0.01622197031974792,1,0.03673837706446648,1,-0.003827112261205912,1,0.002058643847703934,1,-3.549417670001276e-05,1
1772488685310045440,-0.007919394411146641,1,-0.02004739455878735,1,0.04122453927993774,1,-0.00493135629221797,1,0.002525368705391884,1,-0.0001305818586843088,1
1772488685320558592,-0.008941438049077988,1,-0.01583164185285568,1,0.05098291859030724,1,-0.006458234507590532,1,0.002666737651452422,1,-0.0002338757913094014,1
1772488685330970368,-0.009552518837153912,1,-0.003303872887045145,1,0.0504036508500576,1,-0.006164403632283211,1,0.002820299938321114,1,-0.0004993534530512989,1
1772488685341279488,0.03397035598754883,1,0.09026544541120529,1,0.04759963229298592,1,-0.005094702821224928,1,0.002612317446619272,1,-0.004619535058736801,1
1772488685351486208,0.04776908457279205,1,0.1265288889408112,1,0.05164156854152679,1,-0.007106692995876074,1,0.002844942966476083,1,-0.04136883467435837,1
1772488685361593088,-0.04488116502761841,1,-0.1253179460763931,1,0.05246389657258987,1,-0.002966770669445395,1,0.0009430518257431686,1,-0.0351611003279686,1
1772488685371599616,-0.02507821284234524,1,-0.07500522583723068,1,0.04897679015994072,1,-0.001443446613848209,1,0.0005004291888326406,1,-0.01923554949462414,1
1772488685381506304,-0.01808273606002331,1,-0.04862114414572716,1,0.04406753182411194,1,-0.0009329262538813055,1,0.0006913526449352503,1,-0.01045406796038151,1
1772488685391316224,-0.009740485809743404,1,-0.02987066656351089,1,0.0463162288069725,1,-0.0009010720532387495,1,0.0007084613316692412,1,-0.005759142339229584,1
1772488685401029120,-0.00976673886179924,1,-0.0221057515591383,1,0.04047942534089088,1,-2.084947118419223e-05,1,0.0002860560198314488,1,-0.003012248314917088,1
1772488685410645248,-0.005210918374359608,1,-0.01360374595969915,1,0.04484611749649048,1,0.0009024086175486445,1,-0.0003311254258733243,1,-0.001608366845175624,1
1772488685420167424,-0.007834761403501034,1,-0.01775899901986122,1,0.03943593427538872,1,0.001301367185078561,1,-0.000395614595618099,1,-0.0009268492576666176,1
1772488685429595648,-0.002779976697638631,1,-0.01521688140928745,1,0.04030273482203484,1,0.001210184651426971,1,-0.0004644042637664825,1,-0.0004762217577081174,1
1772488685438930176,-0.002451327862218022,1,-0.01384616270661354,1,0.04198924452066422,1,0.001453912351280451,1,-0.0002332333824597299,1,-0.0002219760790467262,1
1772488685448790272,-0.003624832723289728,1,-0.02030975930392742,1,0.04033615812659264,1,0.0006445406470447779,1,-0.0002377040073042735,1,-0.000144841629662551,1
1772488685459477504,-0.001189667382277548,1,-0.02086355350911617,1,0.04007626324892044,1,-0.001303850091062486,1,0.0003201087820343673,1,0.0001040450224536471,1
1772488685470059008,-0.003265266539528966,1,-0.02020320296287537,1,0.04212623834609985,1,-0.003311295760795474,1,0.001275645452551544,1,8.426558633800596e-05,1
1772488685480536320,-0.00221081986092031,1,-0.01914656721055508,1,0.03940810263156891,1,-0.005029098130762577,1,0.001937799621373415,1,-6.868300260975957e-05,1
1772488685490910464,0.0001098864013329148,1,-0.01132810860872269,1,0.0447210818529129,1,-0.006112059112638235,1,0.002036291873082519,1,-0.0001521290396340191,1
1772488685501184512,-0.002223534975200891,1,-0.005040270276367664,1,0.04738682508468628,1,-0.004536767024546862,1,0.001322106458246708,1,2.942208448075689e-05,1
1772488685511357952,-0.003680784022435546,1,-0.01164988521486521,1,0.04261691495776176,1,-0.002667445922270417,1,0.0007214428042061627,1,-9.557003795634955e-05,1
1772488685521430784,-0.004651754628866911,1,-0.01115330588072538,1,0.04043573513627052,1,-0.002287111943587661,1,0.001010999665595591,1,3.234489486203529e-05,1
1772488685531404032,-0.002303980523720384,1,-0.01502350904047489,1,0.04229883849620819,1,-0.001772763323970139,1,0.0006306057912297547,1,-7.675131200812757e-05,1
1772488685541279488,-0.0006042056484147906,1,-0.01525371242314577,1,0.04564047604799271,1,-0.001882896525785327,1,0.0003964380302932113,1,-0.0002982539008371532,1
1772488685551056896,-0.000392443296732381,1,-0.01117581222206354,1,0.04477522894740105,1,-0.001829236978664994,1,0.0007196648512035608,1,-1.473967950005317e-05,1
1772488685560738048,-0.0002743463846854866,1,-0.007351054344326258,1,0.04771899059414864,1,-0.001241800491698086,1,0.0005496932426467538,1,-2.084644620481413e-05,1
1772488685570323968,-0.002568090101704001,1,-0.009674920700490475,1,0.04374928772449493,1,-0.000556205166503787,1,0.0003367466269992292,1,5.148754280526191e-05,1
1772488685579814656,-0.001407283591106534,1,-0.01011276990175247,1,0.04207520931959152,1,-0.0007052845321595669,1,0.0005667301593348384,1,0.0001043189404299483,1
1772488685589211136,-0.003093914361670613,1,-0.008578441105782986,1,0.04101181775331497,1,0.0002586165210232139,1,-1.264114689547569e-05,1,0.0001914143067551777,1
1772488685598516480,-0.0004486579855438322,1,-0.01141436211764812,1,0.03936851397156715,1,0.000956254662014544,1,-0.0004779199371114373,1,0.0001133345722337253,1
1772488685608975616,-0.001416447688825428,1,-0.009433596394956112,1,0.04428538680076599,1,0.0009256638586521149,1,-0.000380584184313193,1,0.0001520336081739515,1
1772488685619642880,-0.003372063394635916,1,-0.01127941906452179,1,0.04265134409070015,1,0.0005579825956374407,1,6.450637738453224e-05,1,-9.358713577967137e-05,1
1772488685630205184,-0.00102741050068289,1,-0.01047620270401239,1,0.04404046759009361,1,-8.157232514349744e-05,1,-5.29774151800666e-05,1,-0.0002074292860925198,1
1772488685640664576,-0.003736164886504412,1,-0.01000677887350321,1,0.04213081672787666,1,0.0007071378640830517,1,-0.0003225074906367809,1,-0.0004115100018680096,1
1772488685651019776,-0.002843006048351526,1,-0.008757151663303375,1,0.04509851336479187,1,0.001514813047833741,1,-0.0006366984453052282,1,-0.0003810407652053982,1
1772488685661275136,-0.004392585717141628,1,-0.01148822251707315,1,0.04429163783788681,1,0.001777602243237197,1,-0.0006328978925012052,1,-0.0003706006973516196,1
1772488685671428096,-0.005489674862474203,1,-0.01058329828083515,1,0.0459693968296051,1,0.002551289973780513,1,-0.0006421111174859107,1,-0.000262489658780396,1
1772488685681481984,-0.007218307815492153,1,-0.01544424239546061,1,0.04486450180411339,1,0.001904279342852533,1,-0.0005426539573818445,1,-0.000307595677440986,1
1772488685691436032,-0.006289673503488302,1,-0.01438413094729185,1,0.04215230420231819,1,0.001081339432857931,1,-8.908257586881518e-05,1,-0.0002356399199925363,1
1772488685701292800,-0.004324778448790312,1,-0.01207584142684937,1,0.04293302819132805,1,0.0005349990678951144,1,7.900613127276301e-06,1,-5.7818710047286e-05,1
1772488685711052032,-0.001810775138437748,1,-0.01330364309251308,1,0.0433320552110672,1,3.655692853499204e-05,1,0.0001764929183991626,1,-8.271337719634175e-05,1
1772488685720713984,0.001603672979399562,1,-0.01089560799300671,1,0.04248869046568871,1,-0.0002769209386315197,1,-5.836069249198772e-05,1,-0.0001831444387789816,1
1772488685730284288,0.001973258797079325,1,-0.006957569625228643,1,0.04173998534679413,1,0.00101552763953805,1,-8.760928176343441e-05,1,5.335517198545858e-05,1
1772488685739768576,-0.0022550611756742,1,-0.01265991386026144,1,0.04021323472261429,1,0.001312513137236238,1,-0.0002512289211153984,1,-2.815872721839696e-05,1
1772488685749159936,-0.004476640373468399,1,-0.01288492884486914,1,0.04189063236117363,1,0.0009035872062668204,1,-0.0001480910432292148,1,2.353773743379861e-05,1
1772488685758613504,-0.003047964302822948,1,-0.007927837781608105,1,0.04828803241252899,1,0.001870129606686532,1,-0.0005930995685048401,1,6.697791832266375e-05,1
1772488685769369856,-0.0006062340689823031,1,-0.01082815881818533,1,0.05089074000716209,1,0.002940911101177335,1,-0.001248103682883084,1,-9.833853255258873e-05,1
1772488685780021504,-0.002349471673369408,1,-0.01294258050620556,1,0.04558321833610535,1,0.002859289525076747,1,-0.001127399387769401,1,-5.977970431558788e-05,1
1772488685790571776,-0.003667641198262572,1,-0.01377815194427967,1,0.04593775421380997,1,0.0025260872207582,1,-0.0007930061547085643,1,-0.0002457472728565335,1
1772488685801018624,-0.003341884585097432,1,-0.01775080896914005,1,0.04307951778173447,1,0.00143904285505414,1,-0.0003468460054136813,1,-0.0001964194962056354,1
1772488685811363840,-0.004187659360468388,1,-0.01426216028630733,1,0.04180357605218887,1,-0.0003261997771915048,1,0.0001663216826273128,1,-0.000139878160553053,1
1772488685821607680,-0.00580799113959074,1,-0.01118118967860937,1,0.03984052687883377,1,-6.701529491692781e-05,1,-4.107825589017011e-05,1,-0.0001053848318406381,1
1772488685831755264,-0.002776294015347958,1,-0.01178331300616264,1,0.04036775603890419,1,3.567009844118729e-05,1,-0.0001537658972665668,1,-6.748972373316064e-05,1
1772488685841803264,-0.00254530948586762,1,-0.009925511665642262,1,0.04257075116038322,1,4.897326653008349e-05,1,-0.0003675611806102097,1,-4.017862738692202e-05,1
1772488685851751680,0.0003409328637644649,1,-0.006625211331993341,1,0.04515647888183594,1,0.001576816430315375,1,-0.0007126661366783082,1,0.0002305528614670038,1
1772488685861602560,-0.001001887139864266,1,-0.01348289754241705,1,0.04575623571872711,1,0.002311054151505232,1,-0.0009985100477933884,1,0.0001855984301073477,1
1772488685871356160,-0.0017654316034168,1,-0.01920139230787754,1,0.04319021850824356,1,0.001341591821983457,1,-0.001049044891260564,1,0.0001020991039695218,1
1772488685881013760,-0.002829727018252015,1,-0.01414670795202255,1,0.04228363186120987,1,-0.0001815940631786361,1,-0.0003857674018945545,1,0.0001698026608210057,1
1772488685890576640,-0.004373050760477781,1,-0.01659677736461163,1,0.04414402693510056,1,-0.001668406766839325,1,0.0004520911606959999,1,3.750585165107623e-05,1
1772488685900045568,-0.003717078594490886,1,-0.01243528909981251,1,0.04540074989199638,1,-0.002170819323509932,1,0.001096485299058259,1,-3.214621392544359e-05,1
1772488685909421568,-0.00463870819658041,1,-0.005162364803254604,1,0.04378575086593628,1,-0.001162101048976183,1,0.001038737595081329,1,4.421679841470905e-05,1
1772488685918857472,-0.00386599195189774,1,-0.006014292594045401,1,0.03943060338497162,1,0.001472328091040254,1,-2.661176404217258e-05,1,0.0001837091404013336,1
1772488685929574144,-0.005062076263129711,1,-0.006874938029795885,1,0.03020536713302135,1,0.003142181783914566,1,-0.001060290727764368,1,0.0001562369288876653,1
1772488685940186624,-0.004290539305657148,1,-0.007377235684543848,1,0.05486616119742393,1,0.00532363448292017,1,-0.001830795546993613,1,2.921963096014224e-05,1
1772488685950696704,-0.001554045360535383,1,-0.01306093577295542,1,0.04190068319439888,1,0.003952240105718374,1,-0.001771849114447832,1,-0.0003868198837153614,1
1772488685961103872,-0.0006798417307436466,1,-0.02370238117873669,1,0.04662332683801651,1,0.00383032881654799,1,-0.001469796057790518,1,-0.0003381238493602723,1
1772488685971408128,-0.001272335997782648,1,-0.0225214920938015,1,0.02202779240906239,1,-0.0003149009717162699,1,0.0001494662719778717,1,-0.0002117266849381849,1
1772488685981613056,-0.005913413129746914,1,-0.01531368773430586,1,0.05232645198702812,1,-0.001762842293828726,1,0.0004503826494328678,1,-0.0001460520579712465,1
1772488685991720960,-0.003401975613087416,1,-0.01617224141955376,1,0.04390604794025421,1,-0.003123737638816237,1,0.0008166533662006259,1,-6.235630280571058e-06,1
1772488686001730048,-0.006856510881334543,1,-0.01309663243591785,1,0.0466083325445652,1,-0.002244906732812524,1,0.00101265893317759,1,0.0002809771103784442,1
1772488686011641856,-0.003953346516937017,1,-0.004856287501752377,1,0.04980611056089401,1,-0.001850790693424642,1,0.0003103971248492599,1,9.442925511393696e-05,1
1772488686021456640,-0.002302539767697453,1,-0.01715519651770592,1,0.04516228288412094,1,-0.0002763739030342549,1,-0.0002320712374057621,1,3.587822720874101e-05,1
1772488686031177216,-0.0001902341464301571,1,-0.01167046558111906,1,0.04577157646417618,1,0.0007489882409572601,1,-0.0003029950312338769,1,-7.288015331141651e-05,1
1772488686040804864,-0.002031133277341723,1,-0.0098503353074193,1,0.05980086326599121,1,0.0006870904471725225,1,-0.000199760906980373,1,-0.000137762792292051,1
1772488686050338304,-0.0005166605114936829,1,-0.01519080251455307,1,0.03375622257590294,1,0.0009396746172569692,1,-4.728910789708607e-05,1,-0.0002628432412166148,1
1772488686059777792,-0.004630986601114273,1,-0.01424237061291933,1,0.05093985050916672,1,0.001160001265816391,1,-0.00059780094306916,1,-0.0003238098288420588,1
1772488686069123072,-0.004511542618274689,1,-0.01315266359597445,1,0.04548121243715286,1,0.0003533840354066342,1,-0.0003388371551409364,1,-0.0001757365826051682,1
1772488686079142400,-0.007359030190855265,1,-0.01923160627484322,1,0.04040364921092987,1,0.0002506774617359042,1,-0.0001556380884721875,1,-0.0001205443113576621,1
1772488686089824768,-0.002296224003657699,1,-0.009759296663105488,1,0.03378334268927574,1,-8.042496483540162e-05,1,0.0002394174225628376,1,-3.587912578950636e-05,1
1772488686100403200,-0.006245162338018417,1,-0.01040564011782408,1,0.03940920531749725,1,0.0003765911096706986,1,-0.0001028745609801263,1,6.78273499943316e-05,1
1772488686110877952,-0.002102328464388847,1,-0.01341762114316225,1,0.03535577654838562,1,0.0008547710604034364,1,-0.0001197618184960447,1,8.311170677188784e-05,1
1772488686121248512,-0.003058126429095864,1,-0.01133833732455969,1,0.03653864562511444,1,0.00144304137211293,1,-0.0002960219862870872,1,0.0002435541828162968,1
1772488686131518464,-0.004443982616066933,1,-0.01138346455991268,1,0.0511147677898407,1,0.001224105595611036,1,-5.385258191381581e-05,1,0.0002140702708857134,1
1772488686141689344,-0.00386277842335403,1,-0.0173730943351984,1,0.0409931018948555,1,0.0001232669601449743,1,0.000158430339070037,1,-2.986545950989239e-05,1
1772488686151758592,-0.003000982105731964,1,-0.01096308790147305,1,0.05004196614027023,1,-5.21937181474641e-05,1,-0.0002185863559134305,1,-4.006746530649252e-05,1
1772488686161729024,-0.0006061421008780599,1,-0.01040553208440542,1,0.05243843048810959,1,0.0002861687680706382,1,-4.792967229150236e-05,1,-0.0001241420541191474,1
1772488686171601664,0.0009537180885672569,1,-0.01332448795437813,1,0.04027596116065979,1,0.0004543832619674504,1,2.957589822472073e-05,1,-0.0002365852560615167,1
1772488686181376000,-0.0003027542843483388,1,-0.006119935307651758,1,0.04493728280067444,1,0.0009572289418429136,1,-0.0002284446673002094,1,-0.0002321045321878046,1
1772488686191054336,0.1137987077236176,1,-0.001288008410483599,1,0.0443463921546936,1,0.001967285992577672,1,-0.000782281975261867,1,-0.001353531377390027,1
1772488686200637696,1.036243557929993,1,-0.1760034710168839,1,0.03033115155994892,1,0.003508792957291007,1,-0.001490650931373239,1,-0.09802736341953278,1
1772488686210127616,0.3301853537559509,1,-0.1584770977497101,1,0.06629244238138199,1,-0.004622273612767458,1,0.0003481858875602484,1,-0.1894969046115875,1
1772488686219523328,0.8602350354194641,1,-0.22767174243927,1,0.06570551544427872,1,-0.01193968392908573,1,0.003744380781427026,1,-0.2584467828273773,1
1772488686228825344,0.7305042743682861,1,-0.3627229332923889,1,0.03627141565084457,1,-0.01477070711553097,1,0.004928415641188622,1,-0.3304880857467651,1
1772488686239282176,0.5438127517700195,1,-0.2554457485675812,1,0.02647107839584351,1,-0.01729791983962059,1,0.005180466920137405,1,-0.3465735614299774,1
1772488686249946624,0.5739104747772217,1,-0.1879468709230423,1,0.03761801496148109,1,-0.01664507761597633,1,0.005336160771548748,1,-0.3234507739543915,1
1772488686260505600,0.328790009021759,1,-0.03085952997207642,1,0.03378187119960785,1,-0.01284916698932648,1,0.00389591883867979,1,-0.2767666280269623,1
1772488686270959616,0.3911672532558441,1,0.01397619768977165,1,0.02584697864949703,1,-0.02502655796706676,1,0.01061222702264786,1,-0.2310869544744492,1
1772488686281312256,0.381588339805603,1,-0.1120473742485046,1,0.03104952536523342,1,-0.00505064707249403,1,0.002203975804150105,1,-0.2063121497631073,1
1772488686291565056,0.2440782189369202,1,-0.0516032800078392,1,0.04514256119728088,1,-0.0206290390342474,1,0.00943522434681654,1,-0.1822388768196106,1
1772488686301716992,0.32767054438591,1,-0.100802019238472,1,0.02968553081154823,1,-0.01551826018840075,1,0.008393513970077038,1,-0.1596102714538574,1
1772488686311768064,0.2770802676677704,1,-0.08345721662044525,1,0.05287780985236168,1,-0.01573946885764599,1,0.008245206438004971,1,-0.1324474960565567,1
1772488686321719296,0.3768049478530884,1,-0.01390480808913708,1,0.0101637365296483,1,-0.009697794914245605,1,0.005760316271334887,1,-0.1040730774402618,1
1772488686331574016,0.2735511362552643,1,-0.05003680288791656,1,0.0464114174246788,1,0.0007915509631857276,1,0.001030776416882873,1,-0.08196720480918884,1
1772488686341330688,0.1183603554964066,1,0.03136551752686501,1,0.0509546622633934,1,-0.00690024858340621,1,0.005400004796683788,1,-0.05666005238890648,1
1772488686350991872,-0.05164480954408646,1,0.1841330677270889,1,0.03590380400419235,1,3.984439535997808e-05,1,0.002472614869475365,1,-0.04452613368630409,1
1772488686360558080,0.01806740462779999,1,0.2416174709796906,1,0.03518160060048103,1,0.007920036092400551,1,-0.001937852473929524,1,-0.03828922286629677,1
1772488686370028800,0.0397670604288578,1,0.1362994164228439,1,0.04060178622603416,1,0.01027886848896742,1,-0.002482448238879442,1,-0.03985263034701347,1
1772488686379406592,0.3906342685222626,1,0.06385266780853271,1,0.05923653021454811,1,0.005779547151178122,1,-0.000842511304654181,1,-0.04759319499135017,1
1772488686388848384,0.2955434918403625,1,-0.002006750553846359,1,0.04094201326370239,1,0.007699025794863701,1,-0.002757312031462789,1,-0.05801748111844063,1
1772488686399595264,0.6378501653671265,1,-0.07291628420352936,1,0.04279755428433418,1,0.006229900754988194,1,-0.001443410874344409,1,-0.06333006918430328,1
1772488686410236928,0.6176080107688904,1,-0.0607403889298439,1,0.04511336982250214,1,0.005319722928106785,1,-0.001371675403788686,1,-0.07913260906934738,1
1772488686420772608,0.5745713114738464,1,-0.01258588954806328,1,0.04222552105784416,1,0.005698558874428272,1,-0.001303084660321474,1,-0.09643042087554932,1
1772488686431205632,0.9171122312545776,1,-0.04424701258540154,1,0.03861865028738976,1,-0.0005732218269258738,1,0.0005608838982880116,1,-0.1301691830158234,1
1772488686441537280,0.2655432522296906,1,-0.1273050010204315,1,0.05308186262845993,1,-0.006617038045078516,1,0.002431262051686645,1,-0.1309036165475845,1
1772488686451769600,0.3119979798793793,1,-0.1056414842605591,1,0.0541437454521656,1,-0.01074529532343149,1,0.004601926542818546,1,-0.09296500682830811,1
1772488686461899520,0.1473715901374817,1,0.01099827233701944,1,0.0313902348279953,1,-0.01127906329929829,1,0.005491469986736774,1,-0.02520168200135231,1
1772488686471929600,0.6016800403594971,1,0.04173362627625465,1,0.01548072230070829,1,0.003883631434291601,1,-0.0003180963103659451,1,0.0312008373439312,1
1772488686481861376,0.606836199760437,1,0.06531770527362823,1,0.05516436696052551,1,-0.001260147662833333,1,0.002734021749347448,1,0.06818078458309174,1
1772488686491694336,0.4280620515346527,1,0.08167894184589386,1,0.03666828945279121,1,0.001181871863082051,1,0.00172475737053901,1,0.08085323870182037,1
1772488686501430272,0.4829494059085846,1,0.02592408657073975,1,0.04351352900266647,1,0.002747671911492944,1,0.002478973474353552,1,0.08671653270721436,1
1772488686511070976,0.6517676115036011,1,-0.03260493278503418,1,0.0377156063914299,1,-0.009689327329397202,1,0.00895386841148138,1,0.08432785421609879,1
1772488686520615680,0.5742145180702209,1,-0.1014977693557739,1,0.0417989119887352,1,-0.001069307676516473,1,0.005312027875334024,1,0.06633114814758301,1
1772488686530067712,0.7481002807617188,1,-0.09145109355449677,1,0.04944782331585884,1,-0.009451801888644695,1,0.008962085470557213,1,0.04282499104738235,1
1772488686539425792,0.750131368637085,1,-0.1304187774658203,1,0.06260588765144348,1,-0.01253960467875004,1,0.01241003628820181,1,0.01982452720403671,1
1772488686549000448,0.4202572107315063,1,-0.2537508010864258,1,0.06592320650815964,1,-0.001383510418236256,1,0.007076023612171412,1,0.01074172928929329,1
1772488686559715072,0.1677505820989609,1,-0.08012963831424713,1,0.05420572683215141,1,-0.002057959558442235,1,0.004804195836186409,1,0.03328218683600426,1
1772488686570326272,0.08774401992559433,1,0.1260079443454742,1,0.04030067473649979,1,0.002652369905263186,1,0.002860803855583072,1,0.06070931255817413,1
1772488686580836864,0.1223388165235519,1,0.2741069495677948,1,0.03642193973064423,1,0.004245886579155922,1,0.002156902104616165,1,0.0801040381193161,1
1772488686591245568,0.5336109399795532,1,0.1219906359910965,1,0.05165876820683479,1,0.002696519484743476,1,0.004435737617313862,1,0.05675211176276207,1
1772488686601553152,0.0911959782242775,1,-0.01348428055644035,1,0.08148434013128281,1,-0.0002295649610459805,1,0.005554432515054941,1,0.03402498736977577,1
1772488686611762176,0.1023465096950531,1,0.02727614343166351,1,0.05249162018299103,1,0.008988866582512856,1,0.002370707923546433,1,0.06131462380290031,1
1772488686621870336,-0.278229832649231,1,0.1051553636789322,1,0.02381539717316628,1,0.01317881420254707,1,-0.001063399948179722,1,0.09423577785491943,1
1772488686631879424,0.01618509367108345,1,0.2160839885473251,1,0.03382326662540436,1,0.01974683813750744,1,-0.004021065309643745,1,0.1228303983807564,1
1772488686641802240,-0.01271313522011042,1,0.2105299085378647,1,0.05645165219902992,1,0.009167790412902832,1,-0.0003428263589739799,1,0.1297451555728912,1
1772488686651633408,0.5150377154350281,1,0.205454409122467,1,0.03488318622112274,1,0.007636919151991606,1,-0.001977008767426014,1,0.09221940487623215,1
1772488686661369088,0.327597051858902,1,-0.0165623351931572,1,0.06045262515544891,1,-0.0005448908777907491,1,0.002999766264110804,1,0.03959076479077339,1
1772488686671009024,0.3006725013256073,1,0.0104302205145359,1,0.04519385099411011,1,0.004103394225239754,1,0.001596722053363919,1,0.0312490239739418,1
1772488686680555264,0.2501909732818604,1,0.04719667881727219,1,0.03562616556882858,1,0.01737338118255138,1,-0.003904727520421147,1,0.03735151886940002,1
1772488686690008064,0.1699718981981277,1,0.1313700824975967,1,0.0243385061621666,1,0.01505822688341141,1,-0.003817231161519885,1,0.06153292953968048,1
1772488686699369984,-0.1111278980970383,1,0.06037203967571259,1,0.04997453093528748,1,0.02423659898340702,1,-0.008392497897148132,1,0.1164892837405205,1
1772488686709396480,0.05453468859195709,1,0.06496774405241013,1,0.02606108039617538,1,0.03518948704004288,1,-0.01382310222834349,1,0.178262934088707,1
1772488686720077312,-0.01868525147438049,1,-0.03168042004108429,1,0.0658763200044632,1,0.02908666245639324,1,-0.01102881878614426,1,0.2151735424995422,1
1772488686730653184,0.1251222789287567,1,-0.07216159254312515,1,0.04921730235219002,1,0.0165748056024313,1,-0.005876571405678988,1,0.1704377979040146,1
1772488686741126144,0.4539502561092377,1,-0.002914413344115019,1,0.04572591930627823,1,0.01082360744476318,1,-0.003139414126053452,1,0.07125063240528107,1
1772488686751495680,0.5322286486625671,1,-0.03072962164878845,1,0.03575458750128746,1,0.01373861636966467,1,-0.00358725618571043,1,-0.05974593013525009,1
1772488686761767168,0.6239883899688721,1,0.08057442307472229,1,0.06963013857603073,1,0.005525573156774044,1,-0.001343620009720325,1,-0.1492658108472824,1
1772488686771943168,0.400189071893692,1,0.01876737549901009,1,0.06658592075109482,1,-0.01158233173191547,1,0.006919857114553452,1,-0.186374694108963,1
1772488686782019584,0.654528796672821,1,0.006582722533494234,1,0.04406742006540298,1,-0.01843775808811188,1,0.01158717460930347,1,-0.1707513928413391,1
1772488686791996928,0.1985963433980942,1,-0.2031220048666,1,0.04369309917092323,1,-0.008910208009183407,1,0.007269115652889013,1,-0.1393331438302994,1
1772488686801878784,0.2298897206783295,1,-0.257368266582489,1,0.03450397029519081,1,0.01149519439786673,1,-0.0002118107804562896,1,-0.1246619299054146,1
1772488686811663104,-0.0708877220749855,1,-0.2616749703884125,1,0.05062857270240784,1,0.02458493784070015,1,-0.00678573502227664,1,-0.1588217318058014,1
1772488686821352448,-0.2930396795272827,1,0.08930203318595886,1,0.06039774417877197,1,0.01206260733306408,1,-0.00165556778665632,1,-0.1429555118083954,1
1772488686830947584,0.0852714478969574,1,0.4365949630737305,1,0.03721541166305542,1,0.004514009226113558,1,0.000639487465377897,1,-0.1359027177095413,1
1772488686840450304,0.3578218221664429,1,0.4079721868038177,1,0.01789539121091366,1,0.002997672650963068,1,-0.000947012915275991,1,-0.1688826233148575,1
1772488686849859072,0.1803298443555832,1,0.3057017028331757,1,0.05205166339874268,1,-0.001163276843726635,1,-0.0009427868644706905,1,-0.1356668025255203,1
1772488686859176192,0.4275898337364197,1,0.3352665603160858,1,0.04377929121255875,1,-0.009213917888700962,1,0.001605217228643596,1,-0.07240652292966843,1
1772488686869630976,0.3875943124294281,1,0.2459991574287415,1,0.03228404745459557,1,-0.00458303838968277,1,0.004071878269314766,1,-0.02309525012969971,1
1772488686880289792,0.442699134349823,1,0.1884353905916214,1,0.02474982850253582,1,0.0013855688739568,1,0.004753230139613152,1,0.004823457915335894,1
1772488686890844160,0.5798987150192261,1,0.2289168834686279,1,0.0315554067492485,1,0.003427284304052591,1,0.005317417439073324,1,-0.01665717735886574,1
1772488686901294848,0.2526468634605408,1,-0.004336684942245483,1,0.05893829092383385,1,0.01076755113899708,1,0.002821942325681448,1,-0.04186371341347694,1
1772488686911642880,0.2769558429718018,1,0.2179287075996399,1,0.05533390119671822,1,0.005686647724360228,1,0.004162940196692944,1,-0.02195768617093563,1
1772488686921890560,0.5770102739334106,1,0.3804233372211456,1,0.02299697138369083,1,0.002755105961114168,1,0.005182865541428328,1,-0.01153184380382299,1
1772488686932037632,0.2484026402235031,1,0.368255615234375,1,0.03052878379821777,1,0.002881439402699471,1,0.005265562329441309,1,-0.0005189217627048492,1
1772488686942083072,0.6583468317985535,1,0.3199402987957001,1,0.05070320516824722,1,0.005918443202972412,1,0.005454536061733961,1,0.03174528852105141,1
1772488686952031488,0.1691656410694122,1,-0.06831485033035278,1,0.03950315713882446,1,-0.00270626088604331,1,0.008439838886260986,1,0.0657462552189827,1
1772488686961880832,0.1625223159790039,1,-0.2899617552757263,1,0.04505306109786034,1,0.0001226224703714252,1,0.008600947447121143,1,0.1391523480415344,1
1772488686971632128,0.4029059410095215,1,-0.4222139418125153,1,0.03181858360767365,1,0.002539374865591526,1,0.007141890935599804,1,0.122520424425602,1
1772488686981288704,0.1367122232913971,1,-0.6083838939666748,1,0.05275488272309303,1,0.005607874598354101,1,0.005320325959473848,1,0.05083523690700531,1
1772488686990849280,0.2211784720420837,1,-0.5455111265182495,1,0.04200165346264839,1,-0.001720508909784257,1,0.009665044955909252,1,-0.0129649993032217,1
1772488687000316672,0.02145667374134064,1,-0.4530070126056671,1,0.03798472136259079,1,0.003087499411776662,1,0.00636358605697751,1,-0.08539144694805145,1
1772488687009690112,-0.3996806144714355,1,-0.2998560070991516,1,0.02203165926039219,1,0.005517089739441872,1,0.003817587858065963,1,-0.1261637210845947,1
1772488687019126528,-0.02896588481962681,1,-0.1894735395908356,1,0.0309050939977169,1,0.005271411966532469,1,0.003615577472373843,1,-0.1627157926559448,1
1772488687029869568,0.1670556962490082,1,-0.1041785851120949,1,0.03061012178659439,1,0.007343632634729147,1,0.00265504838898778,1,-0.1836712658405304,1
1772488687040506112,-0.1367261558771133,1,-0.04642275348305702,1,0.05541742593050003,1,0.006902762223035097,1,0.0001760484301485121,1,-0.1954727917909622,1
1772488687051038208,-0.1130236908793449,1,0.1363715827465057,1,0.03027203306555748,1,0.01038985699415207,1,0.0001343773328699172,1,-0.1466473788022995,1
1772488687061468928,-0.2732484936714172,1,0.01998900808393955,1,0.04543545469641685,1,0.01460777036845684,1,-0.001032220781780779,1,-0.1421369612216949,1
1772488687071795968,-0.2755970656871796,1,0.1854997575283051,1,0.05331426858901978,1,0.005981822498142719,1,0.002354348544031382,1,-0.1058021709322929,1
1772488687082021376,-0.05312512814998627,1,0.2507880032062531,1,0.0598730556666851,1,-0.003685562638565898,1,0.005992103833705187,1,-0.1022324487566948,1
1772488687092146176,0.2158169895410538,1,0.07407095283269882,1,0.0618794709444046,1,6.644782843068242e-05,1,0.004001929424703121,1,-0.1362653225660324,1
1772488687102170624,-0.3652829527854919,1,-0.1278651058673859,1,0.06208323314785957,1,-0.006874626968055964,1,0.005159013438969851,1,-0.1506307423114777,1
1772488687112095488,-0.06447112560272217,1,-0.1445974558591843,1,0.05108854174613953,1,-0.006589439231902361,1,0.005302637815475464,1,-0.1465564221143723,1
1772488687121925120,0.0224112831056118,1,-0.1511932462453842,1,0.05087227746844292,1,-0.002218470675870776,1,0.002879024483263493,1,-0.1470656394958496,1
1772488687131663104,-0.508796751499176,1,-0.2004919648170471,1,0.04900512099266052,1,-0.00230588368140161,1,0.00638858787715435,1,-0.1475229561328888,1
1772488687141304064,-0.3630799055099487,1,0.01927553117275238,1,0.03895829245448112,1,-0.002217489294707775,1,0.006817569024860859,1,-0.1400348544120789,1
1772488687150850048,-0.2303292602300644,1,0.1127567440271378,1,0.04390381276607513,1,-0.001972438767552376,1,0.005346629302948713,1,-0.1201322600245476,1
1772488687160302848,-0.4615556299686432,1,0.01799558475613594,1,0.04061254486441612,1,-0.001852644607424736,1,0.005360607523471117,1,-0.07358269393444061,1
1772488687169662464,-0.2338542342185974,1,0.03498949855566025,1,0.05567006021738052,1,0.002029871102422476,1,0.005663598421961069,1,-0.01514116115868092,1
1772488687179238912,-0.1330311000347137,1,0.07899869233369827,1,0.01852982491254807,1,0.006927798502147198,1,0.003364428412169218,1,0.02266943268477917,1
1772488687189952256,-0.1679610759019852,1,0.0635569840669632,1,0.02986643277108669,1,0.008430490270256996,1,0.001449654344469309,1,0.03644109889864922,1
1772488687200560896,-0.06494314968585968,1,0.1791290640830994,1,0.04020205140113831,1,0.0058095115236938,1,0.001380544854328036,1,0.06993965059518814,1
1772488687211066880,0.1641883254051208,1,0.1718818247318268,1,0.03505732491612434,1,-0.0005561209982261062,1,0.004107706248760223,1,0.05216743424534798,1
1772488687221473280,-0.5485050082206726,1,0.007086234167218208,1,0.07386858761310577,1,-0.0008579694549553096,1,0.003386669792234898,1,0.09211674332618713,1
1772488687231780864,-0.04753021895885468,1,0.09079258143901825,1,0.03234237059950829,1,-0.003286817111074924,1,0.005741168279200792,1,0.1353323012590408,1
1772488687241988352,-0.2353594899177551,1,-0.06176198646426201,1,0.02911759540438652,1,-0.002550053410232067,1,0.005461868364363909,1,0.1397178918123245,1
1772488687252096256,-0.3533611297607422,1,-0.07338757812976837,1,0.04395589232444763,1,-0.005934564396739006,1,0.00288312928751111,1,0.1594114452600479,1
1772488687262106112,-0.4821648895740509,1,-0.06689366698265076,1,0.03639675304293633,1,0.005986192263662815,1,0.0002231584803666919,1,0.1745964586734772,1
1772488687272018432,-0.08923780173063278,1,0.04089469835162163,1,0.01656018011271954,1,0.0107768177986145,1,-0.0002396899944869801,1,0.2212252914905548,1
1772488687281835008,0.07497619092464447,1,0.04072627797722816,1,0.03483855351805687,1,0.007082979660481215,1,0.002370636910200119,1,0.219043493270874,1
1772488687291557376,0.1598593145608902,1,-0.1227461025118828,1,0.05909990891814232,1,0.004507767967879772,1,0.00364128639921546,1,0.1950475573539734,1
1772488687301186048,0.2637200653553009,1,-0.1626438647508621,1,0.06838803738355637,1,-0.0007522344822064042,1,0.005013743881136179,1,0.1674566268920898,1
1772488687310720512,0.4957381784915924,1,-0.07677394896745682,1,0.03988496586680412,1,-0.003967574331909418,1,0.005810994654893875,1,0.1572702378034592,1
1772488687320161536,0.701670229434967,1,-0.3384306132793427,1,0.01685718074440956,1,0.001200729748234153,1,0.004202273674309254,1,0.1212525814771652,1
1772488687329518080,0.5532528162002563,1,-0.4899172484874725,1,0.02292809635400772,1,0.008477595634758472,1,0.001782123115845025,1,0.1041159257292747,1
1772488687339547904,0.8046298623085022,1,-0.3998090624809265,1,0.05993308499455452,1,0.006747821811586618,1,0.003656566143035889,1,0.08462368696928024,1
1772488687350226432,0.6508749127388,1,-0.360971987247467,1,0.05150452628731728,1,0.006627390626817942,1,0.004545609932392836,1,0.06732131540775299,1
1772488687360801536,-0.06787919998168945,1,-0.2801789939403534,1,0.05428406223654747,1,0.007472789846360683,1,0.005626744590699673,1,0.09389859437942505,1
1772488687371275776,0.3099340498447418,1,-0.05245555192232132,1,0.05300658941268921,1,0.002168555278331041,1,0.00630885548889637,1,0.1324973106384277,1
1772488687381648384,-0.1035900786519051,1,-0.1389112919569016,1,0.02674056589603424,1,-0.002647189656272531,1,0.006388389505445957,1,0.1476750522851944,1
1772488687391918592,0.09911587834358215,1,-0.1214216649532318,1,0.01608102768659592,1,0.003503668587654829,1,0.006519975140690804,1,0.1141721978783607,1
1772488687402090240,0.05701564624905586,1,0.05640076100826263,1,0.0511399507522583,1,0.002422669669613242,1,0.006953615695238113,1,0.05886334553360939,1
1772488687412172288,0.04571811109781265,1,0.2748208045959473,1,0.01684106700122356,1,0.005378867499530315,1,0.005181760061532259,1,0.008765826001763344,1
1772488687422156800,0.08693285286426544,1,0.345412403345108,1,0.0523003488779068,1,0.008831629529595375,1,0.000386697705835104,1,-0.00247376412153244,1
1772488687432044544,0.2717412710189819,1,0.2420063614845276,1,0.03652989119291306,1,0.006686082575470209,1,0.0007578698568977416,1,5.256559234112501e-05,1
1772488687441837056,0.3456960022449493,1,0.2235644161701202,1,0.04722870886325836,1,0.0136941485106945,1,-0.002839748747646809,1,0.01397919096052647,1
1772488687451534336,0.001967849209904671,1,0.2675299346446991,1,0.02775219827890396,1,0.01009585615247488,1,0.0002402545796940103,1,-0.001160938758403063,1
1772488687461136640,0.1919243186712265,1,0.3136439919471741,1,0.05813004821538925,1,0.007603888865560293,1,-0.0007661819690838456,1,-0.01245401706546545,1
1772488687470646784,-0.04792081937193871,1,0.1749711632728577,1,0.03526751697063446,1,0.003729483811184764,1,-0.0005901282420381904,1,-0.04366868361830711,1
1772488687480065536,-0.08735561370849609,1,0.17618228495121,1,0.0340452715754509,1,-0.002654350828379393,1,0.0008157525444403291,1,-0.03503189608454704,1
1772488687489392640,-0.3313318490982056,1,0.1962348222732544,1,0.04008134827017784,1,0.003714344929903746,1,-0.001847224310040474,1,-0.01658827811479568,1
1772488687499845888,0.1167986616492271,1,0.2270971685647964,1,0.04206711053848267,1,-0.002519929315894842,1,0.00416019931435585,1,-0.06763574481010437,1
1772488687510500608,-0.0812826007604599,1,0.2976804077625275,1,0.06479538232088089,1,-0.004665480460971594,1,0.007558183744549751,1,-0.1316177845001221,1
1772488687521050112,-0.2434761375188828,1,0.4122141599655151,1,0.03732069209218025,1,-0.005928173661231995,1,0.006411375477910042,1,-0.1639584451913834,1
1772488687531497728,-0.1199350729584694,1,0.4437438249588013,1,0.03335057571530342,1,-0.003131469944491982,1,0.004766643512994051,1,-0.1428043693304062,1
1772488687541842688,-0.1068530678749084,1,0.5711995959281921,1,0.01748970523476601,1,-0.004207916557788849,1,0.005448488518595695,1,-0.05831632763147354,1
1772488687552085248,0.01940875500440598,1,0.3601709604263306,1,0.01029179338365793,1,0.001502738799899817,1,0.004885517526417971,1,-0.04522804170846939,1
1772488687562227456,-0.3614308536052704,1,0.02637864649295807,1,0.03979091346263885,1,0.002029283437877893,1,0.003089310368523002,1,-0.03406380861997604,1
1772488687572268800,-0.04153956100344658,1,0.06615637242794037,1,0.04215485602617264,1,-0.004583762027323246,1,0.007139869499951601,1,-0.0359959751367569,1
1772488687582210304,-0.2241228073835373,1,-0.01338079106062651,1,0.04462166130542755,1,0.002227962715551257,1,0.005309885833412409,1,-0.0132598364725709,1
1772488687592054784,0.08830846846103668,1,0.1411725878715515,1,0.01479725725948811,1,0.003566395258530974,1,0.007202072534710169,1,0.05241209268569946,1
1772488687601805312,0.2015752047300339,1,0.1289320886135101,1,0.03464366868138313,1,0.00733937555924058,1,0.007661866024136543,1,0.005078948568552732,1
1772488687611462912,-0.2694408595561981,1,-0.04077687487006187,1,0.06423939764499664,1,0.005406184587627649,1,0.007088560611009598,1,-0.01432798244059086,1
1772488687621025536,0.3167876601219177,1,0.2388049811124802,1,0.03209725767374039,1,0.005011884961277246,1,0.005888495128601789,1,0.01492085866630077,1
1772488687630494976,-0.2027768343687057,1,0.07348788529634476,1,0.04521804302930832,1,0.01075365580618382,1,0.002955771051347256,1,0.02563892304897308,1
1772488687639871744,-0.02873535454273224,1,0.1218576654791832,1,0.05578719079494476,1,0.005256525240838528,1,0.003499730722978711,1,0.08103600889444351,1
1772488687649313536,-0.04036004096269608,1,0.04542629793286324,1,0.04931724071502686,1,0.003938917070627213,1,0.003720223205164075,1,0.06984233856201172,1
1772488687660052992,0.2130317240953445,1,0.04344731941819191,1,0.04170413315296173,1,-0.0004622317501343787,1,0.00468688877299428,1,0.06215676665306091,1
1772488687670687744,-0.5344511270523071,1,-0.2113868594169617,1,0.04698054865002632,1,-0.0003997261519543827,1,0.003847079118713737,1,0.06344722956418991,1
1772488687681216768,-0.5029120445251465,1,-0.2061729282140732,1,0.0454690158367157,1,-0.005470590200275183,1,0.005807125940918922,1,0.08908599615097046,1
1772488687691641856,0.04350686073303223,1,-0.2349590510129929,1,0.03494703024625778,1,-0.0008069486357271671,1,0.002627601148560643,1,0.05798311159014702,1
1772488687701967616,-0.6357123851776123,1,-0.466657280921936,1,0.04403157159686089,1,-0.002507308963686228,1,1.527008134871721e-05,1,0.009859729558229446,1
1772488687712194816,-0.2356007248163223,1,-0.3186469078063965,1,0.03546882048249245,1,-0.002601900836452842,1,-5.967018660157919e-05,1,-0.03009981662034988,1
1772488687722323200,-0.1289883702993393,1,-0.01915465667843819,1,0.03788807243108749,1,0.00466195261105895,1,-0.0009590656845830381,1,-0.06102439761161804,1
1772488687732350720,-0.3045165836811066,1,0.1835711449384689,1,0.05289560928940773,1,0.008080639876425266,1,0.000904481450561434,1,-0.04731069132685661,1
1772488687742279168,-0.3720523715019226,1,0.2718168795108795,1,0.03807824850082397,1,0.00562400184571743,1,0.002794800559058785,1,0.02182038500905037,1
1772488687752110848,-0.2421639561653137,1,0.3027099370956421,1,0.02267481572926044,1,0.004203156102448702,1,0.005275774747133255,1,0.04790854454040527,1
1772488687761844736,-0.3243589103221893,1,0.08097223192453384,1,0.05671824887394905,1,0.003123817034065723,1,0.005780915264040232,1,0.07004658132791519,1
1772488687771483904,-0.09498261660337448,1,-0.02715716511011124,1,0.04022344574332237,1,-0.0006851075449958444,1,0.006953911390155554,1,0.06443433463573456,1
1772488687781027584,-0.1926583498716354,1,-0.2682754099369049,1,0.0234923642128706,1,0.004660952836275101,1,0.004619685932993889,1,-0.01281104795634747,1
1772488687790476032,-3.132596611976624e-05,1,-0.3180818557739258,1,0.05202867835760117,1,0.008225766941905022,1,0.003101958660408854,1,-0.1086449772119522,1
1772488687799831040,-0.5755059123039246,1,-0.2924483418464661,1,0.05030950531363487,1,0.006298885680735111,1,0.003721941262483597,1,-0.14310622215271,1
1772488687809403904,-0.1822310984134674,1,0.0128146093338728,1,0.03740806877613068,1,0.007760177366435528,1,0.002793298335745931,1,-0.1011993810534477,1
1772488687820113408,-0.6581276059150696,1,-0.1290668696165085,1,0.06216293573379517,1,0.0006462697056122124,1,0.004984976723790169,1,-0.06596492975950241,1
1772488687830717184,-0.02798265218734741,1,-0.02747203223407269,1,0.05037514120340347,1,-0.005687002092599869,1,0.005574608221650124,1,-0.004087283276021481,1
1772488687841217792,-0.3001551330089569,1,-0.226790264248848,1,0.04167476668953896,1,-0.0006566241499967873,1,0.003177459584549069,1,0.004040339030325413,1
1772488687851616000,-0.2460783123970032,1,-0.1869174540042877,1,0.02679609879851341,1,0.002934745978564024,1,0.001803342718631029,1,0.01730820536613464,1
1772488687861912832,-0.5647550821304321,1,-0.2715227901935577,1,0.05859601870179176,1,-0.0006232419982552528,1,0.003349907696247101,1,0.03356153145432472,1
1772488687872108544,-0.06354430317878723,1,-0.1350958347320557,1,0.02730953134596348,1,-0.002742485608905554,1,0.005103079602122307,1,0.04860477522015572,1
1772488687882204416,-0.1203155666589737,1,-0.04528418928384781,1,0.0435449443757534,1,-0.001937879133038223,1,0.004252319689840078,1,0.07829739898443222,1
1772488687892200192,0.112831674516201,1,0.101343497633934,1,0.03250927478075027,1,0.002102905185893178,1,0.002999989315867424,1,0.06690328568220139,1
1772488687902097664,-0.1708309650421143,1,-0.122441790997982,1,0.04685800522565842,1,0.00590565288439393,1,0.001775108277797699,1,0.02502213604748249,1
1772488687911899136,-0.06868134438991547,1,-0.1283408552408218,1,0.02932546846568584,1,-0.001199354999698699,1,0.005997484549880028,1,0.02489392459392548,1
1772488687921604352,0.1408302485942841,1,-0.08909717947244644,1,0.0219055712223053,1,0.002887311624363065,1,0.002861819230020046,1,0.02143455110490322,1
1772488687931213312,0.07893773168325424,1,-0.1031556129455566,1,0.05277733504772186,1,-0.001681070891208947,1,0.001382814953103662,1,0.04474689811468124,1
1772488687940726272,-0.05486955493688583,1,-0.1584929674863815,1,0.04261858388781548,1,-0.002924170345067978,1,-0.0005803861422464252,1,0.03986402601003647,1
1772488687950146816,0.3757157027721405,1,-0.08545825630426407,1,0.03125704824924469,1,0.0004724584287032485,1,-0.00211642705835402,1,0.01805920898914337,1
1772488687959474176,-0.06227897107601166,1,-0.1622089594602585,1,0.04300733655691147,1,-0.004171270411461592,1,0.001813910552300513,1,0.02075664140284061,1
1772488687969484800,-0.120910681784153,1,-0.08403679728507996,1,0.04540998861193657,1,-0.003039035946130753,1,0.002338646212592721,1,0.0650278702378273,1
1772488687980162304,-0.02502280473709106,1,-0.03351065143942833,1,0.04750468954443932,1,-0.003548443084582686,1,0.003171630669385195,1,0.07980075478553772,1
1772488687990735104,0.2031280398368835,1,0.003380553796887398,1,0.03830508142709732,1,-0.002689799061045051,1,0.003085406962782145,1,0.09535254538059235,1
1772488688001204736,0.296946793794632,1,-0.1410412639379501,1,0.03071215935051441,1,-0.003349746577441692,1,0.005608544684946537,1,0.08970202505588531,1
1772488688011573760,0.2083698511123657,1,-0.07646177709102631,1,0.04212590679526329,1,0.004062676802277565,1,0.00427983095869422,1,0.1250201612710953,1
1772488688021844224,0.4131746292114258,1,0.1021062731742859,1,0.0540497824549675,1,0.006618201266974211,1,0.005083932541310787,1,0.1528783142566681,1
1772488688032014848,0.3387153744697571,1,0.05225371569395065,1,0.04824527725577354,1,0.002664824947714806,1,0.007323045749217272,1,0.180218979716301,1
1772488688042087680,0.3180154263973236,1,-0.02317484095692635,1,0.03373267129063606,1,0.00384169421158731,1,0.005583285819739103,1,0.189928263425827,1
1772488688052062208,0.227220892906189,1,0.09236489236354828,1,0.06113383919000626,1,-0.006510395556688309,1,0.008937744423747063,1,0.2706643044948578,1
1772488688061942272,0.2975788712501526,1,0.03224488347768784,1,0.03947879374027252,1,-0.007895204238593578,1,0.007904155179858208,1,0.3369979858398438,1
1772488688071725312,0.04683246836066246,1,-0.07539684325456619,1,0.04394913464784622,1,-0.00598481297492981,1,0.005671232473105192,1,0.4078665375709534,1
1772488688081412096,-0.03571929037570953,1,-0.06704361736774445,1,0.05220469459891319,1,-0.005968627985566854,1,0.003942342475056648,1,0.4621939957141876,1
1772488688091004928,0.3335980772972107,1,0.01416331622749567,1,0.02310696803033352,1,-0.005864626262336969,1,0.003604896599426866,1,0.4598278403282166,1
1772488688100502272,0.1514768153429031,1,-0.2214900255203247,1,0.05429627746343613,1,-0.008070656098425388,1,0.004181882832199335,1,0.3823367357254028,1
1772488688109907456,0.2891790866851807,1,-0.193604439496994,1,0.05244880169630051,1,-0.006366255693137646,1,0.006379501894116402,1,0.3073806166648865,1
1772488688119221248,0.6882486939430237,1,-0.01027648709714413,1,0.03045537509024143,1,0.0002362887607887387,1,0.002373660448938608,1,0.2752490937709808,1
1772488688129673472,0.09589594602584839,1,0.05774825811386108,1,0.05443975329399109,1,2.535290150262881e-05,1,0.004375425633043051,1,0.3056177496910095,1
1772488688140329728,0.0492350161075592,1,0.2059355527162552,1,0.03787557780742645,1,-0.0004044750239700079,1,0.004995814990252256,1,0.3426084220409393,1
1772488688150880768,0.4696835577487946,1,0.2233681678771973,1,0.001123006455600262,1,0.002194554777815938,1,0.006433093454688787,1,0.3619892299175262,1
1772488688161328896,-0.1334756016731262,1,-0.09881433844566345,1,0.02615535259246826,1,0.008279424160718918,1,0.002234389772638679,1,0.395204484462738,1
1772488688171674368,0.2512099742889404,1,0.09405091404914856,1,0.04404711350798607,1,0.003251105081290007,1,0.002991897286847234,1,0.4920462369918823,1
1772488688181918976,0.3301657438278198,1,-0.2279639691114426,1,0.03927268460392952,1,0.003327394369989634,1,0.003417112631723285,1,0.5248396396636963,1
1772488688192063744,-0.1653395146131516,1,-0.2269913852214813,1,0.05981487035751343,1,0.002340164268389344,1,0.005570283159613609,1,0.5778743624687195,1
1772488688202106880,0.2893272340297699,1,0.04104479774832726,1,0.05951933935284615,1,0.001636030501686037,1,0.006291111931204796,1,0.5848131775856018,1
1772488688212052736,-0.4907699227333069,1,0.3144875466823578,1,0.04868216812610626,1,-0.005248145200312138,1,0.008193586021661758,1,0.5724209547042847,1
1772488688221899520,0.07700438797473907,1,0.782964825630188,1,0.03655897453427315,1,-0.004113021306693554,1,0.007488812785595655,1,0.5751444697380066,1
1772488688231648256,0.4225335717201233,1,0.6297470331192017,1,0.01510625705122948,1,-0.001554063986986876,1,0.004398640710860491,1,0.5035281777381897,1
1772488688241302016,0.1412850469350815,1,0.3510372340679169,1,0.04766614735126495,1,0.00102247076574713,1,0.004094312433153391,1,0.4932859838008881,1
1772488688250860544,0.3480367064476013,1,0.3119011223316193,1,0.04161566123366356,1,2.017227961914614e-05,1,0.006373342592269182,1,0.5333057045936584,1
1772488688260323584,0.5964478254318237,1,-0.0188995748758316,1,0.08562523871660233,1,-0.0007240129634737968,1,0.007547174580395222,1,0.5881454348564148,1
1772488688269695232,0.1542181074619293,1,-0.4012949466705322,1,0.02079707570374012,1,-0.008303931914269924,1,0.01152907218784094,1,0.6866074204444885,1
1772488688279129600,0.294200211763382,1,-0.2275412678718567,1,0.03040378913283348,1,-0.00197376380674541,1,0.007736168801784515,1,0.7863094210624695,1
1772488688289869568,-0.721531867980957,1,0.01782287284731865,1,0.05382093414664268,1,-0.003292490961030126,1,0.007191230077296495,1,0.8509644269943237,1
1772488688300504064,-0.4024366140365601,1,0.2463855892419815,1,0.03900021314620972,1,-0.0001030908315442502,1,0.007066526915878057,1,0.8842814564704895,1
1772488688311032832,0.4726910889148712,1,0.2693486511707306,1,0.06893941760063171,1,0.001285227946937084,1,0.008690515533089638,1,0.908842146396637,1
1772488688321460224,-0.07846544682979584,1,0.1299827694892883,1,0.01572549901902676,1,0.002113476395606995,1,0.01030279695987701,1,0.9851451516151428,1
1772488688331784704,-0.6594957113265991,1,0.2879764437675476,1,0.0509847067296505,1,0.0002134877722710371,1,0.01080708764493465,1,1.12559700012207,1
