Time,inertial-6286.188861:estLinearAccelZ,inertial-6286.188861:estLinearAccelZ:valid,inertial-6286.188861:estLinearAccelX,inertial-6286.188861:estLinearAccelX:valid,inertial-6286.188861:estLinearAccelY,inertial-6286.188861:estLinearAccelY:valid
1770928248554142720,0.03717613965272903,1,0.004059072583913803,1,0.0130560053512454,1
1770928248654106624,0.04512982442975044,1,-7.117609493434429e-05,1,-0.001095059560611844,1
1770928248754093568,0.04238897934556007,1,0.001166678499430418,1,0.0100896954536438,1
1770928248854158080,0.03755279630422592,1,-0.000151580898091197,1,0.00788035336881876,1
1770928248954145536,0.048150684684515,1,-0.001657274551689625,1,0.00244416669011116,1
1770928249054106112,0.03393521904945374,1,0.003143289592117071,1,0.001046600285917521,1
1770928249154170880,0.03791576996445656,1,0.0003320739488117397,1,-0.001885516801849008,1
1770928249254209792,0.03949622437357903,1,0.0003573998110368848,1,-0.001109943725168705,1
1770928249354156800,0.03659612312912941,1,-0.0003443171735852957,1,0.009094974026083946,1
1770928249454196992,0.04885310307145119,1,0.003196856938302517,1,0.007398887071758509,1
1770928249554190848,0.04117457568645477,1,0.003761649131774902,1,0.008954083546996117,1
1770928249654220544,0.036209587007761,1,0.002668452681973577,1,0.001392762758769095,1
1770928249754307584,0.03626755997538567,1,0.005107489414513111,1,0.001723421970382333,1
1770928249854283776,0.04464566707611084,1,0.002167887752875686,1,0.003352114697918296,1
1770928249954247424,0.03853656351566315,1,0.00613702367991209,1,-0.001471810159273446,1
1770928250054278400,0.04110202193260193,1,0.003333341330289841,1,0.002652326133102179,1
1770928250154245120,0.04511118307709694,1,0.001501600607298315,1,-0.002897213911637664,1
1770928250254221312,0.0416671447455883,1,0.004764101933687925,1,0.004001840949058533,1
1770928250354284800,0.04356104880571365,1,-0.002048170892521739,1,0.007762051653116941,1
1770928250454244608,0.04378005489706993,1,-0.001800029771402478,1,0.004640395287424326,1
1770928250554211584,0.03751986473798752,1,0.007516713812947273,1,0.002913853153586388,1
1770928250654279424,0.04699553176760674,1,-0.006479076575487852,1,0.008045642636716366,1
1770928250754300672,0.03547372296452522,1,-0.0007373162661679089,1,0.004132354632019997,1
1770928250854317056,0.04600698500871658,1,-0.003189954441040754,1,0.005485924892127514,1
1770928250954347776,0.04152617231011391,1,-0.001323834527283907,1,0.008415220305323601,1
1770928251054315776,0.03866581618785858,1,0.00452037388458848,1,0.006864572875201702,1
1770928251154294272,0.04390899837017059,1,0.0002457920927554369,1,0.001128401490859687,1
1770928251254327808,0.04585859924554825,1,0.002133389236405492,1,0.006041333544999361,1
1770928251354301440,0.03972689062356949,1,-0.00102915323805064,1,0.007625506725162268,1
1770928251454254080,0.05173574015498161,1,-0.0009591883281245828,1,0.01486230455338955,1
1770928251554315520,0.03824857249855995,1,0.003265978069975972,1,-0.008122071623802185,1
1770928251654290432,0.04608264192938805,1,0.004173202440142632,1,0.01154632307589054,1
1770928251754255104,0.04120499268174171,1,0.003682314651086926,1,-0.006771594285964966,1
1770928251854416128,0.04470030218362808,1,0.00298414914868772,1,0.003356586443260312,1
1770928251954721024,0.03824489563703537,1,-0.0001694930251687765,1,-0.004655066877603531,1
1770928252054716160,0.0339629091322422,1,0.004518604371696711,1,0.01230645086616278,1
1770928252154743552,0.03806880861520767,1,0.00174119439907372,1,0.003453242592513561,1
1770928252254704128,0.04312155768275261,1,0.001408375333994627,1,0.0159405879676342,1
1770928252354658816,0.04392805323004723,1,0.003541687503457069,1,0.006397606339305639,1
1770928252454684928,0.03780535236001015,1,0.005117831751704216,1,-0.002857818733900785,1
1770928252554644992,0.03594483807682991,1,0.00357510126195848,1,0.005254895891994238,1
1770928252654595840,0.03759784251451492,1,-0.0002419284719508141,1,0.01076382398605347,1
1770928252754622208,0.04260952398180962,1,0.001588927581906319,1,0.003091737162321806,1
1770928252854596864,0.04412590339779854,1,-0.001351690152660012,1,0.002462754724547267,1
1770928252954569472,0.03928784281015396,1,0.002728846156969666,1,0.004702161997556686,1
1770928253054595328,0.03894516453146935,1,0.003012237139046192,1,0.003228345420211554,1
1770928253154563072,0.04060177877545357,1,-0.002506524324417114,1,0.003983668982982635,1
1770928253254520064,0.04210997372865677,1,0.001767227775417268,1,0.002591285854578018,1
1770928253354582016,0.03096196055412292,1,0.001025444595143199,1,0.001899163471534848,1
1770928253454554112,0.03315109387040138,1,0.0009578889585100114,1,-0.0001525217085145414,1
1770928253554504960,0.0339524932205677,1,0.003311337670311332,1,0.006280922796577215,1
1770928253654531840,0.04270701855421066,1,0.004704817198216915,1,0.002601167419925332,1
1770928253754488320,0.03896848857402802,1,-0.001833737827837467,1,0.002843705005943775,1
1770928253854448128,0.03114644810557365,1,0.001508595538325608,1,0.001027535763569176,1
1770928253954507008,0.0446326844394207,1,0.0007177575607784092,1,6.930597010068595e-05,1
1770928254054475776,0.03803354874253273,1,0.0003003967576660216,1,0.002844633301720023,1
1770928254154425600,0.03865016251802444,1,-0.002330907620489597,1,0.001428194693289697,1
1770928254254493440,0.04403470456600189,1,0.002698526252061129,1,-0.00542198121547699,1
1770928254354451456,0.04433628544211388,1,0.005276985932141542,1,0.00335249793715775,1
1770928254454414848,0.04260113835334778,1,0.005031142849475145,1,0.01053939294070005,1
1770928254554469376,0.03809456527233124,1,0.003817558288574219,1,-0.000767922552768141,1
1770928254654461184,0.04115857556462288,1,0.006337505765259266,1,0.001901747542433441,1
1770928254754434304,0.04182495921850204,1,0.001310888677835464,1,-0.0002263272181153297,1
1770928254854474240,0.0386401005089283,1,0.003232191083952785,1,0.004093283787369728,1
1770928254954448128,0.04182884842157364,1,0.0003734802012331784,1,0.007836887612938881,1
1770928255054393088,0.04014492034912109,1,0.002270313911139965,1,0.005730451550334692,1
1770928255154422784,0.03701280802488327,1,0.002144951606169343,1,-0.0002935954835265875,1
1770928255254383360,0.04532067850232124,1,0.001108106109313667,1,0.004620729945600033,1
1770928255354360832,0.04046757146716118,1,-0.003541941754519939,1,0.001645036623813212,1
1770928255454408192,0.04048081114888191,1,-0.00300175603479147,1,0.006950576324015856,1
1770928255554379264,0.04457223787903786,1,-0.003122216323390603,1,0.001337772700935602,1
1770928255654372352,0.04266325384378433,1,0.003424917114898562,1,0.0007321829325519502,1
1770928255754398208,0.04154304414987564,1,0.004397214855998755,1,0.004872806835919619,1
1770928255854357248,0.04083549603819847,1,0.001222929218783975,1,0.01069433707743883,1
1770928255954304512,0.04012230411171913,1,0.004496644251048565,1,0.007014777045696974,1
1770928256054328832,0.04776296392083168,1,-0.005234436132013798,1,0.007790935691446066,1
1770928256154295040,0.04141606763005257,1,0.005652473773807287,1,0.004578362684696913,1
1770928256254243840,0.04597616568207741,1,0.004384919069707394,1,0.005723312497138977,1
1770928256354270208,0.04196075722575188,1,-0.005420025903731585,1,0.002773379907011986,1
1770928256454280704,0.03895977139472961,1,0.001113635022193193,1,0.001817211625166237,1
1770928256554248192,0.03239640593528748,1,0.004296113736927509,1,0.00748215988278389,1
1770928256654283264,0.04896698147058487,1,0.003915205132216215,1,-0.006640395615249872,1
1770928256754281728,0.03210365399718285,1,0.002557739149779081,1,0.01481274049729109,1
1770928256854264320,0.04134374111890793,1,0.0008732327260077,1,0.001922815688885748,1
1770928256954299648,0.04072532057762146,1,-0.0003067604266107082,1,0.004205548204481602,1
1770928257054291200,0.04183511808514595,1,0.001555510913021863,1,0.005498934537172318,1
1770928257154241792,0.03624594211578369,1,0.003577744588255882,1,0.006200950592756271,1
1770928257254290176,0.04022050648927689,1,-0.001588021405041218,1,0.0006820037378929555,1
1770928257354252800,0.03990008309483528,1,-0.002493822481483221,1,0.005524775013327599,1
1770928257454230784,0.03908826038241386,1,-0.001657834742218256,1,0.003037838265299797,1
1770928257554274560,0.04149121418595314,1,-0.000116682262159884,1,0.01031530182808638,1
1770928257654239744,0.04085201770067215,1,0.004197673406451941,1,-0.0005170736694708467,1
1770928257754225408,0.04641652852296829,1,0.006186373997479677,1,0.0002624100307002664,1
1770928257854255360,0.04571833461523056,1,-0.0005101201822981238,1,0.005279611330479383,1
1770928257954215680,0.03456945344805717,1,0.001699621556326747,1,-0.003121493384242058,1
1770928258054174976,0.04273539781570435,1,0.0003652607556432486,1,0.004893431905657053,1
1770928258154206464,0.04450957849621773,1,0.002095228992402554,1,0.006589038297533989,1
1770928258254192128,0.03280327096581459,1,-0.0009994278661906719,1,0.006045701913535595,1
1770928258354149376,0.0356421209871769,1,0.002460453659296036,1,0.003453698009252548,1
1770928258454209024,0.04418876767158508,1,-0.004205225501209497,1,0.006207275670021772,1
1770928258554195456,0.0474570021033287,1,0.001681815949268639,1,0.00684669241309166,1
1770928258654169600,0.03646747022867203,1,0.002503332681953907,1,0.003584861056879163,1
1770928258754229248,0.04069619625806808,1,0.005691471509635448,1,0.004169333726167679,1
1770928258854247936,0.04371219128370285,1,0.005625844933092594,1,0.007030056323856115,1
1770928258954215936,0.03921275213360786,1,0.002568484051153064,1,0.004998334217816591,1
1770928259054270976,0.04196784645318985,1,0.004943595733493567,1,0.003019683063030243,1
1770928259154228992,0.03455246239900589,1,0.004171842709183693,1,0.008543099276721478,1
1770928259254192384,0.04809747636318207,1,0.0003284459235146642,1,0.004947381559759378,1
1770928259354250240,0.0377744659781456,1,-0.001112462836317718,1,-0.0003877430572174489,1
1770928259454214400,0.04284225404262543,1,0.004064329899847507,1,-0.005036911927163601,1
1770928259554169088,0.04068513959646225,1,0.0003665625117719173,1,0.004256017971783876,1
1770928259654262272,0.04314860701560974,1,0.002271820325404406,1,0.002175785833969712,1
1770928259754272768,0.03583903610706329,1,-0.001983400667086244,1,0.006450608372688293,1
1770928259854227712,0.03795182704925537,1,-0.0002563194138929248,1,0.003860428230836987,1
1770928259954255360,0.0458836555480957,1,0.0008125558961182833,1,0.005735640879720449,1
1770928260054236672,0.04425466805696487,1,9.363022400066257e-05,1,0.001113042933866382,1
1770928260154184192,0.03663164749741554,1,0.001000454183667898,1,0.004204622469842434,1
1770928260254224128,0.03901612386107445,1,-0.004885549191385508,1,6.602448411285877e-05,1
1770928260354186496,0.03847960010170937,1,-0.001663078553974628,1,0.006924528162926435,1
1770928260454132480,0.04036958515644073,1,-0.0001337227586191148,1,0.006186452228575945,1
1770928260554173696,0.03550568968057632,1,-0.00416462542489171,1,0.00610577454790473,1
1770928260654169344,0.03754414245486259,1,-0.0007104328251443803,1,-0.0007104625692591071,1
1770928260754145536,0.04389562457799911,1,-0.001203790074214339,1,0.007582401856780052,1
1770928260854175744,0.046125877648592,1,-2.54844781011343e-06,1,0.006323931273072958,1
1770928260954138368,0.04332134500145912,1,-0.002705357503145933,1,0.006119020283222198,1
1770928261054111488,0.04480189457535744,1,0.005283945240080357,1,0.005882527213543653,1
1770928261154142464,0.03981171920895576,1,-0.004285750444978476,1,0.001135580940172076,1
1770928261254106624,0.04032093659043312,1,0.0009730634046718478,1,0.005686882883310318,1
1770928261354081280,0.03892210498452187,1,0.002764878328889608,1,0.007050959393382072,1
1770928261454134528,0.04170244187116623,1,0.0009255586192011833,1,0.001228462904691696,1
1770928261554095872,0.0395786426961422,1,-0.0001174468634417281,1,0.003562007797881961,1
1770928261654047744,0.03926282003521919,1,-0.002460178453475237,1,0.0009788279421627522,1
1770928261754096128,0.03716868534684181,1,0.002779662143439054,1,0.003395756706595421,1
1770928261854091776,0.04507420212030411,1,-0.0014906523283571,1,0.001018392737023532,1
1770928261954066944,0.04580199718475342,1,0.001486125751398504,1,0.004339446313679218,1
1770928262054151936,0.04318952187895775,1,-0.0002887198934331536,1,-0.002597156446427107,1
1770928262154135808,0.0382256843149662,1,-0.0001119598746299744,1,0.01128417812287807,1
1770928262254109440,0.04042163491249084,1,0.001138898660428822,1,-0.00428071990609169,1
1770928262354162688,0.04240467399358749,1,0.001735965255647898,1,0.004142120946198702,1
1770928262454138112,0.04360194131731987,1,-0.003450363408774137,1,0.005858457181602716,1
1770928262554089984,0.04378962144255638,1,-0.0006270711310207844,1,0.004274568986147642,1
1770928262654125824,0.04351300001144409,1,0.004502078518271446,1,0.00574560696259141,1
1770928262754127616,0.04214071482419968,1,-0.0009580852347426116,1,0.006164844147861004,1
1770928262854084864,0.04153196513652802,1,-0.0006155027658678591,1,0.006341841537505388,1
1770928262954118400,0.0416247546672821,1,-0.00231193145737052,1,0.00833034235984087,1
1770928263054082816,0.03571943566203117,1,-0.001294283545576036,1,-0.0006150479312054813,1
1770928263154036736,0.04262591525912285,1,0.001173270167782903,1,0.0008967241737991571,1
1770928263254089984,0.03775994852185249,1,-0.00101668038405478,1,0.002122418722137809,1
1770928263354102528,0.04188131168484688,1,0.0009128253441303968,1,0.007139617577195168,1
1770928263454084608,0.03662845864892006,1,0.005590643733739853,1,0.00539084430783987,1
1770928263554117120,0.03672968596220016,1,-0.001196752535179257,1,0.002465656725689769,1
1770928263654080512,0.04265359044075012,1,0.001922761905007064,1,0.01149984449148178,1
1770928263754033920,0.04262973740696907,1,-0.004254995379596949,1,0.006397792138159275,1
1770928263854078464,0.03591310605406761,1,0.004761564545333385,1,0.002281798282638192,1
1770928263954067712,0.04103023931384087,1,-0.001391923986375332,1,-0.002052030060440302,1
1770928264054031360,0.04252941161394119,1,0.001746596768498421,1,0.001626137876883149,1
1770928264154066688,0.04012435302138329,1,-0.004631957970559597,1,0.001374844927340746,1
1770928264254029056,0.0421513132750988,1,0.0004661900456994772,1,0.004354252014309168,1
1770928264353982208,0.04156110435724258,1,0.005568431224673986,1,-0.003526931395754218,1
1770928264454029824,0.04864564538002014,1,0.001280158408917487,1,0.003453031182289124,1
1770928264554023168,0.02072589471936226,1,0.005838196724653244,1,0.01113069150596857,1
1770928264653989376,0.02639985829591751,1,0.007202768232673407,1,-0.001400041859596968,1
1770928264754023168,0.07969705015420914,1,-0.01168064400553703,1,0.0043602897785604,1
1770928264853988864,0.02381170727312565,1,0.001602918957360089,1,-0.006033682264387608,1
1770928264953990656,0.01926889270544052,1,-0.0004524407559074461,1,-0.002534791128709912,1
1770928265054021376,0.03279434517025948,1,-0.0003048759244848043,1,0.007249294314533472,1
1770928265153991680,0.03881256282329559,1,-0.006260961759835482,1,0.007159717381000519,1
1770928265253969664,0.04516902938485146,1,0.00350218964740634,1,0.0006862162263132632,1
1770928265354001408,0.03527431190013885,1,-0.005036276299506426,1,-0.0001316613052040339,1
1770928265453994240,0.04303351417183876,1,-0.003222142811864614,1,0.008676593191921711,1
1770928265553970432,0.03718638047575951,1,0.001332801301032305,1,0.002261248882859945,1
1770928265654001408,0.04834605380892754,1,0.001319265458732843,1,0.001581765944138169,1
1770928265753996800,0.03775529935956001,1,-0.00239232718013227,1,-0.005602001212537289,1
1770928265853978368,0.04718624427914619,1,0.005412884522229433,1,0.004795628134161234,1
1770928265954011136,0.04321593791246414,1,0.000807282398454845,1,0.007896158844232559,1
1770928266053971456,0.04696495085954666,1,0.003350720275193453,1,0.003985369578003883,1
1770928266153935872,0.03719569370150566,1,-0.002744603902101517,1,-0.0002161568263545632,1
1770928266253967104,0.04399317130446434,1,-0.002721791621297598,1,0.001448585418984294,1
1770928266353934592,0.05110646784305573,1,-0.001301269163377583,1,0.006101785227656364,1
1770928266453894144,0.05261138081550598,1,-0.004463347606360912,1,0.00233283219859004,1
1770928266553944064,0.04913943633437157,1,-0.0001531242160126567,1,0.004768846090883017,1
1770928266653908224,0.04194553196430206,1,-0.005002924706786871,1,0.01008165534585714,1
1770928266753890304,0.03507532179355621,1,0.003112588543444872,1,-0.0004653065116144717,1
1770928266853923840,0.03574062511324883,1,0.0006230630096979439,1,0.003042157739400864,1
1770928266953888768,0.04020333290100098,1,0.004417702555656433,1,-3.310054307803512e-05,1
1770928267053842176,0.04768135026097298,1,0.001434160396456718,1,0.008852580562233925,1
1770928267153886976,0.03764654695987701,1,-0.001746697933413088,1,0.00370458560064435,1
1770928267253915136,0.03877214714884758,1,0.002992152934893966,1,0.006555741187185049,1
1770928267353885696,0.03389984369277954,1,-0.004764994606375694,1,0.003053616033867002,1
1770928267453918976,0.03996831551194191,1,0.002716159913688898,1,0.005342333577573299,1
1770928267553912064,0.05155182629823685,1,0.003040077164769173,1,0.003797067329287529,1
1770928267653868544,0.04072610661387444,1,-0.000951918656937778,1,-0.004701891914010048,1
1770928267753922304,0.0337287001311779,1,-0.00192022486589849,1,-0.003254694864153862,1
1770928267853884928,0.03997087851166725,1,0.001154534285888076,1,0.001852160319685936,1
1770928267953831936,0.04561487957835197,1,-0.0006878594285808504,1,0.006428881082683802,1
1770928268053863424,0.03328295052051544,1,0.001949428580701351,1,-0.004611453972756863,1
1770928268153837568,0.04180168733000755,1,0.004124347120523453,1,0.0007463374640792608,1
1770928268253790464,0.04310425743460655,1,0.0076594278216362,1,0.0009584890212863684,1
1770928268353826560,0.03653879091143608,1,-0.001292229513637722,1,0.0009605343220755458,1
1770928268453793280,0.03423651680350304,1,0.003288756823167205,1,0.004771118517965078,1
1770928268553749504,0.04171802848577499,1,0.001672477228567004,1,0.002375166397541761,1
1770928268653794048,0.04005355387926102,1,0.003723835572600365,1,0.003155553247779608,1
1770928268753760512,0.03859896585345268,1,0.001435681129805744,1,0.005919832736253738,1
1770928268853715712,0.03868797048926353,1,-0.003896967973560095,1,0.0002386429696343839,1
1770928268953764096,0.03233986347913742,1,-0.006889655254781246,1,0.005761779844760895,1
1770928269053771264,0.04557828232645988,1,-0.005490753334015608,1,0.003443130059167743,1
1770928269153727488,0.03481635078787804,1,0.007303327322006226,1,0.01143165584653616,1
1770928269253764096,0.04854040965437889,1,-0.008772289380431175,1,-0.01078408025205135,1
1770928269353736448,0.02477366849780083,1,-0.00311372010037303,1,0.01290014758706093,1
1770928269453710592,0.03566534444689751,1,0.002559700049459934,1,-0.000139303068863228,1
1770928269553756928,0.03988149017095566,1,0.009278527460992336,1,0.003979330416768789,1
1770928269653749504,0.03947702795267105,1,0.001792721915990114,1,0.007813523523509502,1
1770928269753755648,0.04946867376565933,1,0.004174285568296909,1,-0.001164320157840848,1
1770928269853788928,0.02966073155403137,1,-0.0002655835123732686,1,-0.007403024937957525,1
1770928269953782016,0.06312363594770432,1,-0.0005963438889011741,1,0.006515359971672297,1
1770928270053742848,0.0452936552464962,1,0.002432136796414852,1,-0.0004024162190034986,1
1770928270153786880,0.02900728769600391,1,-0.004267009906470776,1,0.01680544577538967,1
1770928270253755904,0.02465003356337547,1,0.008484998717904091,1,0.003511578077450395,1
1770928270353724928,0.04903725907206535,1,0.004298435524106026,1,0.006678004749119282,1
1770928270453787136,0.03686445578932762,1,0.0006927512586116791,1,-0.003300939686596394,1
1770928270553750528,0.1142590343952179,1,-0.003014711430296302,1,0.01646706275641918,1
1770928270653728256,0.03893230855464935,1,0.003714936785399914,1,-0.00104939064476639,1
1770928270753822464,0.03114467300474644,1,-0.0006382711580954492,1,0.003626489546149969,1
1770928270853801984,0.04410644248127937,1,0.002545880153775215,1,0.00935124047100544,1
1770928270953771520,0.04162568971514702,1,0.002274384954944253,1,0.004665307700634003,1
1770928271053840384,0.03370381519198418,1,0.0009440056746825576,1,0.001432556426152587,1
1770928271153806336,0.0358014851808548,1,-0.00370052270591259,1,-0.0005514557124115527,1
1770928271253757440,0.005621201358735561,1,0.00825673621147871,1,0.004204436670988798,1
1770928271353792256,0.04196863248944283,1,-0.002354386728256941,1,-0.008610999211668968,1
1770928271453756416,0.05487095937132835,1,-0.005121205002069473,1,0.002382260048761964,1
1770928271553707264,0.04065659269690514,1,-1.68289989233017e-05,1,0.001678347587585449,1
1770928271653741312,-0.08735457062721252,1,-0.005787449423223734,1,0.00987741444259882,1
1770928271753708544,0.06330412626266479,1,0.005244303029030561,1,0.003622391726821661,1
1770928271853673216,0.03533603623509407,1,0.003925300668925047,1,0.001452457276172936,1
1770928271953707264,0.03458299860358238,1,-0.0001022220822051167,1,0.0007469705888070166,1
1770928272053676544,0.03773088008165359,1,-0.0005559944547712803,1,0.00212547299452126,1
1770928272153635584,0.04403333738446236,1,-0.004011792596429586,1,0.007554321084171534,1
1770928272253671680,0.04649109393358231,1,0.005254961550235748,1,0.008820987306535244,1
1770928272353644288,0.0405561588704586,1,-0.0005824193358421326,1,-0.003869206644594669,1
1770928272453605376,0.03197969496250153,1,-0.00524877617135644,1,-0.0004662523278966546,1
1770928272553640192,0.03719552978873253,1,0.002555778948590159,1,0.004529223311692476,1
1770928272653608704,0.04444452375173569,1,0.004066350869834423,1,0.004038186278194189,1
1770928272753608448,0.04536187648773193,1,-0.004500329494476318,1,0.009417559020221233,1
1770928272853675776,0.03312251716852188,1,0.004585331305861473,1,0.006149828899651766,1
1770928272953655808,0.04199181869626045,1,0.006688119377940893,1,-0.001004743622615933,1
1770928273053672192,0.0376313105225563,1,0.001013594912365079,1,0.00636368477717042,1
1770928273153569280,-0.04433083161711693,1,-0.07021982222795486,1,-0.1280540823936462,1
1770928273253612544,0.02899175882339478,1,0.007024102844297886,1,0.02159285545349121,1
1770928273353578240,0.04470149427652359,1,-0.0002046900044661015,1,-0.004103881772607565,1
1770928273453547520,0.05063332617282867,1,-0.001691633835434914,1,0.01437910180538893,1
1770928273553619968,0.06933870911598206,1,-0.0002749591367319226,1,0.04215540364384651,1
1770928273653609728,0.01565061137080193,1,-0.006854102481156588,1,-0.01849325746297836,1
1770928273753559296,-0.02949271351099014,1,-0.001869539264589548,1,-0.06254899501800537,1
1770928273853600000,0.01703460700809956,1,0.003032054752111435,1,-0.03535573557019234,1
1770928273953574144,0.02777520939707756,1,-0.001220534555613995,1,-0.01379826199263334,1
1770928274053533440,0.05335534363985062,1,0.001695737475529313,1,0.01154613494873047,1
1770928274153572352,0.04377558454871178,1,0.002477290574461222,1,0.007889954373240471,1
1770928274253544448,0.0401032529771328,1,-0.007897317409515381,1,0.002919149585068226,1
1770928274353504768,0.04401206970214844,1,0.004881106317043304,1,0.002511720871552825,1
1770928274453543936,0.04287030920386314,1,-0.002805531257763505,1,-9.245623368769884e-05,1
1770928274553512960,0.03279652073979378,1,0.003601417876780033,1,0.007222957443445921,1
1770928274653476352,0.04793674126267433,1,-0.001969408243894577,1,0.004577732179313898,1
1770928274753515520,0.03320243582129478,1,9.815033990889788e-06,1,0.002641108352690935,1
1770928274853483776,0.03577111288905144,1,0.000420382188167423,1,0.004664560779929161,1
1770928274953442304,0.04537388309836388,1,-0.0009002016158774495,1,0.0115616861730814,1
1770928275053498624,0.0377197340130806,1,0.000608152593486011,1,-0.00173600111156702,1
1770928275153509888,0.05369167774915695,1,0.0006250615697354078,1,0.007914826273918152,1
1770928275253498624,0.02540486492216587,1,0.007174394093453884,1,-0.01577471569180489,1
1770928275353542144,0.02829739451408386,1,-0.009217117913067341,1,-0.01783125847578049,1
1770928275453522944,0.04376394301652908,1,0.006282296031713486,1,0.002518240362405777,1
1770928275553478144,0.04284669831395149,1,0.02512877434492111,1,-0.003442793618887663,1
1770928275653515008,0.04670801758766174,1,-0.001304960693232715,1,6.556394509971142e-06,1
1770928275753480704,0.03676949441432953,1,0.00549301179125905,1,0.006479829084128141,1
1770928275853439744,0.04788165912032127,1,0.004123049322515726,1,0.00484932167455554,1
1770928275953474816,0.04415469616651535,1,0.008942327462136745,1,0.01560906879603863,1
1770928276053440000,0.03530216217041016,1,-0.002025657100602984,1,0.003252113703638315,1
1770928276153403904,0.04589343070983887,1,-0.00173941079992801,1,0.008159320801496506,1
1770928276253441280,0.04532074928283691,1,1.073197927325964e-05,1,0.01490458752959967,1
1770928276353415936,0.04059476777911186,1,0.00511618610471487,1,-0.0109302494674921,1
1770928276453373184,0.04301628842949867,1,0.0002121552970493212,1,-0.001846293802373111,1
1770928276553409024,0.04485378041863441,1,0.002218143781647086,1,0.01129649579524994,1
1770928276653373952,0.04124715551733971,1,0.005490180104970932,1,0.01251816656440496,1
1770928276753334528,0.03753572702407837,1,-7.255584932863712e-07,1,0.0005239953752607107,1
1770928276853370624,0.03248339518904686,1,0.02876042574644089,1,-0.002920985221862793,1
1770928276953336064,0.03520123288035393,1,0.007048085331916809,1,0.00109429017174989,1
1770928277053295104,0.04562347009778023,1,0.003819070523604751,1,-0.03632140904664993,1
1770928277153361152,0.04563834518194199,1,0.004926654510200024,1,0.001098868669942021,1
1770928277253376768,0.03534823283553123,1,0.002860695822164416,1,0.002526103518903255,1
1770928277353389568,0.01156603079289198,1,-0.01475383713841438,1,-0.01123509276658297,1
1770928277453812992,0.05079292505979538,1,-0.0005303295329213142,1,0.007309124805033207,1
1770928277553829376,0.03228950873017311,1,0.009777882136404514,1,-0.00314310728572309,1
1770928277653812480,0.04286793991923332,1,0.0009291093447245657,1,-0.0003846222534775734,1
1770928277753973248,0.04424625635147095,1,-0.002466573612764478,1,-9.228242561221123e-06,1
1770928277854226944,0.04480250179767609,1,0.00264674355275929,1,0.001485908287577331,1
1770928277954190336,0.04366626963019371,1,0.001787257962860167,1,0.001930785365402699,1
1770928278054255872,0.03931144252419472,1,-0.004825054202228785,1,0.007069569546729326,1
1770928278154256128,0.04319677129387856,1,0.003997788298875093,1,0.008814770728349686,1
1770928278254208512,0.04407684504985809,1,0.0006757258670404553,1,0.005421671085059643,1
1770928278354250496,0.03883439674973488,1,0.006493198685348034,1,-0.004383730702102184,1
1770928278454210304,0.04178368672728539,1,2.281949855387211e-05,1,0.01101556234061718,1
1770928278554156800,0.0253517460078001,1,0.00414696428924799,1,0.00406296132132411,1
1770928278654192128,0.04778077825903893,1,0.005265350453555584,1,0.003310780739411712,1
1770928278754193920,0.04709768667817116,1,0.008560379967093468,1,0.007132466416805983,1
1770928278854137600,0.03515001386404037,1,-0.0006159549811854959,1,0.0005729314871132374,1
1770928278954167296,0.04111853986978531,1,0.0005551537615247071,1,0.001558535499498248,1
1770928279054129408,0.03847358748316765,1,0.005940491333603859,1,0.002972723683342338,1
1770928279154074624,0.04050619527697563,1,0.0008057842496782541,1,0.00114884227514267,1
1770928279254111488,0.04839866608381271,1,0.004265103489160538,1,0.002004848793148994,1
1770928279354095872,0.03490577265620232,1,0.006667776498943567,1,0.00870757270604372,1
1770928279454060544,0.04698826372623444,1,-0.001242691650986671,1,0.009683712385594845,1
1770928279554094080,0.04704318568110466,1,0.0005797040066681802,1,0.008357499726116657,1
1770928279654070016,0.04214015230536461,1,-0.0002769002458080649,1,0.003588484600186348,1
1770928279754110976,0.02988973632454872,1,0.005778889171779156,1,-0.004313906654715538,1
1770928279854172416,0.0406162403523922,1,0.007314077112823725,1,0.003899871604517102,1
1770928279954136832,0.03944789990782738,1,0.002706325612962246,1,0.00699766818434,1
1770928280054090240,0.03199261426925659,1,0.002271347213536501,1,0.001533313072286546,1
1770928280154121984,0.03926999121904373,1,0.0008914403733797371,1,-0.001317098503932357,1
1770928280254084608,0.04172435402870178,1,0.002069387119263411,1,0.008377373218536377,1
1770928280354044928,0.04018646851181984,1,0.002973344642668962,1,0.004406934604048729,1
1770928280454077440,0.04224411398172379,1,-0.001057391171343625,1,0.005526165012270212,1
1770928280554039808,0.03814727067947388,1,0.0008702986524440348,1,0.004505579825490713,1
1770928280653990656,0.03543295711278915,1,0.005609387066215277,1,0.003026825143024325,1
1770928280754022144,0.04553288593888283,1,0.001946738921105862,1,0.003996998071670532,1
1770928280853983744,0.0417037233710289,1,0.007245456334203482,1,0.005157448351383209,1
1770928280953948416,0.04160340875387192,1,0.002834725193679333,1,0.00820936169475317,1
1770928281053982976,0.04592312872409821,1,0.002664702478796244,1,-0.0006549116224050522,1
1770928281153948928,0.03666802123188972,1,-0.00225415825843811,1,0.0002416616916889325,1
1770928281253923584,0.03298051282763481,1,0.003873419016599655,1,-0.000415812450228259,1
1770928281353974272,0.04047992080450058,1,0.001638689544051886,1,0.007136201485991478,1
1770928281453944576,0.03773810714483261,1,0.003718913299962878,1,0.003586919279769063,1
1770928281553939712,-0.07288883626461029,1,-0.02026026323437691,1,-0.02886001765727997,1
1770928281654003712,0.04100330919027328,1,0.007082842290401459,1,-0.02369227260351181,1
1770928281753963520,0.03117667324841022,1,0.000676061725243926,1,0.01692223735153675,1
1770928281853923328,0.0480768233537674,1,-0.001549005857668817,1,0.000477872701594606,1
1770928281953981184,0.06274053454399109,1,0.01781483553349972,1,-0.03249151259660721,1
1770928282053946624,0.06310464441776276,1,-0.00713844271376729,1,0.0144183337688446,1
1770928282153925888,0.04908500611782074,1,0.005040938500314951,1,0.005726145580410957,1
1770928282253961216,0.03689287230372429,1,0.003791185095906258,1,0.02681479044258595,1
1770928282353924864,0.07288432866334915,1,0.002728546969592571,1,0.001732027740217745,1
1770928282453890816,0.03853387758135796,1,-0.003094713669270277,1,0.0274941585958004,1
1770928282553945088,0.04540752246975899,1,0.005985436029732227,1,0.005720636807382107,1
1770928282653966080,0.044338658452034,1,0.001588705228641629,1,-0.004051568917930126,1
1770928282753916160,0.05291078239679337,1,-8.868396980687976e-05,1,-0.003785882610827684,1
1770928282853983232,-0.0099460668861866,1,-0.002702775876969099,1,-0.008652898482978344,1
1770928282953949952,0.1880317777395248,1,-0.02728320471942425,1,-0.0602734312415123,1
1770928283053901824,0.0003244554973207414,1,0.01999253965914249,1,0.01668498292565346,1
1770928283153953792,0.03870857134461403,1,-0.006293405778706074,1,0.006206224672496319,1
1770928283253918208,0.03872077539563179,1,0.004427418578416109,1,0.009786965325474739,1
1770928283353888256,0.03932979330420494,1,-0.001979246037080884,1,0.01075936295092106,1
1770928283453941760,0.04001358896493912,1,0.001662634429521859,1,-0.000498470850288868,1
1770928283553907456,0.04420194029808044,1,0.001629287842661142,1,0.001022758428007364,1
1770928283653858560,0.04232615232467651,1,0.00267875799909234,1,0.01030174922198057,1
1770928283753921792,0.04625698924064636,1,0.00261920178309083,1,0.00939333438873291,1
1770928283853889280,0.03929881006479263,1,0.003215011209249496,1,0.005093580111861229,1
1770928283953836800,0.0471072755753994,1,0.003674632636830211,1,0.002781510353088379,1
1770928284053886208,0.03995432332158089,1,0.002611717907711864,1,0.001606447971425951,1
1770928284153894656,0.03766543045639992,1,0.002269946038722992,1,0.005473092198371887,1
1770928284253893120,0.04834014549851418,1,0.001145306043326855,1,0.004627855494618416,1
1770928284353931520,0.04733552038669586,1,0.004142885562032461,1,0.004443262703716755,1
1770928284453903872,0.04420861601829529,1,-0.0001416746672475711,1,0.002809367142617702,1
1770928284553911040,0.04023523256182671,1,-0.002967490581795573,1,0.00159553112462163,1
1770928284653957888,0.005898012779653072,1,0.007402234710752964,1,0.003886907361447811,1
1770928284753942016,0.06436830759048462,1,-0.004836929962038994,1,0.01360839139670134,1
1770928284853916672,0.03785940632224083,1,0.003657556837424636,1,0.003093047766014934,1
1770928284953954560,0.04071040451526642,1,-0.003790633054450154,1,0.00894203782081604,1
1770928285053928448,0.04188977926969528,1,0.00230454932898283,1,0.003321318654343486,1
1770928285153939712,0.04439409449696541,1,0.006316366139799356,1,0.001948022516444325,1
1770928285254002688,0.03936390578746796,1,0.003687635296955705,1,0.008669493719935417,1
1770928285353972224,0.04338498041033745,1,-0.001487925183027983,1,0.005624508485198021,1
1770928285453982464,0.0356593132019043,1,0.003987810574471951,1,0.009201937355101109,1
1770928285554081536,0.04589368030428886,1,0.0003531204420141876,1,0.009004008024930954,1
1770928285654043904,0.03617282584309578,1,0.0008644850458949804,1,0.007064445875585079,1
1770928285754006272,0.04594795033335686,1,-0.004780647344887257,1,0.006659581791609526,1
1770928285854066176,0.04171453416347504,1,-0.0007102547097019851,1,0.004438917618244886,1
1770928285954054400,0.04715590178966522,1,-0.003278519026935101,1,-0.003582927864044905,1
1770928286054050048,0.001993062905967236,1,-0.00585638964548707,1,0.005607589147984982,1
1770928286154095360,0.03682123869657516,1,-0.001255768118426204,1,0.002672814764082432,1
1770928286254054912,0.01573334634304047,1,0.008119698613882065,1,-0.002188555197790265,1
1770928286354008320,0.06190718710422516,1,0.009765693917870522,1,0.005224711261689663,1
1770928286454050048,0.04250796884298325,1,0.00217072106897831,1,0.008318426087498665,1
1770928286554071808,0.0502537339925766,1,-0.001623206306248903,1,0.005001731682568789,1
1770928286654020864,0.04225453734397888,1,0.005123196169734001,1,0.007978941313922405,1
1770928286754052864,0.03371673449873924,1,-0.001898439135402441,1,0.01454786770045757,1
1770928286854036480,0.04073263704776764,1,0.002237215405330062,1,-0.002557075116783381,1
1770928286954008576,0.04306298121809959,1,-0.002304051537066698,1,0.003171891905367374,1
1770928287054040832,0.04309169203042984,1,0.001535394927486777,1,0.0106087401509285,1
1770928287154044928,0.03715499490499496,1,0.006573798134922981,1,-0.008963510394096375,1
1770928287253997056,0.05204110592603683,1,-0.001131783938035369,1,-0.001744865556247532,1
1770928287354039552,0.0460633896291256,1,0.001093833125196397,1,0.02069175057113171,1
1770928287454016256,0.03802682086825371,1,-0.000201223068870604,1,-0.008419454097747803,1
1770928287553963520,0.04102989286184311,1,0.004154791589826345,1,0.004997161217033863,1
1770928287653991936,0.03593806549906731,1,-0.002559930784627795,1,-0.001121804933063686,1
1770928287753963264,0.04406601563096046,1,-0.003570273984223604,1,0.009355961345136166,1
1770928287853913088,0.04262740164995193,1,0.003930923994630575,1,0.008353164419531822,1
1770928287953947136,0.03785791993141174,1,-0.002337787300348282,1,0.0108742993324995,1
1770928288053960192,0.03563767671585083,1,0.005042847245931625,1,-0.00118507188744843,1
1770928288153915392,0.03863521292805672,1,0.004362118896096945,1,-0.003214557422325015,1
1770928288253965312,0.0427556186914444,1,-0.01701307855546474,1,-0.003767608199268579,1
1770928288353974272,0.03859733045101166,1,0.00166988605633378,1,0.01015972904860973,1
1770928288453924352,0.0541340708732605,1,0.006777463480830193,1,-0.01011549774557352,1
1770928288553955840,0.02009827643632889,1,-0.01095102354884148,1,0.005564236082136631,1
1770928288653975808,0.0316440537571907,1,0.01244749594479799,1,0.02553132548928261,1
1770928288753922816,0.05112379044294357,1,0.007118848618119955,1,-0.005545436404645443,1
1770928288853960960,0.03824545443058014,1,-0.001378348795697093,1,0.005872969515621662,1
1770928288953924608,0.03485672920942307,1,0.00469672866165638,1,-0.0001451813732273877,1
1770928289053870336,0.04177736863493919,1,-0.003481845837086439,1,-0.0001481770304962993,1
1770928289153899264,0.0491664931178093,1,-0.004116378724575043,1,0.009362261742353439,1
1770928289253898752,0.03372235968708992,1,0.002168817445635796,1,0.006779170595109463,1
1770928289353863168,0.04108389467000961,1,0.00342200044542551,1,-0.002287306822836399,1
1770928289453927936,0.04015914350748062,1,0.007834447547793388,1,0.007291421294212341,1
1770928289553890816,0.03441106900572777,1,0.005976154934614897,1,-0.008803435601294041,1
1770928289653849344,0.04645282402634621,1,-0.004163972567766905,1,-0.005808594636619091,1
1770928289753878272,0.03242602571845055,1,0.003414031350985169,1,0.003323232289403677,1
1770928289853859072,0.03355838730931282,1,-2.808100543916225e-05,1,-0.002686480525881052,1
1770928289953819904,0.04950967058539391,1,0.00502074183896184,1,-0.0003559309698175639,1
1770928290053875200,0.0458526574075222,1,0.01015188544988632,1,-0.0005950767081230879,1
1770928290153875200,0.04441703483462334,1,-0.0004341118037700653,1,-0.006760129705071449,1
1770928290253869312,0.0525948628783226,1,-0.01659510284662247,1,-0.007769265212118626,1
1770928290353945856,0.03988475725054741,1,-0.003166131675243378,1,0.006993503775447607,1
1770928290453910784,0.03504373878240585,1,0.003228680696338415,1,-0.001671876525506377,1
1770928290553879040,0.03291727975010872,1,-0.004982221405953169,1,0.01982877030968666,1
1770928290653926400,0.03767593204975128,1,-0.0003484786720946431,1,-0.009455893188714981,1
1770928290753898752,0.04007723554968834,1,-0.0008464931743219495,1,0.001002794830128551,1
1770928290853867520,0.03674550354480743,1,-0.000223462178837508,1,0.002170209074392915,1
1770928290953965056,0.04211911931633949,1,0.002315235324203968,1,0.0008921877015382051,1
1770928291053972992,0.04239824041724205,1,0.004654793068766594,1,0.009540271013975143,1
1770928291153926144,0.04217948019504547,1,0.0007017909083515406,1,0.0006061851745471358,1
1770928291253958912,0.03808637708425522,1,0.005231719464063644,1,-0.0007630725740455091,1
1770928291353930752,0.04355943948030472,1,0.0005447746952995658,1,0.005286851432174444,1
1770928291453912576,0.04213907942175865,1,0.0007758059073239565,1,0.004751274362206459,1
1770928291553972224,0.0333329439163208,1,0.004814750049263239,1,-0.001221252838149667,1
1770928291653956096,0.04316117241978645,1,0.002863892819732428,1,0.001976118655875325,1
1770928291753906432,0.04214757308363914,1,-0.0003716729115694761,1,-0.001614520559087396,1
1770928291853938688,0.03586813807487488,1,0.001101738191209733,1,-0.00167769892141223,1
1770928291953901568,0.03714864328503609,1,-0.00235796207562089,1,0.004180860705673695,1
1770928292053885952,0.03930598124861717,1,-0.0008864218252710998,1,0.0006082194158807397,1
1770928292153916160,0.04218303039669991,1,-0.001190886017866433,1,-0.004766048863530159,1
1770928292253876224,0.03604365140199661,1,0.0002785718534141779,1,0.004946255125105381,1
1770928292353827072,0.0415714830160141,1,0.004157077521085739,1,0.0003936426364816725,1
1770928292453878528,0.03925307095050812,1,0.0005483631975948811,1,-0.003305294550955296,1
1770928292553884928,0.03699919953942299,1,0.002998908283188939,1,-0.001492186682298779,1
1770928292653834240,0.0408976785838604,1,-0.0101154763251543,1,-0.01197582390159369,1
1770928292753907456,0.0609564371407032,1,0.003574500326067209,1,0.01551043428480625,1
1770928292853881344,0.04429639130830765,1,0.001003448618575931,1,-0.002388456137850881,1
1770928292953855488,0.03392418473958969,1,-0.0002808468416333199,1,0.002207018900662661,1
1770928293053910528,0.03759383782744408,1,-0.003284469246864319,1,0.00301660131663084,1
1770928293153907200,0.04375056177377701,1,-0.002592333825305104,1,-0.0001306827180087566,1
1770928293253870592,0.04629265889525414,1,0.001689024968072772,1,-0.0009415340609848499,1
1770928293353954304,0.04322216659784317,1,0.001124417991377413,1,0.007459796965122223,1
1770928293453979904,0.03998272493481636,1,0.0002696767332963645,1,0.003280858974903822,1
1770928293553996800,0.03322124108672142,1,3.848248161375523e-05,1,0.003322598058730364,1
1770928293654070016,0.03340144455432892,1,0.002678182208910584,1,-0.002602335996925831,1
1770928293754045952,0.04069244116544724,1,0.002673985669389367,1,-0.001666909316554666,1
1770928293854009600,0.04181299358606339,1,0.0003368430770933628,1,0.004148487001657486,1
1770928293954040064,0.03419413045048714,1,0.007110557518899441,1,-0.005210903473198414,1
1770928294054018816,0.04222573712468147,1,0.007032890804111958,1,-0.00106079806573689,1
1770928294154033920,0.04395546391606331,1,-0.001860208576545119,1,0.002643926301971078,1
1770928294254069760,0.04191411286592484,1,0.004628651775419712,1,0.001723817316815257,1
1770928294354091264,0.03668402507901192,1,0.006010465323925018,1,-0.001786249107681215,1
1770928294454059776,0.03600756078958511,1,0.001267652842216194,1,0.00558579945936799,1
1770928294554102272,0.02554966136813164,1,0.01129376702010632,1,-0.003695892402902246,1
1770928294654075648,0.04137106612324715,1,-0.0004797222791239619,1,0.002112587448209524,1
1770928294754067456,0.03837427496910095,1,0.003163699992001057,1,-0.0007820124737918377,1
1770928294854110976,0.03546436131000519,1,0.005953775253146887,1,-0.001091238344088197,1
1770928294954093824,0.04037561640143394,1,-0.0001152112381532788,1,-0.002014726400375366,1
1770928295054038272,0.04254947975277901,1,-0.003489271271973848,1,-0.00333376182243228,1
1770928295154103808,0.03851554542779922,1,0.003391229547560215,1,0.002382955048233271,1
1770928295254076672,0.04154838249087334,1,0.004220991861075163,1,0.008115787990391254,1
1770928295354021120,0.02847269922494888,1,0.006342650391161442,1,-0.02507992833852768,1
1770928295454113024,0.03714246675372124,1,-0.0007153515471145511,1,0.01885448396205902,1
1770928295554413824,0.04411941394209862,1,0.004706741310656071,1,-0.009383736178278923,1
1770928295654423552,0.03799527511000633,1,0.003827217034995556,1,0.01015403494238853,1
1770928295754445312,0.04530255869030952,1,-0.00680628651753068,1,-0.0004514566389843822,1
1770928295854404864,0.03467598184943199,1,3.729757736437023e-05,1,-5.212496034801006e-07,1
1770928295954364416,0.04447861388325691,1,0.005742681678384542,1,0.003196831792593002,1
1770928296054392576,0.04639773815870285,1,0.001530821085907519,1,-0.003480716375634074,1
1770928296154376192,0.04488814994692802,1,0.001244481070898473,1,0.004084119573235512,1
1770928296254361856,0.04886548593640327,1,0.001308806706219912,1,0.001302492339164019,1
1770928296354395648,0.03490563482046127,1,0.004184495192021132,1,0.003761658677831292,1
1770928296454371840,0.04099592939019203,1,0.001641473267227411,1,0.002367342822253704,1
1770928296554615808,0.04156231507658958,1,0.001458644866943359,1,0.0004376881988719106,1
1770928296654691328,0.03617815673351288,1,0.003013943089172244,1,-0.0003305233549326658,1
1770928296754712320,0.03716685995459557,1,-0.00102634506765753,1,0.006437457166612148,1
1770928296854664704,0.03862370923161507,1,0.003077801782637835,1,0.002836508909240365,1
1770928296954709248,0.03758829832077026,1,0.001312523847445846,1,-0.00219665328040719,1
1770928297054671872,0.04068784043192863,1,0.004380878526717424,1,0.007044078782200813,1
1770928297154653184,0.05407362058758736,1,-0.002489312086254358,1,0.001104185357689857,1
1770928297254682624,0.06220827624201775,1,0.003461558371782303,1,0.009590435773134232,1
1770928297354660608,0.02422035671770573,1,-0.002383030252531171,1,0.002202847739681602,1
1770928297454687744,0.03839259594678879,1,0.004370566457509995,1,0.006135084200650454,1
1770928297554752512,0.04678794369101524,1,-0.0007154009072110057,1,0.002266716677695513,1
1770928297654703616,0.04607171937823296,1,-0.001586666563525796,1,-0.001195839839056134,1
1770928297754689024,0.04162793979048729,1,-0.001322056748904288,1,0.002431695116683841,1
1770928297854739456,0.04347297549247742,1,0.0030604328494519,1,0.004591439850628376,1
1770928297954692352,0.04234124347567558,1,4.178407834842801e-05,1,0.002292172284796834,1
1770928298054675712,0.03051424212753773,1,-0.004141148179769516,1,0.001558659016154706,1
1770928298155055872,0.04180313274264336,1,0.003451107302680612,1,0.0006465252954512835,1
1770928298255012096,0.04124664515256882,1,0.002233943901956081,1,0.003789449576288462,1
1770928298354950656,0.04195581004023552,1,-0.003769079688936472,1,0.003637107787653804,1
1770928298454981888,0.04702902212738991,1,-0.0006455954862758517,1,-0.01122134178876877,1
1770928298554977024,0.03686201199889183,1,-0.0004449584521353245,1,-0.0005339251947589219,1
1770928298654961920,0.03968009725213051,1,-0.00218720268458128,1,0.01107591576874256,1
1770928298755006976,0.03348835557699203,1,-0.001806010375730693,1,-0.005745082162320614,1
1770928298854975232,0.03878023102879524,1,-0.0001668942859396338,1,0.004592278972268105,1
1770928298954971136,0.05958811193704605,1,-0.002254799706861377,1,0.008519197814166546,1
1770928299055035648,0.04319943860173225,1,-0.004700202494859695,1,-0.0008678045123815536,1
1770928299154985472,0.03863850608468056,1,0.001016525668092072,1,0.009569128975272179,1
1770928299254941440,0.03461086377501488,1,0.00546066090464592,1,-0.00827886164188385,1
1770928299354972416,0.04441329836845398,1,0.004480069968849421,1,-8.541159331798553e-06,1
1770928299454924288,0.04311862587928772,1,0.001197164529003203,1,-0.003145328722894192,1
1770928299554907392,0.04345390573143959,1,-0.0001361663453280926,1,-0.001463665277697146,1
1770928299654965504,0.0440114438533783,1,0.006431283429265022,1,0.0006767924642190337,1
1770928299754918144,-0.009453620761632919,1,-0.03076369874179363,1,0.004035468213260174,1
1770928299854872576,0.03071617893874645,1,0.02590799704194069,1,0.004329755902290344,1
1770928299954912512,0.1862761378288269,1,0.01829813979566097,1,-0.007145259529352188,1
1770928300054873344,0.07710769772529602,1,-0.0007316897390410304,1,0.01993499137461185,1
1770928300154812160,0.005278568714857101,1,0.003515386022627354,1,-0.01114664599299431,1
1770928300254831360,0.03948557376861572,1,-0.006302166264504194,1,-0.009073782712221146,1
1770928300354799104,0.04365354031324387,1,-0.00281196553260088,1,-0.001762424595654011,1
1770928300454752000,0.04214908555150032,1,1.391963451169431e-06,1,0.007486556656658649,1
1770928300554771968,0.0688677579164505,1,-0.032576072961092,1,-0.02446623332798481,1
1770928300654730752,0.03077617287635803,1,-0.001272832974791527,1,-0.006760446354746819,1
1770928300754708224,0.03453362360596657,1,0.00945846363902092,1,-0.006205426063388586,1
1770928300854761216,0.03884512931108475,1,-0.001257242169231176,1,-0.003492458956316113,1
1770928300954790144,0.0424666740000248,1,-0.006477643735706806,1,-0.001702227280475199,1
1770928301054773504,0.05136158317327499,1,-0.002429097890853882,1,-0.006112966686487198,1
1770928301154833152,0.08197914063930511,1,-0.006185554899275303,1,0.009434141218662262,1
1770928301254814464,0.04714442789554596,1,0.002600060077384114,1,0.006829586811363697,1
1770928301354762496,0.008802544325590134,1,0.001319315051659942,1,-0.02087636478245258,1
1770928301454793984,0.04697510972619057,1,0.007349302992224693,1,-0.005483524408191442,1
1770928301554781952,0.03413553908467293,1,0.003437773091718554,1,0.007092070765793324,1
1770928301654743040,0.04853824153542519,1,-0.001508919289335608,1,0.003879268188029528,1
1770928301754797824,0.03185062855482101,1,0.0006789355538785458,1,0.0008887656731531024,1
1770928301854786048,0.04738662019371986,1,-0.009839859791100025,1,-0.0002719488111324608,1
1770928301954740224,0.03463150188326836,1,0.005534101743251085,1,0.004993602633476257,1
1770928302054773760,0.04804345965385437,1,-0.0003312642220407724,1,0.001579756150022149,1
1770928302154729728,0.04920192435383797,1,0.001361190341413021,1,0.008251015096902847,1
1770928302254674432,0.03547096997499466,1,0.005460829939693213,1,0.004471081774681807,1
1770928302354736384,0.03619334101676941,1,0.005891802720725536,1,-0.001674852333962917,1
1770928302454750464,0.04159969463944435,1,-0.00374816101975739,1,0.002042350126430392,1
1770928302554717696,0.0393463559448719,1,0.001372655853629112,1,-0.003029157174751163,1
1770928302654749696,0.03890696167945862,1,-0.002888874616473913,1,-0.00342312385328114,1
1770928302754719744,0.03988756984472275,1,-0.0001498393248766661,1,0.003479225328192115,1
1770928302854720512,0.04012290760874748,1,-0.008250481449067593,1,0.002080371603369713,1
1770928302954828800,0.04751688614487648,1,3.724265843629837e-05,1,-0.002672646194696426,1
1770928303054812672,0.0423305369913578,1,-3.619934432208538e-06,1,0.001472467905841768,1
1770928303154755840,0.03107489086687565,1,0.003888797014951706,1,-0.0007869361434131861,1
1770928303254779136,0.03872180730104446,1,0.002803888637572527,1,0.0003889782819896936,1
1770928303354731264,0.04039675369858742,1,0.007531160488724709,1,-0.002055279910564423,1
1770928303454681344,0.03187708556652069,1,-0.002433592453598976,1,0.005741632543504238,1
1770928303554776320,0.04238403216004372,1,0.002330005401745439,1,0.0004994448972865939,1
1770928303654823168,0.03844541311264038,1,0.002013438148424029,1,-0.002090692985802889,1
1770928303754840832,0.03268815577030182,1,0.0004243709845468402,1,0.002365863416343927,1
1770928303854957824,0.0415436327457428,1,0.001182939391583204,1,0.0008458008524030447,1
1770928303954986752,0.031402587890625,1,0.003737387014552951,1,0.003871329128742218,1
1770928304054963456,0.06124867871403694,1,-0.01130674872547388,1,-0.0002179867879021913,1
1770928304154993152,0.05148985981941223,1,0.001538607757538557,1,-0.007776533253490925,1
1770928304254974976,0.0420004203915596,1,0.002262607915326953,1,0.001225343905389309,1
1770928304354911232,0.04561981931328773,1,-0.002166118938475847,1,0.008434915915131569,1
1770928304455024128,0.0378519669175148,1,0.00220025610178709,1,-0.0005603347672149539,1
1770928304555092736,0.04064754396677017,1,0.001554166432470083,1,0.005034297239035368,1
1770928304655080448,0.05645044147968292,1,0.004223954398185015,1,0.0009150566766038537,1
1770928304755140608,0.04479273036122322,1,0.000383602746296674,1,0.00265921326354146,1
1770928304855119616,0.03626992180943489,1,-0.0006093528354540467,1,-0.001057132612913847,1
1770928304955074304,0.04163808375597,1,0.004344891291111708,1,-0.0006234473548829556,1
1770928305055123712,0.03934701159596443,1,-0.000998593051917851,1,-0.00120693095959723,1
1770928305155134464,0.04152178764343262,1,-0.002832926344126463,1,0.005875071510672569,1
1770928305255098368,0.02713094279170036,1,0.002370827365666628,1,0.009960447438061237,1
1770928305355114240,0.06047041341662407,1,0.003859528573229909,1,-0.0012851906940341,1
1770928305455064832,0.0392644852399826,1,0.002789952093735337,1,0.004317112267017365,1
1770928305555019776,0.03501976281404495,1,-0.001767955138348043,1,0.002274058293551207,1
1770928305655062528,0.03383724018931389,1,0.002327510854229331,1,0.002180984942242503,1
1770928305755049984,0.03988319262862206,1,0.001717531005851924,1,0.0004598231753334403,1
1770928305854993152,0.03682387247681618,1,-0.002129903063178062,1,0.00420483062043786,1
1770928305955031552,0.03937127813696861,1,0.001704500755295157,1,0.005157158244401217,1
1770928306054985984,0.03817051649093628,1,-0.002018264960497618,1,0.002307740040123463,1
1770928306154981376,0.0452074222266674,1,0.0004167512524873018,1,0.009820377454161644,1
1770928306255076352,0.04027643799781799,1,-0.0008164444006979465,1,-8.165906183421612e-05,1
1770928306355046656,0.02487326599657536,1,0.002464816905558109,1,0.003869141219183803,1
1770928306455024384,0.0423293262720108,1,0.005377085879445076,1,0.002525314455851912,1
1770928306555046144,0.04841725900769234,1,0.005315597169101238,1,0.004775563254952431,1
1770928306655092480,0.03933983668684959,1,0.003914584871381521,1,0.000905304797925055,1
1770928306755019264,0.03963718935847282,1,-0.00147885805927217,1,0.001434967736713588,1
1770928306854979072,0.04003303125500679,1,0.005778825841844082,1,0.001199284102767706,1
1770928306955041024,0.04154122248291969,1,0.006336066406220198,1,-0.0007632585475221276,1
1770928307055012608,0.04327968508005142,1,0.0003209145506843925,1,0.002918621525168419,1
1770928307154972928,0.03356193751096725,1,0.0001356987049803138,1,-0.0007892672438174486,1
1770928307255033088,0.03855093568563461,1,0.01041478477418423,1,0.001849878579378128,1
1770928307355011840,0.04362958297133446,1,0.002745042787864804,1,0.003078598529100418,1
1770928307454955008,0.04582412913441658,1,0.00206388346850872,1,0.002117843134328723,1
1770928307554977024,0.0486937128007412,1,0.0008884209091775119,1,-0.001202653860673308,1
1770928307654940416,0.03109687566757202,1,0.005996270570904016,1,0.01230482943356037,1
1770928307754894848,0.0139773627743125,1,0.008233522064983845,1,0.01408337708562613,1
1770928307854923264,0.0464913435280323,1,0.0002744917292147875,1,-0.01264239475131035,1
1770928307954889728,0.04596591368317604,1,0.0001574476191308349,1,0.007801326923072338,1
1770928308054830336,0.04459501057863235,1,0.006455800961703062,1,0.003814766649156809,1
1770928308154854912,0.03296813741326332,1,0.005393207538872957,1,-0.007741368375718594,1
1770928308254820352,0.04412200301885605,1,0.003808998037129641,1,0.01054121367633343,1
1770928308354760448,0.04262867569923401,1,0.00131159252487123,1,0.003329352010041475,1
1770928308454785536,0.0430167019367218,1,0.005484025925397873,1,0.000744858814869076,1
1770928308554743040,0.04191146790981293,1,0.002236526692286134,1,0.005494595970958471,1
1770928308654686720,0.0389045737683773,1,0.001441755564883351,1,0.004018718376755714,1
1770928308754730496,0.03764374181628227,1,-0.003292272798717022,1,-1.234491355717182e-05,1
1770928308854725120,0.03695490956306458,1,0.003443160094320774,1,0.003054897068068385,1
1770928308954758400,0.0391598604619503,1,0.003102279733866453,1,0.006081852596253157,1
1770928309054854400,0.03788459673523903,1,-0.001770826755091548,1,0.006985157262533903,1
1770928309154811392,0.04161566123366356,1,0.002868899144232273,1,0.003955143503844738,1
1770928309254831616,0.03698539361357689,1,0.005856546573340893,1,-0.004627891350537539,1
1770928309355212544,0.03791164979338646,1,0.002531268633902073,1,0.002655365038663149,1
1770928309455166720,0.03808580338954926,1,-0.0007310309447348118,1,0.003220986574888229,1
1770928309555122176,0.04378677532076836,1,0.00504628662019968,1,-0.00335813919082284,1
1770928309655157248,0.0383034273982048,1,0.006630357820540667,1,0.01263796631246805,1
1770928309755105280,0.04601947963237762,1,0.0009100146126002073,1,-0.003696722909808159,1
1770928309855075072,0.04260698333382607,1,0.004651586059480906,1,0.001229858491569757,1
1770928309955152128,0.03958436846733093,1,-0.002580276690423489,1,-0.002786054974421859,1
1770928310055137024,0.04664403945207596,1,0.004520422779023647,1,0.0009976107394322753,1
1770928310155112448,0.04329587891697884,1,0.005775370169430971,1,-0.002712578047066927,1
1770928310255163904,0.03394673019647598,1,0.000165579782333225,1,0.001370698562823236,1
1770928310355139840,0.04087168723344803,1,0.001729097915813327,1,-0.0001680493587628007,1
1770928310455086080,0.0375896655023098,1,0.0008705836953595281,1,0.003935887478291988,1
1770928310555125248,0.0458645224571228,1,-3.005604958161712e-05,1,-0.0002122425939887762,1
1770928310655074304,0.04190858826041222,1,-0.0008947729365900159,1,0.001920390408486128,1
1770928310755033088,0.0398523323237896,1,0.0006211204454302788,1,0.006175888702273369,1
1770928310855126784,0.03469768539071083,1,0.002301848493516445,1,-0.000752981984987855,1
1770928310955162624,0.03919785469770432,1,0.002339526545256376,1,-0.004405141808092594,1
1770928311055110912,0.04201441630721092,1,0.006929527502506971,1,-7.783158798702061e-05,1
1770928311155129600,0.04380597174167633,1,-0.005705161485821009,1,-0.0005507628084160388,1
1770928311255124224,0.02975915186107159,1,-0.0006717254873365164,1,0.001633834675885737,1
1770928311355163392,0.0395028218626976,1,0.006102131213992834,1,-0.0008723345817998052,1
1770928311455207680,0.04204073548316956,1,-9.202824730891734e-05,1,0.001148319104686379,1
1770928311555195648,0.04046180844306946,1,-0.002516458742320538,1,0.0004638020764105022,1
1770928311655182080,0.03252134472131729,1,0.0008627977222204208,1,-0.002985955448821187,1
1770928311755247104,0.03902658820152283,1,0.001366291893646121,1,-0.001843121601268649,1
1770928311855215616,0.04442321881651878,1,0.001636238652281463,1,0.002157543785870075,1
1770928311955183872,0.039420485496521,1,0.001830655266530812,1,0.00221676379442215,1
1770928312055234304,0.01604736782610416,1,-0.0005437384825199842,1,-0.006747287232428789,1
1770928312155188736,0.006489655002951622,1,-0.003250008216127753,1,-0.003837615018710494,1
1770928312255136000,0.04085271060466766,1,-0.002890924690291286,1,-0.0004429025575518608,1
1770928312355170560,0.04930783435702324,1,0.005605211481451988,1,-0.006009586621075869,1
1770928312455143936,-0.1311624795198441,1,-0.1484028100967407,1,-0.09128223359584808,1
1770928312555085056,0.04195092245936394,1,0.00490789208561182,1,-0.0137346750125289,1
1770928312655170048,0.05677565559744835,1,0.001769783906638622,1,0.003310362109914422,1
1770928312755426816,0.04878485947847366,1,0.000369429646525532,1,0.006164217367768288,1
1770928312855432960,0.03927965462207794,1,0.003213439136743546,1,0.002772029954940081,1
1770928312955469056,0.03843236714601517,1,0.001183053944259882,1,-0.0008502128766849637,1
1770928313055415808,-0.7310252785682678,1,-0.07820235192775726,1,-0.2676856219768524,1
1770928313155363072,0.09004643559455872,1,0.006525168195366859,1,-0.006754357367753983,1
1770928313255427072,0.04601787775754929,1,0.001997414045035839,1,0.001380082918331027,1
1770928313355510016,0.04271896556019783,1,-0.0005606673657894135,1,0.01027709245681763,1
1770928313455444480,0.1225477084517479,1,0.0154887679964304,1,0.04875679314136505,1
1770928313555478016,0.03686793148517609,1,-0.005944458767771721,1,-0.002070582006126642,1
1770928313655436032,0.03070958517491817,1,-8.488766616210341e-05,1,-0.004219505004584789,1
1770928313755442944,-0.1293328106403351,1,-0.1508621275424957,1,-0.02861612290143967,1
1770928313855479808,0.1078938171267509,1,0.01185435149818659,1,-0.0001371216494590044,1
1770928313955442432,0.04279588162899017,1,0.007695111446082592,1,0.01127640251070261,1
1770928314055421440,0.05125036835670471,1,0.0009558902238495648,1,-0.002366311615332961,1
1770928314155449344,0.03522960469126701,1,0.006274360697716475,1,0.005155817605555058,1
1770928314255442688,0.05663750320672989,1,-0.00674336077645421,1,0.0008331245044246316,1
1770928314355389440,0.03257344663143158,1,0.0005545846652239561,1,0.00229961471632123,1
1770928314455446272,0.07650424540042877,1,0.004586923867464066,1,0.01199430413544178,1
1770928314555390720,0.04975058510899544,1,0.005742746870964766,1,0.003051395993679762,1
1770928314655370496,0.04510679468512535,1,0.004588385112583637,1,0.00246411026455462,1
1770928314755394560,-0.009304041974246502,1,-0.001078369561582804,1,-0.04862144961953163,1
1770928314855356416,0.04615704342722893,1,0.001613551517948508,1,0.006981316953897476,1
1770928314955297280,-0.003328494727611542,1,0.02815670147538185,1,-0.02513878419995308,1
1770928315055314432,0.03481384366750717,1,0.003737128106877208,1,0.0003334740758873522,1
1770928315155263488,-0.04573049023747444,1,-0.01289627701044083,1,-0.02319579385221004,1
1770928315255268608,0.06458192318677902,1,0.0239679291844368,1,0.003933893050998449,1
1770928315355332096,0.02132252044975758,1,-0.004043646156787872,1,-0.002760288072749972,1
1770928315455293440,0.004455829970538616,1,-0.0335816890001297,1,-0.04289297759532928,1
1770928315555225600,0.04110271856188774,1,0.01062315236777067,1,-0.01080704759806395,1
1770928315655240704,0.04754138365387917,1,0.03831217437982559,1,0.006605381146073341,1
1770928315755188992,0.04593610018491745,1,0.005324975121766329,1,-0.01790719293057919,1
1770928315855193344,0.03895406052470207,1,0.003781943814828992,1,0.000994092202745378,1
1770928315955298304,-0.003768965601921082,1,0.01129053346812725,1,-0.0112324682995677,1
1770928316055256320,0.04708476364612579,1,0.00318621308542788,1,-0.01065780222415924,1
1770928316155194112,0.03823131695389748,1,-0.002810473553836346,1,-0.0006957597797736526,1
1770928316255233536,0.0368729829788208,1,0.001177701749838889,1,-7.676472887396812e-05,1
1770928316355206144,0.09886183589696884,1,-0.004467330407351255,1,0.002860799664631486,1
1770928316455160064,0.05727336555719376,1,-0.0004813220875803381,1,-0.0004529047291725874,1
1770928316555229440,0.04819327965378761,1,-0.001884077908471227,1,0.001825938932597637,1
1770928316655224320,0.05119183659553528,1,0.006268726661801338,1,-0.007536321878433228,1
1770928316755154176,0.04176169633865356,1,0.001459264662116766,1,0.005273820832371712,1
1770928316855170048,0.03830621019005775,1,0.001847804989665747,1,0.003184695960953832,1
1770928316955126272,-0.06474393606185913,1,-0.01961956918239594,1,0.5879964828491211,1
1770928317055094784,0.05477964133024216,1,0.003882349701598287,1,0.004595993086695671,1
1770928317155111168,0.1096989214420319,1,0.01306546293199062,1,0.06153204292058945,1
1770928317255061248,0.04439723864197731,1,-0.002202712465077639,1,0.00716386316344142,1
1770928317355014144,0.04287290573120117,1,0.003093251027166843,1,-0.002312032040208578,1
1770928317455076352,0.02517786435782909,1,0.003632012289017439,1,-0.002928356872871518,1
1770928317555059712,0.03507567942142487,1,-0.004063683561980724,1,0.0030745395924896,1
1770928317655004928,-0.08346067368984222,1,-0.06141333654522896,1,-0.0247137900441885,1
1770928317755039744,0.03667214512825012,1,0.0009395441156812012,1,0.001346850302070379,1
1770928317854990592,0.03333523124456406,1,-0.002403652761131525,1,-0.002336736768484116,1
1770928317954958848,0.02173872664570808,1,0.05248673260211945,1,-0.00556412385776639,1
1770928318054981632,0.01063879672437906,1,0.007242201361805201,1,0.003584115765988827,1
1770928318154951936,0.04213806986808777,1,-0.0007234009099192917,1,0.0004541545640677214,1
1770928318254937344,0.04015171900391579,1,0.0008959495462477207,1,-0.002800647402182221,1
1770928318355011072,0.06271868199110031,1,-0.0114899231120944,1,0.01820365153253078,1
1770928318454979840,0.04323773831129074,1,0.002536965068429708,1,-1.208740286529064e-06,1
1770928318554918144,0.02319629676640034,1,0.00259369658306241,1,-0.001122026704251766,1
1770928318654984448,0.04785262048244476,1,0.03839172795414925,1,0.01450177095830441,1
1770928318755026432,0.05871909484267235,1,-0.002361795399338007,1,0.01480599027127028,1
1770928318854975488,0.04623551666736603,1,-0.0001483915839344263,1,-0.0002165504702134058,1
1770928318955005184,-0.1062526479363441,1,0.05868960916996002,1,0.004659496247768402,1
1770928319054972672,0.1161661297082901,1,0.01158987358212471,1,-0.003378632012754679,1
1770928319154911232,0.03221604600548744,1,0.003702377900481224,1,-0.006080469116568565,1
1770928319254954240,0.01828649640083313,1,-0.0107737947255373,1,-0.01933369040489197,1
1770928319354902272,0.04448748379945755,1,0.0002055524382740259,1,-0.003982705064117908,1
1770928319454841856,0.0302088800817728,1,-0.003794877557083964,1,-0.007326788734644651,1
1770928319554881024,0.02104486152529716,1,-0.01504860352724791,1,-0.004404716193675995,1
1770928319654873088,0.03495948389172554,1,0.000729541527107358,1,0.007404882926493883,1
1770928319754870528,0.05240591242909431,1,-0.0004449104890227318,1,-0.0072897644713521,1
1770928319854895872,0.03938384354114532,1,-0.000127121340483427,1,9.872950613498688e-06,1
1770928319954880000,0.04206344112753868,1,-0.001945134135894477,1,0.001949176075868309,1
1770928320054825728,0.03269059211015701,1,0.003579444019123912,1,0.002231976483017206,1
1770928320154855424,0.05047433450818062,1,0.001147209899500012,1,-0.0003356756642460823,1
1770928320254804736,0.1953104734420776,1,0.04463323578238487,1,0.1268371194601059,1
1770928320354825984,0.08218138664960861,1,-0.01216958928853273,1,0.004633102566003799,1
1770928320454850304,0.04420770332217216,1,-0.0004321705782786012,1,-0.01373983360826969,1
1770928320554821120,0.04786979034543037,1,0.003610031446442008,1,-0.00661586644127965,1
1770928320654757120,0.2562139630317688,1,0.05947467684745789,1,0.1383799314498901,1
1770928320754796032,0.004974223207682371,1,-0.004204937256872654,1,-0.01315370760858059,1
1770928320854765056,0.02467124536633492,1,0.001718681771308184,1,0.003877767594531178,1
1770928320954707968,0.05449995398521423,1,0.01118468772619963,1,0.001243158127181232,1
1770928321054732800,0.04871038720011711,1,0.002118905773386359,1,0.0001021201023831964,1
1770928321154694912,0.03533482179045677,1,0.002257126849144697,1,-0.002840244676917791,1
1770928321254640896,0.04430240020155907,1,-0.0003719808009918779,1,0.004663505125790834,1
1770928321354661632,0.06158645451068878,1,-0.006189124658703804,1,-0.002262629568576813,1
1770928321454614528,0.03518881648778915,1,-1.529906876385212e-05,1,-0.004261554218828678,1
1770928321554552320,-0.1207089498639107,1,0.03062456846237183,1,-0.03418553620576859,1
1770928321654604288,0.1606274396181107,1,-0.01331198215484619,1,0.0522347167134285,1
1770928321754563072,0.04505638033151627,1,0.004432149231433868,1,-0.004241968039423227,1
1770928321854531328,0.03671607747673988,1,-0.004955186974257231,1,-0.009042717516422272,1
1770928321954589440,0.02296014875173569,1,-0.01837987080216408,1,-0.002373779192566872,1
1770928322054550016,0.06102783605456352,1,-0.002390946028754115,1,-0.001649413956329226,1
1770928322154527488,-0.248044490814209,1,0.1039104834198952,1,-0.07604557275772095,1
1770928322254549248,0.0776292011141777,1,-0.008352471515536308,1,-0.006166952662169933,1
1770928322354522624,0.03831159323453903,1,-0.0006345805013552308,1,-0.003274820046499372,1
1770928322454458880,0.03858208656311035,1,0.0009499414591118693,1,-0.004745783749967813,1
1770928322554478592,0.01863880455493927,1,-0.01673476025462151,1,0.01106798090040684,1
1770928322654460928,0.07048784196376801,1,-0.009207514114677906,1,-0.01635485328733921,1
1770928322754415360,0.03006299585103989,1,-7.714680396020412e-05,1,0.003638738533481956,1
1770928322854512896,0.1271678656339645,1,-0.007606112398207188,1,0.01499560941010714,1
1770928322954790400,0.004887851886451244,1,0.004412055946886539,1,0.005631853360682726,1
1770928323054791168,0.0450342521071434,1,0.001757537247613072,1,-0.002110047498717904,1
1770928323154807808,0.01574097946286201,1,0.0120234303176403,1,-0.00720647070556879,1
1770928323254758144,0.03242509067058563,1,0.01386085525155067,1,0.01805330440402031,1
1770928323354698240,0.04106198623776436,1,-0.0006030505755916238,1,0.01082027330994606,1
1770928323454722560,-0.02599163539707661,1,0.01070289220660925,1,-0.02420724369585514,1
1770928323554678016,-0.2185491919517517,1,-0.0812632292509079,1,-0.07084602862596512,1
1770928323654621184,0.05348541960120201,1,0.006266182754188776,1,-0.02363770455121994,1
1770928323754649856,0.006047992035746574,1,0.004199320450425148,1,0.0039801225066185,1
1770928323854606848,-0.09007806330919266,1,-0.05797455087304115,1,-0.02876437082886696,1
1770928323954597888,0.04513131082057953,1,-0.003444082569330931,1,0.002713777124881744,1
1770928324054620672,0.02213244885206223,1,0.003659376641735435,1,-0.001777205616235733,1
1770928324154573056,0.02660785987973213,1,0.01132929231971502,1,0.02455136738717556,1
1770928324254517760,0.02888793684542179,1,-0.001078332774341106,1,0.005140084773302078,1
1770928324354572544,0.03963692486286163,1,-0.005992892198264599,1,-0.002105218823999166,1
1770928324454587904,-0.1866157352924347,1,-0.1097348481416702,1,-0.1664925217628479,1
1770928324554576896,0.04404640197753906,1,0.006757033057510853,1,-0.009360669180750847,1
1770928324654642176,0.04419028759002686,1,0.001817511743865907,1,0.0009192326688207686,1
1770928324754638336,0.03341740369796753,1,-0.0009819697588682175,1,-0.001685343915596604,1
1770928324854621184,0.02987836301326752,1,-0.0007324928883463144,1,0.001021538162603974,1
1770928324954665216,0.04562423378229141,1,-0.002751607913523912,1,-0.003804298583418131,1
1770928325054617088,0.04138810560107231,1,-0.001066058990545571,1,-0.001671360339969397,1
1770928325154557696,0.04386841505765915,1,-0.0004038605839014053,1,0.00179834826849401,1
1770928325254630400,0.04263762384653091,1,0.001469929004088044,1,-0.005288856569677591,1
1770928325354629632,0.04670965671539307,1,-0.002592461183667183,1,-0.001286484068259597,1
1770928325454628864,0.04074019193649292,1,0.0001606098376214504,1,0.0007930946303531528,1
1770928325554659840,0.03875594586133957,1,-0.001968035008758307,1,-0.001168620539829135,1
1770928325654646784,0.04135426506400108,1,8.737367170397192e-05,1,-0.0030422976706177,1
1770928325754587136,0.04389026015996933,1,0.0004264044109731913,1,0.0009420659043826163,1
1770928325854627328,0.03528496623039246,1,-0.0007109843427315354,1,-0.004315156023949385,1
1770928325954618368,0.04172326251864433,1,0.00117959245108068,1,0.0002652032999321818,1
1770928326054575616,0.04671942815184593,1,0.002796249696984887,1,-0.002438763622194529,1
1770928326154598400,0.04123573005199432,1,0.002835868392139673,1,-0.001329873688519001,1
1770928326254554880,0.04488368704915047,1,-0.00036141651798971,1,0.009529698640108109,1
1770928326354540288,0.04294904693961143,1,0.001511233625933528,1,0.000765270262490958,1
1770928326454561536,0.04574315622448921,1,0.00273234536871314,1,0.0003358563408255577,1
1770928326554510592,0.03620139881968498,1,-0.001090776990167797,1,-0.003703689202666283,1
1770928326654450432,0.03736944496631622,1,0.0009385559824295342,1,0.002749182283878326,1
1770928326754470400,0.03747883066534996,1,-0.004713977221399546,1,0.001078677829355001,1
1770928326854421248,0.03696371987462044,1,0.004918106365948915,1,0.00914317462593317,1
1770928326954363136,0.03381460160017014,1,0.001656900043599308,1,-0.005728079937398434,1
1770928327054400512,0.04636759683489799,1,0.000374186085537076,1,0.002151877153664827,1
1770928327154386176,0.03371194377541542,1,-0.001056209555827081,1,0.001099923858419061,1
1770928327254327040,0.04130986332893372,1,-0.004320524167269468,1,0.007456659805029631,1
1770928327354353152,0.04438034817576408,1,-0.0009220878127962351,1,-0.001461916835978627,1
1770928327454321152,0.03965280205011368,1,-0.003157752566039562,1,-0.001308196107856929,1
1770928327554288896,0.0492800660431385,1,0.0007675375672988594,1,0.002189813181757927,1
1770928327654311936,0.04082434624433517,1,-0.005335970316082239,1,-3.226101398468018e-05,1
1770928327754318592,0.06126062572002411,1,0.002265683375298977,1,0.03117313049733639,1
1770928327854281216,0.03996550291776657,1,0.02529229782521725,1,-0.0686551034450531,1
1770928327954302720,0.07877341657876968,1,0.04616214334964752,1,0.2414416074752808,1
1770928328054259712,0.01413719914853573,1,-0.006988085806369781,1,-0.09407517313957214,1
1770928328154227712,0.2399732619524002,1,1.788265824317932,1,0.1106941998004913,1
1770928328254293248,-0.03213397786021233,1,-1.37339198589325,1,-1.130809664726257,1
1770928328354259968,-0.06897681951522827,1,-1.145876169204712,1,0.4135791957378387,1
1770928328454291712,0.07364475727081299,1,-0.6552476286888123,1,-0.07739373296499252,1
1770928328554732032,-0.05231029540300369,1,-0.3726113736629486,1,-0.5243542790412903,1
1770928328654762496,0.179844856262207,1,0.01431796327233315,1,1.038955569267273,1
1770928328754744832,0.05597743391990662,1,1.088127374649048,1,0.2505504786968231,1
1770928328854788608,0.04597392305731773,1,-0.0006630244897678494,1,0.01639978215098381,1
1770928328954744576,0.01452841050922871,1,-0.2516606152057648,1,1.42191755771637,1
1770928329054691840,0.07819394022226334,1,0.691167950630188,1,-1.853545308113098,1
1770928329154715136,0.05339275300502777,1,-0.1443992108106613,1,-0.289342075586319,1
1770928329254669056,0.101676732301712,1,-0.05456288158893585,1,0.3122201859951019,1
1770928329354622464,0.0317532941699028,1,0.0007300407160073519,1,-0.02498035132884979,1
1770928329454658560,0.0517943762242794,1,0.004165379796177149,1,0.004478000570088625,1
1770928329554611200,0.03702486306428909,1,-0.5369694232940674,1,0.004373714793473482,1
1770928329654561280,-0.1230611726641655,1,0.1938020288944244,1,-0.3979546427726746,1
1770928329754616832,0.2182417511940002,1,0.1443947851657867,1,0.1460752338171005,1
1770928329854604544,-0.1912791281938553,1,0.02392029017210007,1,-0.27122962474823,1
1770928329954587392,0.03061992675065994,1,0.0008032088517211378,1,-0.00261984602548182,1
1770928330054611456,-0.02149452269077301,1,-0.004587868228554726,1,-0.07746214419603348,1
1770928330154567168,0.04469595849514008,1,0.002699917880818248,1,0.006020931527018547,1
1770928330254568960,0.05041464790701866,1,0.003351884428411722,1,-0.005783289670944214,1
1770928330354592000,0.02677233703434467,1,0.002712859306484461,1,-0.01134494505822659,1
1770928330454574592,0.02183804288506508,1,-0.002559453248977661,1,-0.03828783333301544,1
1770928330554604032,0.03771225363016129,1,0.01089891418814659,1,-0.001824305392801762,1
1770928330654629120,0.04560266062617302,1,0.001662676688283682,1,0.003589966800063848,1
1770928330754586624,0.0388510599732399,1,0.0006733273039571941,1,-0.007835100404918194,1
1770928330854595584,0.04171392694115639,1,0.001716957776807249,1,-0.002089259913191199,1
1770928330954671872,0.05034476146101952,1,-0.002659644233062863,1,-0.01128914952278137,1
1770928331054623232,0.04128745943307877,1,0.007897921837866306,1,0.01220554858446121,1
1770928331154571264,0.03742783516645432,1,-0.001313232816755772,1,-0.0007213347125798464,1
1770928331254632192,0.04442378133535385,1,0.0007424739887937903,1,-0.002179722301661968,1
1770928331354629120,0.04158483818173409,1,0.006371951196342707,1,0.0003809482441283762,1
1770928331454593792,0.04061052575707436,1,0.001922920695506036,1,0.0004475704627111554,1
1770928331554654208,0.01967230997979641,1,0.007428166922181845,1,0.02467261627316475,1
1770928331654637312,0.04411788284778595,1,-0.005129059311002493,1,-0.008513307198882103,1
1770928331754583040,0.04296868667006493,1,-0.0004653485957533121,1,0.01207722164690495,1
1770928331854604032,0.04024795442819595,1,0.003185849403962493,1,0.0006651619332842529,1
1770928331954612992,0.04091330245137215,1,0.00645700516179204,1,-0.005780396517366171,1
1770928332054557952,0.03604575991630554,1,-0.005769508890807629,1,-0.001743946690112352,1
1770928332154579200,0.03708667680621147,1,-0.00403845589607954,1,-0.005009825341403484,1
1770928332254535424,0.04563890770077705,1,0.003675553482025862,1,0.004764076322317123,1
1770928332354498560,0.04837518185377121,1,0.003037114627659321,1,0.005704815033823252,1
1770928332454561792,0.03758532181382179,1,-0.0005774487508460879,1,0.008099174126982689,1
1770928332554512640,0.03783496841788292,1,-0.002172602107748389,1,0.00609097070991993,1
1770928332654466816,0.0344715490937233,1,0.0008162098820321262,1,-0.001723007648251951,1
1770928332754596096,0.04601608216762543,1,-6.157204188639298e-05,1,0.003611771855503321,1
1770928332854630144,-0.2763466238975525,1,0.01280979439616203,1,-0.2158220410346985,1
1770928332954578944,0.0194438211619854,1,-0.004709741100668907,1,0.01244186703115702,1
1770928333054608384,0.02512947842478752,1,0.005233421456068754,1,0.007778765168040991,1
1770928333154567680,0.2048254907131195,1,0.09366647899150848,1,0.1408489048480988,1
1770928333254508288,0.08630898594856262,1,-0.002433785237371922,1,0.02087493799626827,1
1770928333354550784,0.03070169314742088,1,-0.001678608125075698,1,-0.004453512374311686,1
1770928333454549760,0.03657063841819763,1,0.004265588708221912,1,0.004743083380162716,1
1770928333554512128,0.0891241654753685,1,0.02232874929904938,1,0.01276262011379004,1
1770928333654535680,0.0477215014398098,1,-0.0002724859514273703,1,0.01762252114713192,1
1770928333754497280,0.06076621264219284,1,-0.00167758937459439,1,-0.00561372097581625,1
1770928333854472448,0.1101516783237457,1,0.04512955248355865,1,0.08751912415027618,1
1770928333954521856,0.05073273554444313,1,-0.003550232853740454,1,-0.01219379901885986,1
1770928334054504704,0.04528800025582314,1,-0.0003997993189841509,1,-0.004408787935972214,1
1770928334154451968,0.03606934100389481,1,0.002254698891192675,1,0.003907779697328806,1
1770928334254472704,-0.006610036827623844,1,0.01171818375587463,1,-0.009116045199334621,1
1770928334354424832,0.05679318681359291,1,0.002459740499034524,1,0.009335245937108994,1
1770928334454410496,0.02873621322214603,1,0.0002025327412411571,1,-0.003234731033444405,1
1770928334554479104,0.1306082308292389,1,0.006522615440189838,1,0.06095873564481735,1
1770928334654431232,0.04192903637886047,1,0.002540455665439367,1,-0.009815302677452564,1
1770928334754391552,0.04343663528561592,1,0.004796376451849937,1,0.00539381755515933,1
1770928334854456064,0.026052076369524,1,0.00466429116204381,1,0.02266764082014561,1
1770928334954410752,0.03032911010086536,1,0.0008516415837220848,1,-0.0002137916599167511,1
1770928335054357248,0.03627538308501244,1,0.007692218758165836,1,0.003226826433092356,1
1770928335154420224,0.0262614618986845,1,0.001193562056869268,1,0.003346279263496399,1
1770928335254447104,0.04005073383450508,1,-0.001952010323293507,1,0.002953641349449754,1
1770928335354458624,0.03988367319107056,1,0.000662915175780654,1,0.002141163917258382,1
1770928335454550016,0.04578656330704689,1,0.006083614658564329,1,0.003394135273993015,1
1770928335554509056,0.04292593523859978,1,-0.002534357365220785,1,0.001868244376964867,1
1770928335654508544,0.0399809330701828,1,-0.001087621902115643,1,0.001347742159850895,1
1770928335754540032,0.03662378713488579,1,0.002472979482263327,1,-0.002292724093422294,1
1770928335854498816,0.0511397197842598,1,0.004056816454976797,1,-0.001136131701059639,1
1770928335954471936,0.04457492381334305,1,0.000695836846716702,1,0.003967911936342716,1
1770928336054567936,0.1111180260777473,1,0.006980548612773418,1,0.09045162051916122,1
1770928336154553856,0.02039565891027451,1,-0.002170093823224306,1,-0.01952925510704517,1
1770928336254502144,-0.01147275138646364,1,-0.003608172060921788,1,-0.06213166192173958,1
1770928336354539776,0.1256630420684814,1,0.005072110332548618,1,0.09113694727420807,1
1770928336454506752,0.03772495687007904,1,0.001570682041347027,1,0.003899985458701849,1
1770928336554473216,-0.1000427678227425,1,-0.01131100673228502,1,-0.1899701654911041,1
1770928336654550528,0.03574049845337868,1,0.001621830742806196,1,-0.01312726922333241,1
1770928336754532608,0.1500765383243561,1,0.009383536875247955,1,0.1406567096710205,1
1770928336854476800,0.01273337658494711,1,-0.005183587316423655,1,-0.03707072883844376,1
1770928336954545152,0.01662839576601982,1,0.002472479827702045,1,-0.03202320635318756,1
1770928337054601728,0.05125190317630768,1,0.002111207693815231,1,-0.002840529195964336,1
1770928337154539520,-0.07746425271034241,1,-0.005809160880744457,1,-0.1398715972900391,1
1770928337254570496,0.02906049974262714,1,0.003232357557862997,1,-0.02769704349339008,1
1770928337354552320,0.09199788421392441,1,-0.07181581109762192,1,0.1922566890716553,1
1770928337454534912,0.03292261436581612,1,0.001267089042812586,1,-0.0128087205812335,1
1770928337554565376,0.00752661470323801,1,0.001439018175005913,1,-0.03942089527845383,1
1770928337654524416,-0.01559850946068764,1,0.04622554033994675,1,-0.077507384121418,1
1770928337754503936,-0.1181604340672493,1,-0.006711096037179232,1,-0.2031920850276947,1
1770928337854573568,-0.5116096138954163,1,-0.1252515614032745,1,-0.7426851987838745,1
1770928337954572288,0.03156868740916252,1,0.001246376428753138,1,0.003305574879050255,1
1770928338054599168,0.04216769710183144,1,0.005611189641058445,1,0.008115708827972412,1
1770928338154649344,0.03945884853601456,1,0.005662763491272926,1,0.001406747382134199,1
1770928338254608384,0.05047914385795593,1,-0.5704149603843689,1,0.3615071773529053,1
1770928338354553344,0.02701991237699986,1,0.04713700711727142,1,2.868000268936157,1
1770928338454574080,-0.02987037599086761,1,-0.3897173404693604,1,3.004124402999878,1
1770928338554529024,-0.0542106106877327,1,-0.09945240616798401,1,3.737716197967529,1
1770928338654505216,0.1182778477668762,1,0.3911749124526978,1,-0.1292660534381866,1
1770928338754544896,0.06178987398743629,1,1.798868775367737,1,-3.494857788085938,1
1770928338854538496,-0.02443638443946838,1,-0.2367755472660065,1,-4.639014720916748,1
1770928338954499072,0.06657020747661591,1,-0.8493393063545227,1,-2.715763330459595,1
1770928339054521088,0.04974446073174477,1,0.01775497198104858,1,-0.0144339632242918,1
1770928339154473984,0.1183431595563889,1,0.03973573818802834,1,-0.01189944799989462,1
1770928339254411520,0.03806418925523758,1,-0.001247589942067862,1,-0.01510731969028711,1
1770928339354458112,0.04189199209213257,1,-0.001199825317598879,1,0.01046719681471586,1
1770928339454446336,0.04096966236829758,1,0.008534056134521961,1,-0.000759296293836087,1
1770928339554406912,0.01878728158771992,1,0.2861940562725067,1,-2.005814552307129,1
1770928339654507520,0.1096182614564896,1,-0.03123506158590317,1,-1.502929329872131,1
1770928339754797824,0.07119495421648026,1,1.782172918319702,1,-1.871015071868896,1
1770928339854798592,0.04250799119472504,1,0.5496645569801331,1,-0.5843985080718994,1
1770928339954841856,0.444794088602066,1,-0.2362161874771118,1,-1.675489783287048,1
1770928340054847488,0.1132722422480583,1,0.464802473783493,1,2.871936798095703,1
1770928340154796288,0.001862421631813049,1,-0.6179819107055664,1,3.564114809036255,1
1770928340254826496,0.05900859087705612,1,-0.5787387490272522,1,1.782552599906921,1
1770928340354787584,0.009390855208039284,1,-0.3797461986541748,1,1.015435814857483,1
1770928340454730240,0.03496820107102394,1,0.0517941452562809,1,1.054491519927979,1
1770928340554777856,0.04359124973416328,1,-0.01348505169153214,1,-0.04411669448018074,1
1770928340654776064,0.03959955275058746,1,-0.008875813335180283,1,-0.04347652196884155,1
1770928340754770688,0.04911462217569351,1,-0.0103869279846549,1,-0.04431319609284401,1
1770928340854866688,0.03716306388378143,1,-0.01498541049659252,1,-0.03843748942017555,1
1770928340954894336,0.03591342270374298,1,-0.00845881924033165,1,-0.04251285269856453,1
1770928341054857728,0.03849999606609344,1,-0.008304689079523087,1,-0.03366765379905701,1
1770928341154957312,0.04485302045941353,1,-0.008928853087127209,1,-0.03503227978944778,1
1770928341254987008,0.04275200888514519,1,-0.009258570149540901,1,-0.03300501778721809,1
1770928341354941184,-0.008440626785159111,1,0.1115595027804375,1,0.2044757753610611,1
1770928341455005952,-0.001174385659396648,1,-0.05956642329692841,1,-0.3885513544082642,1
1770928341554964992,0.04080674797296524,1,-0.01220535673201084,1,-0.02941663563251495,1
1770928341654904832,0.04307298362255096,1,-0.006156839895993471,1,-0.02693902514874935,1
1770928341754920960,0.04794251546263695,1,-0.01542601641267538,1,-0.01902856305241585,1
1770928341854868992,0.04067165404558182,1,-0.003966821823269129,1,-0.02372879534959793,1
1770928341954806272,0.04310182109475136,1,-0.007175044156610966,1,-0.02536166086792946,1
1770928342054826496,0.02059024944901466,1,-0.002678776392713189,1,-0.01941848546266556,1
1770928342154775040,-0.004047631286084652,1,-0.02652164734899998,1,-0.1030718237161636,1
1770928342254714624,0.04042663425207138,1,-0.00699892919510603,1,-0.01839952915906906,1
1770928342354732288,-0.131357803940773,1,-0.07186110317707062,1,0.1444851905107498,1
1770928342454687232,0.03250256180763245,1,-0.01337943971157074,1,0.00851947907358408,1
1770928342554654464,0.04336875304579735,1,-0.005880092270672321,1,-0.01113282889127731,1
1770928342654673920,-0.4081404805183411,1,-0.005250665824860334,1,-0.5392819046974182,1
1770928342754627584,0.01979147270321846,1,-0.01447446830570698,1,-0.09661854058504105,1
1770928342854594048,0.0756969079375267,1,0.053548663854599,1,-0.0449444092810154,1
1770928342954616832,0.0468028262257576,1,-1.085705399513245,1,0.8512978553771973,1
1770928343054568192,0.08253283798694611,1,-1.128979325294495,1,-0.3389395475387573,1
1770928343154506240,-0.06341979652643204,1,1.765476107597351,1,-0.9229322671890259,1
1770928343254525440,-0.09011055529117584,1,0.05219070985913277,1,-0.05093854293227196,1
1770928343354474496,0.00759035162627697,1,-0.00951864942908287,1,-0.04561419412493706,1
1770928343454432000,-0.02634602040052414,1,-0.2171017974615097,1,-0.3700885772705078,1
1770928343554490880,0.2933647036552429,1,0.05896136164665222,1,0.3395749032497406,1
1770928343654446080,-0.3157194554805756,1,0.3077627718448639,1,0.1223215907812119,1
1770928343754399232,0.05854098126292229,1,2.297141790390015,1,4.309224128723145,1
1770928343854448896,0.1122041493654251,1,-1.590713977813721,1,1.076948881149292,1
1770928343954416640,-0.365724116563797,1,1.403257608413696,1,0.1596022844314575,1
1770928344054403584,-0.1363427639007568,1,-0.1570572555065155,1,-0.1428339630365372,1
1770928344154464000,-0.6899260282516479,1,-0.2958850860595703,1,0.1195968016982079,1
1770928344254494208,0.06431932747364044,1,-1.0132075548172,1,-1.953488349914551,1
1770928344354431488,0.03012081980705261,1,-0.5298470854759216,1,-1.432345747947693,1
1770928344454470656,0.2255416959524155,1,0.07555937767028809,1,-0.5043523907661438,1
1770928344554443264,-0.1814316660165787,1,0.2761414051055908,1,1.059842586517334,1
1770928344654746368,0.3921447694301605,1,0.06110817939043045,1,-0.09890647977590561,1
1770928344755122432,0.06113888323307037,1,-0.08226010203361511,1,-0.4180058538913727,1
1770928344855093504,0.193381667137146,1,-1.217495799064636,1,-0.1640217304229736,1
1770928344955077632,-0.07668065279722214,1,0.803260326385498,1,-0.4642151594161987,1
1770928345055155712,-0.2050247192382813,1,-0.3839875757694244,1,-4.363747119903564,1
1770928345155133696,0.3467687666416168,1,-0.7130405902862549,1,-2.157650709152222,1
1770928345255062528,-0.01325513608753681,1,0.4059157073497772,1,1.978708148002625,1
1770928345355073280,0.197957843542099,1,0.6141862273216248,1,1.544217467308044,1
1770928345455019776,-0.04253615811467171,1,0.08512105047702789,1,1.617561817169189,1
1770928345554993920,0.6161353588104248,1,0.9650431275367737,1,2.955837726593018,1
1770928345655025152,0.06866667419672012,1,-0.1116616651415825,1,-0.006967891007661819,1
1770928345754976256,0.0475492998957634,1,-0.1005166918039322,1,-0.7629868388175964,1
1770928345854924032,0.07380931079387665,1,0.8377102613449097,1,-0.07763671875,1
1770928345954970368,0.1252436637878418,1,0.7305095195770264,1,0.5508437156677246,1
1770928346054945024,0.05247950926423073,1,-0.7929297685623169,1,1.403977513313293,1
1770928346154936320,-0.1190624088048935,1,-4.559878349304199,1,2.109870672225952,1
1770928346254953984,-0.06990469992160797,1,-1.871376752853394,1,-0.2402652651071548,1
1770928346354902784,-0.04120327532291412,1,1.202131986618042,1,-1.414788484573364,1
1770928346454844416,0.1862893849611282,1,1.984909176826477,1,-2.259036302566528,1
1770928346554880000,0.1182703375816345,1,1.126344203948975,1,-1.655183553695679,1
1770928346654863872,-0.04117854312062263,1,-0.2415024638175964,1,0.2240049839019775,1
1770928346754836736,0.01217341981828213,1,-0.7895013093948364,1,0.6407417058944702,1
1770928346854865152,0.1661537438631058,1,-1.61622154712677,1,-0.02511186152696609,1
1770928346954820352,0.01680083572864532,1,1.024578094482422,1,-0.9470998048782349,1
1770928347054812672,0.02552269026637077,1,0.617441713809967,1,-0.8644039034843445,1
1770928347155192832,0.02987281233072281,1,-0.1753400564193726,1,0.1445758938789368,1
1770928347255158784,0.07451749593019485,1,-0.1783879101276398,1,-0.1342041939496994,1
1770928347355112448,0.003508500754833221,1,0.3130902647972107,1,-0.6274087429046631,1
1770928347455166464,0.1047631800174713,1,0.628393292427063,1,-1.615643739700317,1
1770928347555129856,0.3338055610656738,1,1.688203692436218,1,-0.295574963092804,1
1770928347655176448,0.3760468065738678,1,-0.5463831424713135,1,-0.645064651966095,1
1770928347755247360,-0.1480424702167511,1,-0.5824042558670044,1,0.4441322684288025,1
1770928347855199488,0.04765794426202774,1,-0.6285864114761353,1,1.564435362815857,1
1770928347955151616,-0.07593738287687302,1,-3.167207479476929,1,1.074532032012939,1
1770928348055215616,0.08441999554634094,1,-0.1774762868881226,1,0.9756519794464111,1
1770928348155229952,0.1205956339836121,1,-0.1624462604522705,1,0.1135955899953842,1
1770928348255160576,0.09332077950239182,1,-0.2151953876018524,1,-0.4841427206993103,1
1770928348355217408,0.02890651114284992,1,-0.2642568051815033,1,0.3081631362438202,1
1770928348455236352,0.02121322229504585,1,-0.01245222054421902,1,-0.4614485502243042,1
1770928348555237632,0.01754634827375412,1,0.01581298746168613,1,0.2048821151256561,1
1770928348655271936,0.04543659463524818,1,-0.07472973316907883,1,0.0488569363951683,1
1770928348755244288,0.02844759821891785,1,-0.06330746412277222,1,0.0900372788310051,1
1770928348855221504,0.05184406414628029,1,-0.06289958208799362,1,0.06432997435331345,1
1770928348955261184,0.2134769558906555,1,-0.0558900348842144,1,0.2764783799648285,1
1770928349055256576,0.04152530059218407,1,-0.05396052822470665,1,0.04963192716240883,1
1770928349155252736,0.05557365715503693,1,-0.3016373813152313,1,0.450675904750824,1
1770928349255313920,0.03889911249279976,1,-0.04910627752542496,1,0.03869772329926491,1
1770928349355326720,0.06295254081487656,1,-0.04785782098770142,1,0.05836468562483788,1
1770928349455295488,0.1937597841024399,1,-0.01595932617783546,1,0.2055424302816391,1
1770928349555305984,0.1163906306028366,1,-0.2406778484582901,1,0.4836203455924988,1
1770928349655267840,-0.1972722560167313,1,-0.6562243103981018,1,0.1917138248682022,1
1770928349755247872,-0.9843604564666748,1,-2.570826053619385,1,0.3347708284854889,1
1770928349855282688,0.3942357897758484,1,-0.9248363375663757,1,0.7039579749107361,1
1770928349955294720,2.485816717147827,1,-0.9258824586868286,1,-0.1368713080883026,1
1770928350156071424,1.533721208572388,1,0.9652851819992065,1,0.8074265718460083,1
1770928350256302592,-0.2244790196418762,1,-1.466699719429016,1,-0.04705499112606049,1
1770928350356231680,0.01969165727496147,1,3.231011152267456,1,1.095397233963013,1
1770928350456238080,-0.2104922980070114,1,-0.4902049601078033,1,-0.9413039684295654,1
1770928350556227840,-0.1740450710058212,1,-0.1340300887823105,1,-0.2865332365036011,1
1770928350656155904,0.07616282999515533,1,-0.09682150930166245,1,0.09402855485677719,1
1770928350756162560,0.09385121613740921,1,-0.09960854053497314,1,0.08079904317855835,1
1770928350856114688,0.06253175437450409,1,-0.1230824962258339,1,0.05192165821790695,1
1770928350956136704,0.04163289442658424,1,-0.09193319827318192,1,0.03290057182312012,1
1770928351056211968,0.02019860222935677,1,-0.08933792263269424,1,0.0240128543227911,1
1770928351156188672,0.00767966266721487,1,-0.09030749648809433,1,0.01517735421657562,1
1770928351256123136,0.04877536371350288,1,-0.08018122613430023,1,0.04609027877449989,1
1770928351356131072,0.05009142309427261,1,-0.07468885183334351,1,0.03996815532445908,1
1770928351456067840,0.06734297424554825,1,-0.07058598846197128,1,0.05457820370793343,1
1770928351555995904,0.0596792958676815,1,-0.05788589641451836,1,0.0651840940117836,1
1770928351656039424,-0.03440442681312561,1,-0.0748191624879837,1,-0.05414243787527084,1
1770928351756045056,-0.09339708089828491,1,-0.07226323336362839,1,-0.1008681356906891,1
1770928351855977984,0.0457267239689827,1,-0.06205680966377258,1,0.03750227764248848,1
1770928351956019456,-0.004426183644682169,1,0.4162142276763916,1,0.3779350817203522,1
1770928352055997952,-0.1947518438100815,1,2.085660219192505,1,4.130593776702881,1
1770928352156231936,0.4122076332569122,1,3.723863840103149,1,0.183542937040329,1
1770928352256267776,-0.1530808955430984,1,-2.327270984649658,1,-1.628674268722534,1
1770928352356232192,0.1098730266094208,1,-2.941837787628174,1,-2.577774286270142,1
1770928352456159744,0.04836645722389221,1,-1.05104398727417,1,-2.19605016708374,1
1770928352556177664,0.04092011600732803,1,-0.05575526878237724,1,-0.2335417568683624,1
1770928352656119296,0.02563508227467537,1,-0.356497198343277,1,0.04314576461911201,1
1770928352756067840,0.03180066868662834,1,-0.248152032494545,1,-0.236737847328186,1
1770928352856132864,-0.1147223562002182,1,-0.6406160593032837,1,-1.018282890319824,1
1770928352956095744,0.003794431686401367,1,-1.021537184715271,1,-1.347520351409912,1
1770928353056032768,0.1400650143623352,1,-0.8017592430114746,1,-0.6779316663742065,1
1770928353156049664,-0.2746091485023499,1,0.2701572179794312,1,0.1426462382078171,1
1770928353255984384,0.1081758365035057,1,0.9982885122299194,1,0.5329473614692688,1
1770928353355911936,0.04424947500228882,1,2.047469854354858,1,1.649130344390869,1
1770928353455923712,0.09155067801475525,1,0.1202879250049591,1,0.5705090165138245,1
1770928353555878400,0.04227973520755768,1,0.008865184150636196,1,-0.01605519838631153,1
1770928353655815936,0.190496414899826,1,0.08113373070955276,1,0.3151010870933533,1
1770928353755850240,0.02107144147157669,1,0.06575127691030502,1,0.09858015179634094,1
1770928353855813632,0.07314412295818329,1,0.05956122279167175,1,0.1051343604922295,1
1770928353955766272,0.04555772989988327,1,0.05206417292356491,1,0.09298361092805862,1
1770928354055803648,0.05190495029091835,1,0.04516059905290604,1,0.07854355871677399,1
1770928354155792896,0.04644254222512245,1,0.04518615454435349,1,0.06914378702640533,1
1770928354255734528,0.04503130167722702,1,0.04319828748703003,1,0.06371744722127914,1
1770928354355741952,0.03588433936238289,1,0.03934486582875252,1,0.05341214686632156,1
1770928354455692032,0.0395599827170372,1,0.03588080406188965,1,0.05808072909712791,1
1770928354555638272,0.04194194078445435,1,0.03084523417055607,1,0.05921700224280357,1
1770928354655707648,0.04910913854837418,1,0.03461204096674919,1,0.05301840603351593,1
1770928354755737856,0.05609864741563797,1,0.03243865817785263,1,0.05255846306681633,1
1770928354855700480,0.04919881746172905,1,0.02987147681415081,1,0.04793742299079895,1
1770928354955742976,0.0300032701343298,1,0.019145667552948,1,0.05450164899230003,1
1770928355055737088,0.04348742961883545,1,0.02594999596476555,1,0.03741975873708725,1
1770928355155700224,0.03922984376549721,1,0.02986918017268181,1,0.04057108983397484,1
1770928355255752448,-0.04305819049477577,1,0.02261735312640667,1,0.02386189997196198,1
1770928355355752704,0.05902931094169617,1,0.02692215889692307,1,0.03795542195439339,1
1770928355455693056,0.03271343931555748,1,0.02834109589457512,1,0.04381738230586052,1
1770928355555716608,0.0530468076467514,1,0.02055708505213261,1,0.02925301156938076,1
1770928355655654656,0.0394180603325367,1,0.01553608290851116,1,0.03640814870595932,1
1770928355755585536,0.03658789768815041,1,0.0198189876973629,1,0.02723425999283791,1
1770928355855591424,0.04206835851073265,1,0.01756556145846844,1,0.03413713723421097,1
1770928355955597056,0.04197613894939423,1,0.01736433431506157,1,0.03399424627423286,1
1770928356055536896,0.04354212060570717,1,0.01284569315612316,1,0.03371687233448029,1
1770928356155571968,0.04584187641739845,1,0.01935330964624882,1,0.02476598881185055,1
1770928356255522048,0.04157059639692307,1,0.01426096260547638,1,0.02801802381873131,1
1770928356355488256,0.04012299701571465,1,0.01384227722883224,1,0.0267841462045908,1
1770928356455587072,0.05067500472068787,1,0.0218656025826931,1,0.02364506945014,1
1770928356555589632,0.04205763339996338,1,0.01676605641841888,1,0.02348046004772186,1
1770928356655554816,0.04247397929430008,1,0.01311155874282122,1,0.02217167057096958,1
1770928356755575296,0.04208189249038696,1,0.01791989430785179,1,0.02752826735377312,1
1770928356855520768,0.03945669159293175,1,0.01069873012602329,1,0.02112799882888794,1
1770928356955650048,0.04256915301084518,1,0.01418836507946253,1,0.01835595443844795,1
1770928357055669504,0.03974293172359467,1,0.01303845643997192,1,0.01635672152042389,1
1770928357155619328,0.03908251598477364,1,0.01419331692159176,1,0.02082711458206177,1
1770928357255556352,0.04297560825943947,1,0.01175238750874996,1,0.02500286884605885,1
1770928357355574016,0.03474541381001472,1,0.01114254165440798,1,0.02301743812859058,1
1770928357455520256,0.04156424850225449,1,0.01215727627277374,1,0.01843602582812309,1
1770928357555452928,0.04064715281128883,1,0.01348361000418663,1,0.02120181918144226,1
1770928357655465728,0.04364529997110367,1,0.01198111474514008,1,0.02354173921048641,1
1770928357755407872,0.04638531804084778,1,0.01449949108064175,1,0.01642706990242004,1
1770928357855340032,0.03581877052783966,1,0.01284920144826174,1,0.01674769073724747,1
1770928357955352576,0.04596675187349319,1,0.01140403840690851,1,0.02078922092914581,1
1770928358055361024,0.04340341314673424,1,0.00944038201123476,1,0.01949205063283443,1
1770928358155313408,0.03831732273101807,1,0.007267961278557777,1,0.01659824699163437,1
1770928358255336192,0.04327059537172318,1,0.01175509858876467,1,0.01939342729747295,1
1770928358355295232,0.035751823335886,1,0.01213546190410852,1,0.0208915900439024,1
1770928358455241216,0.04011042788624763,1,0.01204891037195921,1,0.01821060292422771,1
1770928358555284992,0.03768451139330864,1,0.01012461725622416,1,0.01446177251636982,1
1770928358655229952,0.04307886585593224,1,0.01077862642705441,1,0.01981948688626289,1
1770928358755191808,0.05032836273312569,1,0.008367876522243023,1,0.01452174503356218,1
1770928358855232000,0.03828055411577225,1,0.01027604937553406,1,0.01414008066058159,1
1770928358955235072,0.03700093924999237,1,0.007915900088846684,1,0.01717439852654934,1
1770928359055205120,0.04413252323865891,1,0.01225937623530626,1,0.01509637292474508,1
1770928359155257856,0.04331783205270767,1,0.008258669637143612,1,0.01210183370858431,1
1770928359255270912,0.04535944759845734,1,0.01650037802755833,1,0.01232754625380039,1
1770928359355242240,0.04730100929737091,1,0.00902892928570509,1,0.01460242830216885,1
1770928359455328512,0.03934398666024208,1,0.01081402879208326,1,0.01472447160631418,1
1770928359555292928,0.04153711721301079,1,0.007820926606655121,1,0.02036633715033531,1
1770928359655221760,0.03985952585935593,1,0.008132415823638439,1,0.01451354939490557,1
1770928359755257344,0.03871265426278114,1,0.009412887506186962,1,0.01509579736739397,1
1770928359855203840,0.04139237850904465,1,0.006572116632014513,1,0.01165977772325277,1
1770928359955149824,0.03299948573112488,1,0.004855320788919926,1,0.008898747153580189,1
1770928360055239424,0.04121293872594833,1,0.01339027006179094,1,0.01951382867991924,1
1770928360155275008,0.04785789549350739,1,0.008823489770293236,1,0.01567680947482586,1
1770928360255286272,0.0391228049993515,1,0.006517823785543442,1,0.01794362440705299,1
1770928360355352064,0.03932524472475052,1,0.005905435886234045,1,0.005651012063026428,1
1770928360455363328,0.04710417985916138,1,0.008415277116000652,1,0.01548456028103828,1
1770928360555338240,0.04692033678293228,1,0.004919838160276413,1,0.01433472894132137,1
1770928360655349504,0.0424831360578537,1,0.008851556107401848,1,0.01179792825132608,1
1770928360755297024,0.04553518071770668,1,0.01411156915128231,1,0.008135325275361538,1
1770928360855262720,0.04082811996340752,1,0.007554577197879553,1,0.0109783299267292,1
1770928360955288064,0.04522706940770149,1,0.009049305692315102,1,0.02027900330722332,1
1770928361055276544,0.03901044651865959,1,0.001602318487130105,1,0.01334271486848593,1
1770928361155233536,0.04610898718237877,1,0.009719616733491421,1,0.01281231082975864,1
1770928361255241984,0.0423424057662487,1,0.002662125742062926,1,0.01754730381071568,1
1770928361355187200,0.03599989041686058,1,0.006604524329304695,1,0.009616442956030369,1
1770928361455117568,0.03774227574467659,1,0.003751257434487343,1,0.01382993534207344,1
1770928361555134976,0.03645333647727966,1,0.007384884636849165,1,0.006383772939443588,1
1770928361655131904,0.04399555921554565,1,0.007448405027389526,1,0.01569916494190693,1
1770928361755080192,0.04488617554306984,1,-0.001579659641720355,1,0.009147100150585175,1
1770928361855102464,0.04466185346245766,1,0.003542441874742508,1,0.0115866381675005,1
1770928361955047424,0.04525576531887054,1,0.006294372957199812,1,0.01186536066234112,1
1770928362055007232,0.03969302773475647,1,0.0004194759530946612,1,0.0134483315050602,1
1770928362155070720,0.03801349923014641,1,0.004084379412233829,1,0.008912294171750546,1
1770928362255032320,0.04236751422286034,1,-0.0005403233226388693,1,0.01176321972161531,1
1770928362354978304,0.04084088280797005,1,0.005668228957802057,1,0.0108130220323801,1
1770928362454996992,0.05060873180627823,1,0.007392758037894964,1,0.009807746857404709,1
1770928362554975232,0.04210308194160461,1,0.003297099377959967,1,0.01300846971571445,1
1770928362654910208,0.04420556873083115,1,0.005265651270747185,1,0.01005193777382374,1
1770928362754945024,0.04496348276734352,1,0.003106664167717099,1,0.0173301137983799,1
1770928362854897920,0.05091983824968338,1,0.002287151757627726,1,0.01298435498028994,1
1770928362954895104,0.04327867180109024,1,0.001553943613544106,1,0.01098947413265705,1
1770928363054957568,0.03610226511955261,1,0.007967643439769745,1,0.01911171711981297,1
1770928363154903040,0.04723681509494781,1,-2.365501131862402e-05,1,0.003459031227976084,1
1770928363254843136,0.0409778356552124,1,0.001752709737047553,1,0.01222602277994156,1
1770928363354871808,0.04440832138061523,1,-0.002159127267077565,1,0.01210307702422142,1
1770928363454826240,0.03914563730359077,1,-0.003266606712713838,1,0.007223424036055803,1
1770928363554771712,0.04357847198843956,1,0.003671257989481091,1,0.01135219540446997,1
1770928363654803968,0.04197337850928307,1,0.006849594414234161,1,0.009416509419679642,1
1770928363754750464,0.03743027523159981,1,0.002338797086849809,1,0.01404811255633831,1
1770928363854688768,0.0411938838660717,1,0.002819540211930871,1,0.01469914149492979,1
1770928363954704640,0.03690012544393539,1,0.002149233827367425,1,0.007739778608083725,1
1770928364054652160,0.03908682614564896,1,0.007813143543899059,1,0.007334250956773758,1
1770928364154643200,0.04028262197971344,1,0.002002582419663668,1,0.007456870283931494,1
1770928364254758912,0.03984924778342247,1,0.004674282856285572,1,0.009563444182276726,1
1770928364355013120,0.04213662818074226,1,0.007694301195442677,1,0.009790746495127678,1
1770928364455008256,0.0452459417283535,1,0.004406406078487635,1,0.01275898609310389,1
1770928364555024896,0.04046466201543808,1,0.001299815252423286,1,0.009288406930863857,1
1770928364654968064,0.0485706552863121,1,0.004345215391367674,1,0.007567111402750015,1
1770928364754919424,0.04808012768626213,1,0.0008333249716088176,1,0.006549290381371975,1
1770928364854981120,0.03875155374407768,1,0.007009688764810562,1,0.004968323744833469,1
1770928364954949376,0.03875473141670227,1,0.005670765414834023,1,0.003848930122330785,1
1770928365054888448,0.0390644483268261,1,-0.0007901043281890452,1,0.007414865307509899,1
1770928365154913280,0.04178720340132713,1,-0.00362591608427465,1,0.002519941888749599,1
1770928365254878720,0.04104835912585258,1,-0.002407710999250412,1,0.005793500691652298,1
1770928365354839808,0.04307589307427406,1,0.002570596057921648,1,0.01924370229244232,1
1770928365454856704,0.04400304332375526,1,0.004262239672243595,1,0.008863821625709534,1
1770928365554807040,0.04191185161471367,1,-0.0005746925598941743,1,0.01587925292551517,1
1770928365654758400,0.0389527752995491,1,0.004923868924379349,1,0.01327182445675135,1
1770928365754806528,0.04804340749979019,1,0.001640050439164042,1,0.007192039862275124,1
1770928365854761216,0.04820789396762848,1,-0.000830073026008904,1,0.007017530500888824,1
1770928365954722048,0.04907824099063873,1,0.001907483907416463,1,0.007883232086896896,1
1770928366054763520,0.0386481024324894,1,0.003402157919481397,1,0.001202025800012052,1
1770928366154766592,0.04572125896811485,1,-0.001347972895018756,1,0.007254571653902531,1
1770928366254792704,0.04545759037137032,1,0.001446324284188449,1,0.010641367174685,1
1770928366354854400,0.04689757525920868,1,-0.0003076149150729179,1,0.01176353823393583,1
1770928366454812672,0.01927909255027771,1,-0.0005518547259271145,1,0.005338621325790882,1
1770928366554744320,0.03687745705246925,1,0.006175007671117783,1,0.0006389160407707095,1
1770928366654757888,0.04917951300740242,1,0.0004395546857267618,1,0.02093491889536381,1
1770928366754706944,0.0433100238442421,1,0.0006965987849980593,1,0.001433993456885219,1
1770928366854666240,0.04569738730788231,1,0.004268474876880646,1,0.002605396322906017,1
1770928366954721536,0.03819206729531288,1,0.0004632629279512912,1,0.003487008158117533,1
1770928367054672640,0.04431162774562836,1,-0.0003577015886548907,1,0.001907024066895247,1
1770928367154615808,0.04149581864476204,1,0.0007839879835955799,1,0.002105075400322676,1
1770928367254702080,0.03945468366146088,1,0.003609745763242245,1,0.00395919056609273,1
1770928367354946816,0.04387650638818741,1,-5.565863102674484e-05,1,0.00177101930603385,1
1770928367454899968,0.03475364297628403,1,-0.002721268218010664,1,0.009782987646758556,1
1770928367554956288,0.03205225989222527,1,-0.004454385489225388,1,0.004394684918224812,1
1770928367654948096,0.04078926891088486,1,0.0002221639733761549,1,0.007329384796321392,1
1770928367754906880,0.04901272803544998,1,0.007491023745387793,1,0.004439943470060825,1
1770928367854924288,0.04264320060610771,1,-0.002849836368113756,1,0.01368417777121067,1
1770928367954872832,0.03396212682127953,1,0.0001583732664585114,1,0.006576310377568007,1
1770928368054809600,0.04309140145778656,1,-0.01096922717988491,1,0.01389958709478378,1
1770928368154830336,0.04552712664008141,1,-0.0001926572585944086,1,0.01633360981941223,1
1770928368254783744,0.04780381545424461,1,0.005324054975062609,1,0.007991943508386612,1
1770928368354764032,0.03491213545203209,1,-0.002997211180627346,1,0.00654801819473505,1
1770928368455158272,0.03947354853153229,1,9.999342728406191e-05,1,0.002445813966915011,1
