Time,inertial-6286.188861:estLinearAccelX,inertial-6286.188861:estLinearAccelX:valid,inertial-6286.188861:estLinearAccelY,inertial-6286.188861:estLinearAccelY:valid,inertial-6286.188861:estLinearAccelZ,inertial-6286.188861:estLinearAccelZ:valid,inertial-6286.188861:estAngularRateX,inertial-6286.188861:estAngularRateX:valid,inertial-6286.188861:estAngularRateY,inertial-6286.188861:estAngularRateY:valid,inertial-6286.188861:estAngularRateZ,inertial-6286.188861:estAngularRateZ:valid
1772485620658900224,0.0001867680111899972,1,0.003231669310480356,1,-0.04124683886766434,1,-0.001130448887124658,1,-0.0009099860908463597,1,0.0001741464948281646,1
1772485620669614336,-0.0005000685923732817,1,-7.902621291577816e-05,1,-0.05333535000681877,1,0.0009553557028993964,1,-0.0006260945810936391,1,4.127907595830038e-05,1
1772485620680224256,-0.006569370627403259,1,-0.01035533752292395,1,-0.04809692874550819,1,0.002937581157311797,1,-0.0002711163251660764,1,-3.170973650412634e-05,1
1772485620690732288,-0.01465705782175064,1,0.001652033533900976,1,-0.02898821979761124,1,0.004779418464750051,1,0.000314989301841706,1,0.0001272933295695111,1
1772485620701137664,-0.01687441766262054,1,0.003645786782726645,1,-0.004417107440531254,1,0.00584409711882472,1,0.0007419615867547691,1,-3.246535561629571e-05,1
1772485620711441664,-0.01965248212218285,1,0.004989315290004015,1,0.04599007219076157,1,0.006158084142953157,1,0.001070190221071243,1,-0.0002881866530515254,1
1772485620721645824,-0.01668058149516582,1,-0.002666380954906344,1,0.08373191952705383,1,0.005241130013018847,1,0.0009413104271516204,1,-0.0003859805292449892,1
1772485620731749632,-0.009530416689813137,1,-0.007686242461204529,1,0.08253838866949081,1,0.004735890775918961,1,0.001045139157213271,1,-0.0004524104588199407,1
1772485620741754624,-0.001828511478379369,1,-0.008182497695088387,1,0.09712254256010056,1,0.002968500135466456,1,0.001293554087169468,1,-0.000271967553999275,1
1772485620751673088,0.005928512196987867,1,-0.004889778792858124,1,0.1095773130655289,1,0.001542301964946091,1,0.001292726257815957,1,-0.0001066049881046638,1
1772485620761498880,0.01523742917925119,1,-0.008708084933459759,1,0.1282286792993546,1,-0.0001266043691430241,1,0.001300375792197883,1,-3.512334660626948e-05,1
1772485620771230208,0.01492899749428034,1,-0.001422268454916775,1,0.1131827607750893,1,-0.001816209987737238,1,0.0008289071265608072,1,-0.0001192111958516762,1
1772485620780868096,0.01387113146483898,1,-0.003701245412230492,1,0.08823910355567932,1,-0.003096098080277443,1,0.0004206701705697924,1,3.109608951490372e-05,1
1772485620790411776,0.006620443426072598,1,-0.01116884406656027,1,0.04002772271633148,1,-0.003651992883533239,1,-5.330797284841537e-05,1,-0.0001891575375339016,1
1772485620799863040,-0.002130960347130895,1,-0.006558760069310665,1,0.04353835061192513,1,-0.00307986349798739,1,0.0001517513010185212,1,2.277641760883853e-05,1
1772485620809222656,-0.001504437648691237,1,-0.00738846231251955,1,0.04374299570918083,1,-0.002739428076893091,1,-0.0001827568048611283,1,6.834510713815689e-05,1
1772485620819097088,0.001027093851007521,1,-0.009993582963943481,1,0.03478569164872169,1,-0.002338955411687493,1,-0.0001548787840874866,1,0.0001534079056000337,1
1772485620829778432,0.001131333410739899,1,0.000267309311311692,1,0.02237819135189056,1,-0.002032099291682243,1,-0.00054159015417099,1,7.582636317238212e-05,1
1772485620840356864,0.003894273890182376,1,-0.0009960948955267668,1,0.005192607175558805,1,-0.001079691108316183,1,-0.0006594917504116893,1,-7.361539610428736e-05,1
1772485620850832384,0.005962061230093241,1,-0.003057491965591908,1,0.008815938606858253,1,-0.0008924294961616397,1,-0.0006600377382710576,1,5.602790679404279e-06,1
1772485620861209344,0.005270264577120543,1,-0.000380583165679127,1,0.01048812735825777,1,-0.0003100701433140785,1,-0.0006296906503848732,1,6.758681411156431e-05,1
1772485620871489792,-0.000176236848346889,1,-0.002646330278366804,1,-0.01536362618207932,1,0.001089729950763285,1,-0.0002725806261878461,1,3.733346238732338e-05,1
1772485620881670656,-0.008285488002002239,1,-0.0002316030440852046,1,-0.03284357488155365,1,0.002389182103797793,1,-9.54202187131159e-06,1,5.700902329408564e-05,1
1772485620891751936,-0.0154893770813942,1,0.004254179075360298,1,-0.01580354198813438,1,0.003884686622768641,1,0.0003360884438734502,1,0.0001103922331822105,1
1772485620901736192,-0.0165852140635252,1,-0.003516577649861574,1,0.01341679878532887,1,0.004929240792989731,1,0.0004781582392752171,1,0.0001837755989981815,1
1772485620911623424,-0.0143124321475625,1,-0.004189430270344019,1,0.03657464683055878,1,0.005538391880691051,1,0.001126626273617148,1,0.000192140752915293,1
1772485620921414144,-0.01335696969181299,1,0.001851479522883892,1,0.09137700498104095,1,0.004736278206110001,1,0.0007142978138290346,1,0.000137414361233823,1
1772485620931111680,-0.00686286436393857,1,-0.006225835531949997,1,0.1392240673303604,1,0.002705305814743042,1,0.0005363602540455759,1,2.78490551863797e-05,1
1772485620940714496,-0.007060667499899864,1,-0.01238346006721258,1,0.160518005490303,1,0.0001641854178160429,1,0.0006244404939934611,1,-0.0003341170377098024,1
1772485620950224128,-0.004963170271366835,1,0.001015211455523968,1,0.140693411231041,1,-0.002133178291842341,1,0.0003639450878836215,1,-0.0003488110669422895,1
1772485620959641344,-0.001760859275236726,1,-0.001900886418297887,1,0.1101237609982491,1,-0.003538876539096236,1,-0.000243067741394043,1,-0.0003463779867161065,1
1772485620968973056,0.006274855695664883,1,-0.01096498221158981,1,0.109967477619648,1,-0.005430479533970356,1,-0.0005316221504472196,1,-0.0002777610206976533,1
1772485620979280384,0.01277594175189734,1,-0.00934881903231144,1,0.1098551750183105,1,-0.006540089845657349,1,-0.001362050999887288,1,-0.0001333696709480137,1
1772485620989935872,0.00738203851506114,1,-0.00941784679889679,1,0.03187998756766319,1,-0.006420811172574759,1,-0.001739417435601354,1,-0.0001390422985423356,1
1772485621000488704,0.0004993387265130877,1,0.007669645361602306,1,-0.04586053267121315,1,-0.005100452341139317,1,-0.001121403882279992,1,9.12327814148739e-05,1
1772485621010939136,-0.00521123968064785,1,0.01226700562983751,1,-0.02634195983409882,1,-0.003771211253479123,1,-0.0006563510978594422,1,8.501866250298917e-05,1
1772485621021287680,-0.003224334213882685,1,-0.003940797410905361,1,0.0264956671744585,1,-0.002581417094916105,1,-0.0001951406593434513,1,-2.785483957268298e-05,1
1772485621031536640,-0.005194816272705793,1,-0.00972241535782814,1,0.03509368747472763,1,-0.001544601982459426,1,-0.0004839192843064666,1,-5.401048110798001e-05,1
1772485621041684736,-0.00406538974493742,1,-0.003318633884191513,1,-0.02356432378292084,1,-0.001020580297335982,1,-0.0006287662545219064,1,-0.0001251992798643187,1
1772485621051733248,0.0005569067434407771,1,-0.00717965280637145,1,-0.05117442831397057,1,0.0004320021253079176,1,-0.0004444012593012303,1,-9.176491585094482e-05,1
1772485621061686016,0.00608504842966795,1,-0.003474154509603977,1,-0.03373896330595016,1,0.002043898217380047,1,-2.514924744900782e-05,1,0.0001939316862262785,1
1772485621071552000,0.006039055064320564,1,0.001957861240953207,1,-0.007627883926033974,1,0.003641985589638352,1,0.0001925379619933665,1,5.640882227453403e-05,1
1772485621081322240,0.002257580403238535,1,0.001749542774632573,1,-0.01871791295707226,1,0.005293169524520636,1,0.0008267120574600995,1,0.000174863584106788,1
1772485621090996736,-0.00737375533208251,1,0.00572241609916091,1,-0.01154181268066168,1,0.005765913985669613,1,0.000768752652220428,1,6.890738586662337e-05,1
1772485621100577536,-0.009782958775758743,1,0.001959888497367501,1,0.02855225279927254,1,0.006494591943919659,1,0.0007166331633925438,1,6.46027983748354e-05,1
1772485621110065664,-0.00849887914955616,1,-0.01359184738248587,1,0.08939437568187714,1,0.005768483970314264,1,0.0009970413520932198,1,0.0003690501616802067,1
1772485621119459840,-0.007411363534629345,1,-0.0151947159320116,1,0.1395475119352341,1,0.004251273814588785,1,0.001317707705311477,1,0.0003806863096542656,1
1772485621128764416,-0.009986930526793003,1,-0.004676219075918198,1,0.1416831463575363,1,0.001948468736372888,1,0.0009813259821385145,1,0.0002211175742559135,1
1772485621139508480,-0.003370530437678099,1,-0.00482868729159236,1,0.1399520337581635,1,-0.0001365322677884251,1,0.0006389968330040574,1,0.0003278084914200008,1
1772485621150148864,0.009011194109916687,1,0.002428718842566013,1,0.1201277896761894,1,-0.001831792178563774,1,0.0001659466652199626,1,0.0003179661580361426,1
1772485621160685568,0.0166038554161787,1,0.000682731275446713,1,0.08744677901268005,1,-0.002815997460857034,1,-0.0002115889947162941,1,0.0001407144591212273,1
1772485621171121408,0.02292255125939846,1,-0.01255100220441818,1,0.0495593436062336,1,-0.003483170410618186,1,-0.0005507005844265223,1,4.234914376866072e-05,1
1772485621181458944,0.01889865845441818,1,-0.01272290293127298,1,0.08803410083055496,1,-0.00410260446369648,1,-0.0006034899270161986,1,0.0004518813802860677,1
1772485621191697664,0.01092260517179966,1,-0.009340407326817513,1,0.08104820549488068,1,-0.004760237410664558,1,-0.001169718685559928,1,-0.0001999491360038519,1
1772485621201835264,0.001401963178068399,1,-0.009732265956699848,1,0.03208118304610252,1,-0.004623313434422016,1,-0.001381129841320217,1,-0.0002573773381300271,1
1772485621211875328,-0.003507651854306459,1,0.008923489600419998,1,-0.002065136097371578,1,-0.003704725997522473,1,-0.001379661960527301,1,-5.068752216175199e-05,1
1772485621221817600,-0.03697355091571808,1,0.01222460716962814,1,-0.01700489968061447,1,-0.002943798201158643,1,-0.0008442007238045335,1,0.0001268579217139632,1
1772485621231662848,-0.02170544117689133,1,-0.0167545061558485,1,0.02993468753993511,1,-0.002268638694658875,1,-0.0008334409212693572,1,-3.621632640715688e-05,1
1772485621241412608,0.008009666576981544,1,-0.004964517895132303,1,0.044318787753582,1,-0.002151382155716419,1,-0.0009309299057349563,1,0.0002690962282940745,1
1772485621251068416,0.006201934069395065,1,0.005457927472889423,1,-0.04205884411931038,1,-0.0003164530207868665,1,-0.0009831259958446026,1,9.505016350885853e-06,1
1772485621260628736,0.01127849705517292,1,-0.004200336523354053,1,-0.06539317220449448,1,0.001274251146242023,1,-0.0007705293828621507,1,-0.000214694271562621,1
1772485621270095872,0.01361705176532269,1,-0.002731449902057648,1,-0.01940297894179821,1,0.002312266733497381,1,-0.0003477252030279487,1,-6.53293463983573e-05,1
1772485621279470336,-0.002887032926082611,1,7.90399790275842e-05,1,0.004501202143728733,1,0.004007645882666111,1,-5.462378612719476e-05,1,-4.767508289660327e-05,1
1772485621288905728,-0.01408657338470221,1,0.0009486040216870606,1,0.0001457398757338524,1,0.004961385857313871,1,0.0006758231902495027,1,-0.0002133780217263848,1
1772485621299618816,-0.02354693226516247,1,-0.002877309452742338,1,0.03200850635766983,1,0.005608090665191412,1,0.001011855318211019,1,-0.000165826000738889,1
1772485621310226688,-0.02169996313750744,1,-0.004576980136334896,1,0.05252770334482193,1,0.005423275753855705,1,0.001051250146701932,1,4.698803968494758e-05,1
1772485621320734208,-0.006141348276287317,1,-0.00737614743411541,1,0.08199223130941391,1,0.004993672017008066,1,0.00142822484485805,1,7.409928366541862e-05,1
1772485621331139840,0.003485606517642736,1,-0.005025172140449286,1,0.0931025892496109,1,0.004257742315530777,1,0.001196968136355281,1,0.0002118016127496958,1
1772485621341443840,0.006140409503132105,1,-0.006988008506596088,1,0.09114570915699005,1,0.002824751194566488,1,0.001378336222842336,1,6.888745701871812e-06,1
1772485621351647232,0.006871068384498358,1,-0.0008338831830769777,1,0.1131819188594818,1,0.001269078464247286,1,0.0008763030637055635,1,0.0001405434886692092,1
1772485621361751808,0.003012777771800756,1,0.0004924689419567585,1,0.1266002804040909,1,0.0003235182666685432,1,0.0006299528758972883,1,0.0001402731431880966,1
1772485621371757824,-0.005832687485963106,1,-0.005308084655553102,1,0.1158972606062889,1,-0.001540178433060646,1,1.580516618560068e-05,1,-0.0002323579246876761,1
1772485621381668096,-0.0103637371212244,1,-0.008130566217005253,1,0.1261903941631317,1,-0.003632787149399519,1,-0.0004726254264824092,1,-0.0003449506766628474,1
1772485621391486464,-0.005570713430643082,1,-0.01064190827310085,1,0.1060191690921783,1,-0.005235866643488407,1,-0.0007673284271731973,1,-0.000304357468849048,1
1772485621401215744,-2.734572626650333e-05,1,-0.008282405324280262,1,0.05998473614454269,1,-0.005390654318034649,1,-0.0007127123535610735,1,-0.0001656843087403104,1
1772485621410850816,0.004560123663395643,1,0.001678474014624953,1,0.01147627364844084,1,-0.005311961285769939,1,-0.0006603542133234441,1,-0.0003406765463296324,1
1772485621420392704,0.01197001803666353,1,-0.001470217248424888,1,0.00292728072963655,1,-0.004344630055129528,1,-0.001097150729037821,1,-0.0002115249226335436,1
1772485621429842432,0.02148434333503246,1,-0.002675446681678295,1,0.002390573266893625,1,-0.003523345571011305,1,-0.0008696138393133879,1,-9.227167902281508e-05,1
1772485621439199744,0.01440596394240856,1,0.00203215260989964,1,-0.007785432040691376,1,-0.002339068101719022,1,-0.0006831219652667642,1,0.0001166352449217811,1
1772485621449071872,0.001190670765936375,1,-0.002365704160183668,1,-0.02114887721836567,1,-0.001026577549055219,1,-0.0004769100924022496,1,0.0002268487442051992,1
1772485621459751680,0.0005782422376796603,1,-0.005203690379858017,1,-0.01322635542601347,1,-0.0004633931675925851,1,-0.0004644060099963099,1,0.0001959316577995196,1
1772485621470327808,-0.002140652853995562,1,0.0003159444313496351,1,0.002903862856328487,1,0.0003189812414348125,1,-0.0005531502538360655,1,7.312026718864217e-05,1
1772485621480800512,-0.01003769878298044,1,-0.001151914591901004,1,-0.02171899750828743,1,0.002147401683032513,1,7.938301132526249e-05,1,3.776439552893862e-05,1
1772485621491174656,-0.01347797177731991,1,-0.003614803310483694,1,-0.04599637910723686,1,0.00368076516315341,1,0.0005107489414513111,1,5.621055606752634e-05,1
1772485621501448192,-0.01267919223755598,1,0.002371267415583134,1,0.001822954975068569,1,0.004724706057459116,1,0.001042698393575847,1,-3.49556612491142e-05,1
1772485621511621632,-0.008600572124123573,1,-0.002817174419760704,1,0.05280065909028053,1,0.005465234629809856,1,0.001072501763701439,1,-8.295144652947783e-05,1
1772485621521695744,-0.009472154080867767,1,-0.00258769397623837,1,0.05199521034955978,1,0.005564436782151461,1,0.001284583122469485,1,-0.0001227674511028454,1
1772485621531672832,-0.009575845673680305,1,0.0005493452772498131,1,0.05105273053050041,1,0.005244485568255186,1,0.001651593949645758,1,4.995446943212301e-05,1
1772485621541551104,-0.004594292026013136,1,-0.006636413279920816,1,0.09092113375663757,1,0.003882173448801041,1,0.001264197053387761,1,0.0001766964996932074,1
1772485621551334400,0.002053792122751474,1,-0.01233706809580326,1,0.1368962973356247,1,0.00260048289783299,1,0.001046605058945715,1,0.0001114782498916611,1
1772485621561021696,-0.001211440074257553,1,-0.008672445081174374,1,0.1386433988809586,1,0.0008699981262907386,1,0.0004248784098308533,1,0.000204129537451081,1
1772485621570615296,0.002416708506643772,1,-0.003899705363437533,1,0.1147205978631973,1,-0.0009704552358016372,1,-0.0002176177513319999,1,1.923739182529971e-05,1
1772485621580113664,0.00555902486667037,1,0.0004816964501515031,1,0.08856929838657379,1,-0.002707551466301084,1,-0.0003982483758591115,1,0.0001212768038385548,1
1772485621589519616,0.005627614911645651,1,-0.006828435696661472,1,0.1217885762453079,1,-0.00437096506357193,1,-0.0005025783902965486,1,-0.0001304818142671138,1
1772485621598833152,0.005871755070984364,1,-0.01484718453139067,1,0.111071802675724,1,-0.005572022404521704,1,-0.0009795945370569825,1,6.188500992720947e-05,1
1772485621609131264,-0.0012133700074628,1,-0.008968403562903404,1,0.04860549792647362,1,-0.005730318371206522,1,-0.001193296979181468,1,-0.000184286996955052,1
1772485621619788800,-0.01036200206726789,1,0.002931995317339897,1,-0.01597568392753601,1,-0.004964997991919518,1,-0.0009554759017191827,1,-0.0002348202106077224,1
1772485621630344448,-0.01022920664399862,1,-0.0004642204148694873,1,0.007047388236969709,1,-0.003566203871741891,1,-0.0005961196147836745,1,-0.000326973560731858,1
1772485621640796928,-0.003192098811268806,1,-0.00296789244748652,1,0.03221758455038071,1,-0.003259731689468026,1,-0.0005479776882566512,1,-0.0002943401923403144,1
1772485621651148032,0.00451541505753994,1,-0.002197654917836189,1,0.01054254546761513,1,-0.002139789750799537,1,-0.0005112095386721194,1,4.212660132907331e-05,1
1772485621661398272,0.0123270470649004,1,0.001859968295320868,1,-0.04459047317504883,1,-0.001272106543183327,1,-0.0003216025070287287,1,0.0002145323378499597,1
1772485621671548416,0.01923389732837677,1,0.0008222318720072508,1,-0.04162015020847321,1,0.0003316246438771486,1,-0.0002207739162258804,1,0.0003246921696700156,1
1772485621681600512,0.01701649464666843,1,-0.003118266118690372,1,-0.01946070790290833,1,0.001298181363381445,1,-0.0003335936926305294,1,0.0001819595490815118,1
1772485621691555840,0.00749291991814971,1,0.0006259490619413555,1,-0.03310631960630417,1,0.003172804834321141,1,-0.0001504958781879395,1,7.907189865363762e-05,1
1772485621701414656,-0.01202984526753426,1,0.007604540791362524,1,-0.0425046868622303,1,0.004976932425051928,1,0.0004056216566823423,1,0.0001651198253966868,1
1772485621711177472,-0.01966339536011219,1,-0.0006801031995564699,1,-0.01126709394156933,1,0.006382064428180456,1,0.001021183212287724,1,0.0001019933552015573,1
1772485621720846080,-0.01965191774070263,1,-0.004130245186388493,1,0.07300182431936264,1,0.006585421040654182,1,0.001181859639473259,1,3.518627636367455e-05,1
1772485621730420992,-0.01446569990366697,1,-0.005096826236695051,1,0.1061723008751869,1,0.006036700215190649,1,0.0007793083204887807,1,3.962125992984511e-05,1
1772485621739912192,-0.002172126667574048,1,-0.01200318709015846,1,0.09379029273986816,1,0.004479942843317986,1,0.0006376373348757625,1,0.0001583013072377071,1
1772485621749327616,0.005390772596001625,1,-0.004165836609899998,1,0.06923848390579224,1,0.003298361785709858,1,0.0005930296611040831,1,0.0001513987372163683,1
1772485621758652160,0.006429890170693398,1,0.002365275053307414,1,0.1014967933297157,1,0.001930532162077725,1,0.000522759510204196,1,0.0001520547084510326,1
1772485621769398016,0.008442903868854046,1,-0.01035867724567652,1,0.1227769404649734,1,0.0005009385058656335,1,0.0003332856285851449,1,6.60093137412332e-05,1
1772485621780039680,0.001682764035649598,1,-0.009592258371412754,1,0.1330514997243881,1,-0.001253114547580481,1,0.0002123431768268347,1,-0.0002898439415730536,1
1772485621790579456,-0.007767967879772186,1,0.001355836167931557,1,0.09976646304130554,1,-0.002558097941800952,1,-0.0003901712771039456,1,-0.0002033763739746064,1
1772485621801016320,-0.009525022469460964,1,-0.007650210987776518,1,0.1022114679217339,1,-0.003922238945960999,1,-0.0005276468582451344,1,-0.0003375735250301659,1
1772485621811353856,-0.006725831422954798,1,-0.00693657947704196,1,0.08566245436668396,1,-0.004955274518579245,1,-0.001044710515998304,1,-0.0002892172487918288,1
1772485621821592064,-0.0008033830672502518,1,-0.005044436547905207,1,0.06098534911870956,1,-0.005588234402239323,1,-0.0007450046832673252,1,-0.0002852378529496491,1
1772485621831732480,0.007687069475650787,1,-0.00582832982763648,1,0.03019530139863491,1,-0.00559221301227808,1,-0.001036264118738472,1,-0.0002638379810377955,1
1772485621841773312,0.008094374090433121,1,0.003678013104945421,1,0.003717019455507398,1,-0.005061180330812931,1,-0.0009052404202520847,1,-2.749758641584776e-05,1
1772485621851717632,0.007922684773802757,1,0.002689948538318276,1,-0.01468353718519211,1,-0.003917986061424017,1,-0.000799712841399014,1,7.603798439959064e-05,1
1772485621861564672,0.007833002135157585,1,-0.004774597473442554,1,-0.001118982909247279,1,-0.003008776111528277,1,-0.0002232769620604813,1,7.126558921299875e-05,1
1772485621871316224,0.002404012018814683,1,-0.001262692967429757,1,0.0140282865613699,1,-0.002246358664706349,1,-0.0002968199551105499,1,0.0001662791182752699,1
1772485621880974848,-0.003169590374454856,1,-0.002014680532738566,1,-0.03016970306634903,1,-0.0008028649026528001,1,-0.0004184208810329437,1,0.0002541175927035511,1
1772485621890545920,-0.006166561972349882,1,-0.003651520237326622,1,-0.04476131126284599,1,0.0006172201246954501,1,-4.962906677974388e-05,1,0.0001633211504667997,1
1772485621900026880,-0.0092184878885746,1,0.000823675305582583,1,-0.04174244776368141,1,0.002211835002526641,1,0.0003999319742433727,1,8.063304994720966e-05,1
1772485621909415680,-0.007899804040789604,1,-0.001417415216565132,1,-0.01194583065807819,1,0.00439200596883893,1,0.0005024199490435421,1,0.0001994268386624753,1
1772485621918864896,-0.003812429495155811,1,-0.002137311734259129,1,0.0122846569865942,1,0.005425930488854647,1,0.0008441926911473274,1,2.805897383950651e-05,1
1772485621929577216,-0.002508161822333932,1,-0.004158982075750828,1,0.06706614792346954,1,0.005699968431144953,1,0.001239996636286378,1,-0.0002411088207736611,1
1772485621940184320,0.00199440773576498,1,-0.004702147096395493,1,0.08374153822660446,1,0.004786049947142601,1,0.0008624984184280038,1,-9.627384133636951e-05,1
1772485621950690304,0.006280182860791683,1,-0.009563607163727283,1,0.09087573736906052,1,0.003748587798327208,1,0.0006084247725084424,1,-0.0001140564709203318,1
1772485621961094144,0.001946162665262818,1,-0.001885005505755544,1,0.07592298835515976,1,0.002434100024402142,1,0.000290709751425311,1,-4.581163375405595e-05,1
1772485621971396096,-0.003257445059716702,1,0.001508113695308566,1,0.07050997018814087,1,0.001545895705930889,1,0.0002952452341560274,1,-2.898816273955163e-05,1
1772485621981597184,-0.008132799528539181,1,-0.00697917677462101,1,0.09732834249734879,1,0.0005354431923478842,1,0.0001438963954569772,1,0.0002006853464990854,1
1772485621991699456,-0.008313629776239395,1,-0.01158164814114571,1,0.1162078306078911,1,-0.000874076911713928,1,-1.306458216276951e-06,1,0.0001133788973675109,1
1772485622001702400,-0.01037715747952461,1,-0.01031021680682898,1,0.0924224853515625,1,-0.001830759574659169,1,-0.0002581946318969131,1,5.084446456748992e-05,1
1772485622011615488,-0.008226878009736538,1,-0.003555047325789928,1,0.07715313136577606,1,-0.00251971441321075,1,-2.11768492590636e-05,1,-0.0001277553092222661,1
1772485622021439488,0.001893218955956399,1,-0.006607605144381523,1,0.1056163236498833,1,-0.003609376959502697,1,5.93942531850189e-05,1,4.38246424891986e-05,1
1772485622031167488,0.01534842420369387,1,-0.01281364168971777,1,0.1082361415028572,1,-0.005008230451494455,1,-0.0005473755300045013,1,0.0003072309773415327,1
1772485622040801280,0.01757372915744781,1,-0.004721442703157663,1,0.07917629927396774,1,-0.005622449330985546,1,-0.0008092207135632634,1,0.0002589913492556661,1
1772485622050340864,0.01742389611899853,1,-0.002334852004423738,1,0.01727747172117233,1,-0.00564271304756403,1,-0.0007909621926955879,1,0.0001308888313360512,1
1772485622059788032,0.01154437568038702,1,-0.003701464273035526,1,-0.02777974307537079,1,-0.004791472107172012,1,-0.0010773497633636,1,0.0002762528310995549,1
1772485622069142272,0.001217075739987195,1,0.003821835154667497,1,-0.01499751955270767,1,-0.003379636909812689,1,-0.001159553998149931,1,-4.277347034076229e-05,1
1772485622079013888,0.0004005042719654739,1,-0.0004492644220590591,1,-0.01677678339183331,1,-0.001843998557887971,1,-0.001220148522406816,1,-0.0001332215906586498,1
1772485622089693440,-0.001902239164337516,1,-0.003106851363554597,1,-0.0308661051094532,1,-0.0002188310463679954,1,-0.001004231511615217,1,-2.984257662319578e-05,1
1772485622100269568,-0.003754434641450644,1,0.002016381360590458,1,-0.03382217511534691,1,0.001304965815506876,1,-0.0007321384036913514,1,-0.0001317586284130812,1
1772485622110742016,-0.004031864460557699,1,-0.002508474746719003,1,-0.03238742426037788,1,0.002610790310427547,1,-0.0002103653096128255,1,-0.0001843728532548994,1
1772485622121114368,-0.007719128858298063,1,-0.004500913433730602,1,-0.02423605509102345,1,0.004240827169269323,1,8.10558776720427e-05,1,1.033326770993881e-05,1
1772485622131387648,-0.01421636529266834,1,0.006845775991678238,1,-0.03023419342935085,1,0.006266951095312834,1,0.0003797068493440747,1,-0.0001068720885086805,1
1772485622141561088,-0.01647509261965752,1,-0.001184312161058187,1,0.0001658420078456402,1,0.007672979962080717,1,0.000687126477714628,1,-0.0002685559447854757,1
1772485622151636992,-0.01605594344437122,1,-0.004859243985265493,1,0.06689856946468353,1,0.007584134582430124,1,0.0007971880258992314,1,-0.0001338298752671108,1
1772485622161614336,-0.008527334779500961,1,-0.0179829578846693,1,0.1482349187135696,1,0.006111677270382643,1,0.001106159994378686,1,-1.654935840633698e-05,1
1772485622171493120,0.0001700443681329489,1,-0.0209446270018816,1,0.1360188275575638,1,0.004316258709877729,1,0.0006998414755798876,1,0.0001143188783316873,1
1772485622181275904,-0.002136061899363995,1,-0.0040183300152421,1,0.09388433396816254,1,0.002661145525053144,1,0.0007132597384043038,1,0.0004532415186986327,1
1772485622190963456,3.29846516251564e-05,1,-0.0008638466242700815,1,0.1073286235332489,1,0.0005990058416500688,1,0.0006715717609040439,1,-6.79428776493296e-05,1
1772485622200557312,0.008335376158356667,1,-0.008323652669787407,1,0.1592141389846802,1,-0.001296139089390635,1,0.0002678788150660694,1,-0.0001713050005491823,1
1772485622210055936,0.00573764368891716,1,-0.00658965390175581,1,0.1563113182783127,1,-0.003652814077213407,1,-0.0001907099940581247,1,0.0001470868883188814,1
1772485622219462656,-0.001525436528027058,1,-0.007504412438720465,1,0.07648003846406937,1,-0.00476528936997056,1,-0.0005877989460714161,1,-7.927536353236064e-05,1
1772485622228776192,0.0001432733843103051,1,-0.009663105942308903,1,0.05766402557492256,1,-0.005626312922686338,1,-0.0003968877717852592,1,1.746021007420495e-05,1
1772485622239074304,0.001347501412965357,1,-0.004025353584438562,1,0.06533439457416534,1,-0.005837441422045231,1,-0.0002696825249586254,1,-7.97845859779045e-05,1
1772485622249731072,0.001912528299726546,1,-0.003306715516373515,1,0.01867247372865677,1,-0.004970263689756393,1,-0.0008825167315080762,1,-0.0001204494328703731,1
1772485622260283136,-0.0009598745964467525,1,0.004953269846737385,1,-0.03324176743626595,1,-0.004294126760214567,1,-0.0007835031719878316,1,-0.0001749837829265743,1
1772485622270731520,0.003347748192027211,1,0.001496663899160922,1,-0.0123315341770649,1,-0.003641560208052397,1,-0.000484999327454716,1,-4.3538908357732e-05,1
1772485622281083648,0.009133077226579189,1,-0.009599233046174049,1,0.02719239145517349,1,-0.002638701349496841,1,-0.000490480859298259,1,0.0001910869614221156,1
1772485622291337472,0.008283632807433605,1,-0.005946369376033545,1,0.004879624117165804,1,-0.001837894786149263,1,-0.0001459776249248534,1,0.0002036348159890622,1
1772485622301490432,-0.001134107122197747,1,0.002917640144005418,1,-0.04077385365962982,1,-0.0003658758650999516,1,-0.000319459562888369,1,0.0001963242830242962,1
1772485622311543808,-0.007218580227345228,1,0.001392326666973531,1,-0.073060542345047,1,0.001933119725435972,1,0.0002135488466592506,1,-3.726014256244525e-06,1
1772485622321499904,-0.01503748539835215,1,0.0001228165347129107,1,-0.06522227823734283,1,0.003824438899755478,1,0.0008360813953913748,1,-9.611951099941507e-05,1
1772485622331357696,-0.01406746823340654,1,0.0006401953287422657,1,0.01781970448791981,1,0.005818539299070835,1,0.0009743390255607665,1,-2.517782013455871e-05,1
1772485622341119488,-0.01260784734040499,1,-0.005555443931370974,1,0.05046562105417252,1,0.006470649968832731,1,0.001067125238478184,1,8.413582690991461e-05,1
1772485622350787072,-0.009855011478066444,1,-0.005178725346922874,1,0.06692469120025635,1,0.005752401892095804,1,0.001137240440584719,1,0.0002273701829835773,1
1772485622360360192,-0.002339300699532032,1,-0.006104070693254471,1,0.09406197071075439,1,0.004593301564455032,1,0.0007587185245938599,1,-0.0001152714830823243,1
1772485622369840128,0.004516644403338432,1,-0.01432252302765846,1,0.09930697828531265,1,0.004024347756057978,1,0.0007975027547217906,1,0.0001253839291166514,1
1772485622379226368,-0.0001404426293447614,1,-0.003332649823278189,1,0.08370564132928848,1,0.002813811413943768,1,0.0008070046314969659,1,0.00017050068709068,1
1772485622388676096,1.760356826707721e-05,1,-0.001772229792550206,1,0.09896369278430939,1,0.001181010971777141,1,0.0005858921795152128,1,-3.7256319046719e-05,1
1772485622399420928,0.0005473154596984386,1,-0.01204782910645008,1,0.1434475630521774,1,-0.0008786856778897345,1,0.0004123381804674864,1,4.644592627300881e-05,1
1772485622410060288,-0.004496056586503983,1,-0.006457598879933357,1,0.1444498300552368,1,-0.002337493933737278,1,0.0005313871661201119,1,-0.0004194098873995245,1
1772485622420599296,-0.006516957189887762,1,-0.0004844047070946544,1,0.1078976020216942,1,-0.004243930801749229,1,-0.0002252234262414277,1,-7.231737072288524e-06,1
1772485622431035136,-0.00321168452501297,1,-0.006982940714806318,1,0.06540191173553467,1,-0.005072969477623701,1,-0.0002543778391554952,1,-3.622770236688666e-05,1
1772485622441369856,0.002712277695536613,1,-0.01040994189679623,1,0.09306731820106506,1,-0.006157480180263519,1,-3.590890992200002e-05,1,0.0001117078645620495,1
1772485622451602176,0.006163741461932659,1,-0.01076995488256216,1,0.06913450360298157,1,-0.006793854758143425,1,-0.0004936958430334926,1,-2.093991497531533e-06,1
1772485622461736960,0.00138877029530704,1,9.041395969688892e-05,1,-0.00832893792539835,1,-0.005770386662334204,1,-0.0009332053014077246,1,-0.0001986744755413383,1
1772485622471770368,0.0009240173967555165,1,0.00964751560240984,1,-0.0567660927772522,1,-0.004596454557031393,1,-0.0006681810482405126,1,-0.0001245328749064356,1
1772485622481707776,0.008934699930250645,1,-0.00413163099437952,1,-0.006936122663319111,1,-0.003156642429530621,1,-0.0005866956780664623,1,-9.006324398797005e-05,1
1772485622491547136,0.01000105869024992,1,-0.006095981691032648,1,0.03140364214777946,1,-0.002696735085919499,1,-0.0004432458954397589,1,-7.677593384869397e-05,1
1772485622501302784,0.004537074360996485,1,0.0005110488273203373,1,-0.005035894457250834,1,-0.001039259950630367,1,-0.0001656164531596005,1,-0.0001258043193956837,1
1772485622510964736,-0.004445813596248627,1,-0.0006439727148972452,1,-0.05236580967903137,1,0.0004841579357162118,1,-0.0002870250027626753,1,7.713199011050165e-05,1
1772485622520532224,-0.01250812411308289,1,-0.0004797128494828939,1,-0.04965866729617119,1,0.002108041662722826,1,8.677984442329034e-05,1,-7.491898941225372e-07,1
1772485622530006272,-0.01654511131346226,1,0.002753941109403968,1,0.0004264381714165211,1,0.004290380049496889,1,0.000179759954335168,1,-5.18448869115673e-05,1
1772485622539388160,-0.01064328849315643,1,-0.001851447974331677,1,0.01727682165801525,1,0.004861306864768267,1,0.0004099007346667349,1,-0.000111552893940825,1
1772485622548829696,-0.008259301073849201,1,-0.006570477969944477,1,0.009319581091403961,1,0.00615153880789876,1,0.0005890883039683104,1,-0.0002357838966418058,1
1772485622559541760,-0.005961352493613958,1,0.004561815410852432,1,0.03439932689070702,1,0.005737787112593651,1,0.0008379974169656634,1,-0.0001696025137789547,1
1772485622570149376,0.004822968505322933,1,-0.006924790795892477,1,0.1058277264237404,1,0.005036971066147089,1,0.001068632584065199,1,0.0002331192663405091,1
1772485622580656640,0.006125528831034899,1,-0.0145596032962203,1,0.1221758797764778,1,0.003642595838755369,1,0.0004772004031110555,1,0.0001895994646474719,1
1772485622591061760,-0.002037073951214552,1,0.001390906982123852,1,0.06605035066604614,1,0.002427740255370736,1,0.0004715882241725922,1,8.725586667424068e-05,1
1772485622601366528,-0.005060089752078056,1,0.002626033732667565,1,0.04725022241473198,1,0.00216378690674901,1,0.0006092271651141346,1,-0.0001463693188270554,1
1772485622611571456,-0.005169020965695381,1,-0.008689827285706997,1,0.1193275302648544,1,0.0007631340413354337,1,0.0007891480927355587,1,-0.000283671950455755,1
1772485622621676288,-0.004574165213853121,1,-0.009633111767470837,1,0.150368794798851,1,-0.0004586821014527231,1,0.0002274672442581505,1,5.619781586574391e-05,1
1772485622631682048,-0.008172348141670227,1,-0.001677060383372009,1,0.09250359237194061,1,-0.002170108491554856,1,8.264482312370092e-05,1,-5.510623668669723e-05,1
1772485622641592832,-0.006019650492817163,1,3.789000038523227e-05,1,0.08413346111774445,1,-0.003674699692055583,1,-0.0001718179555609822,1,-5.552373477257788e-05,1
1772485622651417600,0.001186552690342069,1,-0.004057276993989944,1,0.08349588513374329,1,-0.004832915961742401,1,-0.0004398282617330551,1,-7.990525773493573e-06,1
1772485622661146624,0.005417572800070047,1,-0.005226919427514076,1,0.06429722160100937,1,-0.005110196303576231,1,-0.0004942001542076468,1,-3.055010893149301e-05,1
1772485622670780928,0.01070142909884453,1,-0.003441618755459785,1,0.02324054017663002,1,-0.0049776341766119,1,-0.0007872602436691523,1,0.0001884586672531441,1
1772485622680322816,0.007710749749094248,1,-0.003061839146539569,1,0.00503402017056942,1,-0.004238995257765055,1,-0.001373062375932932,1,8.065824658842757e-05,1
1772485622689771264,0.006095524877309799,1,0.001602905686013401,1,0.0004500879440456629,1,-0.003740826388821006,1,-0.001194336684420705,1,-4.327885108068585e-06,1
1772485622699127296,-0.001035506720654666,1,0.0004661665298044682,1,0.01673314347863197,1,-0.002718375064432621,1,-0.0008818822680041194,1,-0.00022382456518244,1
1772485622708997120,-0.003629698418080807,1,-0.00195230869576335,1,0.01641048118472099,1,-0.001905533252283931,1,-0.0007817510631866753,1,-0.0002429232990834862,1
1772485622719672576,-0.005661207716912031,1,0.00188024714589119,1,-0.0114361010491848,1,-0.001450051087886095,1,-0.0009471673984080553,1,-5.224583583185449e-05,1
1772485622730243840,-0.007127533666789532,1,0.001362772891297936,1,-0.02142924070358276,1,0.0001491425355197862,1,-0.0008775395108386874,1,3.773146090679802e-06,1
1772485622740712448,-0.001604013727046549,1,-0.005689747631549835,1,-0.01083396933972836,1,0.001698931679129601,1,-0.0005679375608451664,1,1.064249772753101e-05,1
1772485622751083264,-0.000522641756106168,1,-0.001722807064652443,1,-0.03553028777241707,1,0.003414524253457785,1,8.851442544255406e-05,1,-0.0001345837663393468,1
1772485622761354752,-0.002833615755662322,1,0.008712110109627247,1,-0.0317426398396492,1,0.005000993143767118,1,0.0004219266993459314,1,-0.00016813947877381,1
1772485622771525632,0.0009340022224932909,1,0.001089292229153216,1,0.007062829565256834,1,0.006301596760749817,1,0.0006123477942310274,1,-0.0002076520177070051,1
1772485622781598208,0.0002831649035215378,1,-0.005315296817570925,1,0.06317250430583954,1,0.006467363331466913,1,0.001019605551846325,1,-0.0001070533617166802,1
1772485622791572224,-0.003051536157727242,1,-0.00276141962967813,1,0.1043706685304642,1,0.005638244561851025,1,0.001153836958110332,1,1.392619014950469e-05,1
1772485622801450496,-0.0009771262994036078,1,-0.007290337700396776,1,0.109212838113308,1,0.003931579180061817,1,0.000915137177798897,1,0.000236600375501439,1
1772485622811233536,-0.003752894699573517,1,-0.005941908806562424,1,0.08136039227247238,1,0.002634276635944843,1,0.0004748752689920366,1,0.0001426843664376065,1
1772485622820922368,-0.009344989433884621,1,0.004321302752941847,1,0.06456815451383591,1,0.001564419362694025,1,0.0007039114134386182,1,4.461587741388939e-05,1
1772485622830517248,-0.001146638300269842,1,-0.004825355019420385,1,0.08916010707616806,1,0.0001711920631350949,1,0.0007861440535634756,1,-0.0001636657252674922,1
1772485622840017920,0.003383701434358954,1,-0.01013400312513113,1,0.1257770508527756,1,-0.001164368004538119,1,0.0004046312533318996,1,-0.0002293308498337865,1
1772485622849438208,-0.000299573119264096,1,-0.007322379387915134,1,0.1080866307020187,1,-0.002266413532197475,1,0.0002341059735044837,1,-0.0001495454926043749,1
1772485622858778112,-0.004257661290466785,1,-0.00299471290782094,1,0.1189949661493301,1,-0.004137011244893074,1,0.0002488617319613695,1,-0.0002612561802379787,1
1772485622869233920,-0.00286664767190814,1,-0.002806403674185276,1,0.0773499459028244,1,-0.005288452375680208,1,-6.809014303144068e-05,1,-0.0002950612979475409,1
1772485622879888384,0.0003666950506158173,1,-0.003948171623051167,1,0.05859271809458733,1,-0.005805518478155136,1,-0.0005814922042191029,1,-0.0003135888837277889,1
1772485622890440704,0.007580393459647894,1,-0.002251868834719062,1,0.01834401302039623,1,-0.005820950958877802,1,-0.0007571230526082218,1,-8.351787982974201e-06,1
1772485622900890624,0.01162590458989143,1,-0.005221989937126637,1,0.007641020696610212,1,-0.005004677455872297,1,-0.0008278244058601558,1,-0.0001433591096429154,1
1772485622911238656,0.01124310307204723,1,-0.0003340411931276321,1,-0.004374677781015635,1,-0.004242070019245148,1,-0.0005736100720241666,1,-0.0001579274394316599,1
1772485622921486336,0.007111193612217903,1,0.0005629460792988539,1,0.01205337792634964,1,-0.002972528338432312,1,-0.0003198784252163023,1,-6.95446360623464e-05,1
1772485622931634176,0.002814680337905884,1,-0.0007041734061203897,1,0.006001983303576708,1,-0.001484581269323826,1,-0.0002808433782774955,1,-8.078906830633059e-05,1
1772485622941700352,-0.003853339469060302,1,0.0009395846864208579,1,-0.01273954473435879,1,-0.000492424878757447,1,-0.0003521946782711893,1,-3.582659701351076e-05,1
1772485622951673088,-0.004729760810732841,1,0.002993770176544785,1,-0.01541192084550858,1,0.0007092222804203629,1,-0.0008927385788410902,1,0.0001328351063420996,1
1772485622961548800,-0.006017434410750866,1,-0.0007246297318488359,1,-0.01405786816030741,1,0.002103351522237062,1,-0.0008205369813367724,1,2.761988434940577e-05,1
1772485622971329792,-0.01117707323282957,1,-0.003583235898986459,1,-0.02018783800303936,1,0.003633018117398024,1,-0.0001755238336045295,1,0.0002014609635807574,1
1772485622981015040,-0.01288681104779243,1,0.0006560282781720161,1,0.0004403176717460155,1,0.004995530005544424,1,0.000668237975332886,1,0.0001011038184515201,1
1772485622990606080,-0.008331064134836197,1,-0.005516982637345791,1,0.04318872466683388,1,0.005855811294168234,1,0.0008235161658376455,1,1.140306449087802e-05,1
1772485623000104448,-0.007551745511591434,1,-0.001223666011355817,1,0.06645402312278748,1,0.005665016360580921,1,0.0007336658309213817,1,-0.0002103740407619625,1
1772485623009511680,-0.005307784769684076,1,0.001374727115035057,1,0.07057778537273407,1,0.004694722592830658,1,0.0008212756947614253,1,-0.0002248011151095852,1
1772485623018979328,0.001621595816686749,1,-0.00534899765625596,1,0.07670094072818756,1,0.003534428775310516,1,0.000812070444226265,1,-6.450214277720079e-05,1
1772485623029719296,0.007368586026132107,1,-0.007930672727525234,1,0.09074030071496964,1,0.00228175288066268,1,0.00068075762828812,1,-0.0002192671818193048,1
1772485623040354816,0.004774611908942461,1,-0.005607183091342449,1,0.105959840118885,1,0.0009174114093184471,1,0.0007992036989890039,1,-4.790721868630499e-05,1
1772485623050888960,0.005171739030629396,1,-0.005347764119505882,1,0.1127395927906036,1,-0.0005668485537171364,1,0.0004215099615976214,1,-0.0001095780680770986,1
1772485623061321472,-0.0003894249093718827,1,-0.007007196545600891,1,0.121935710310936,1,-0.002425639657303691,1,0.0002044825087068602,1,3.712731631821953e-05,1
1772485623071653120,-0.001995327649638057,1,-0.006007216405123472,1,0.1169769018888474,1,-0.004133392125368118,1,-0.0001534146867925301,1,0.0001010905689327046,1
1772485623081882368,-0.002700461074709892,1,-0.01008834317326546,1,0.09343896806240082,1,-0.005343340337276459,1,-0.0004943273961544037,1,-4.036505197291262e-05,1
1772485623092014848,-0.003827067790552974,1,-0.008062408305704594,1,0.08428183197975159,1,-0.006539992988109589,1,-0.0006135981529951096,1,-0.0001191596384160221,1
1772485623102048000,0.00134300091303885,1,-0.007752506993710995,1,0.06525609642267227,1,-0.007128256373107433,1,-0.0004835223953705281,1,-4.84164702356793e-05,1
1772485623111984896,0.001924233045428991,1,-0.0001138369552791119,1,-0.004375632852315903,1,-0.006204944103956223,1,-0.000841837318148464,1,-0.0001263361191377044,1
1772485623121825280,0.004631505347788334,1,0.007641664706170559,1,-0.03711718693375587,1,-0.004485923796892166,1,-0.0009184950031340122,1,-0.0001527030399302021,1
1772485623131569408,0.01339178066700697,1,-0.004574076738208532,1,-0.0005587995983660221,1,-0.003549220273271203,1,-0.0008256753208115697,1,-0.0001061106231645681,1
1772485623141228288,0.02063409052789211,1,-0.001816400210373104,1,0.02444079145789146,1,-0.002396791242063046,1,-0.0007556489435955882,1,-1.235820491274353e-05,1
1772485623150795008,0.01216949988156557,1,0.002125645522028208,1,-0.01347371377050877,1,-0.001454879064112902,1,-0.0008470806060358882,1,6.359848339343444e-05,1
1772485623160268544,0.001493810443207622,1,0.008485840633511543,1,-0.04261963069438934,1,0.0003702793910633773,1,-0.0007807686924934387,1,2.830209632520564e-05,1
1772485623169649408,-0.007416915148496628,1,0.001174784149043262,1,-0.03825467824935913,1,0.001663261093199253,1,-0.00054530194029212,1,-0.0001106042982428335,1
1772485623179089664,-0.01846031472086906,1,0.002672266447916627,1,-0.03908628597855568,1,0.003637612564489245,1,-0.0003260937810409814,1,-0.0002337173500563949,1
1772485623189792768,-0.02495257370173931,1,0.007447900716215372,1,-0.03080367483198643,1,0.005514769349247217,1,-4.468450424610637e-05,1,0.0001112560930778272,1
1772485623200391424,-0.0188221987336874,1,0.0005563627928495407,1,-0.01500877272337675,1,0.007162889000028372,1,0.0002528676996007562,1,-0.0001330608502030373,1
1772485623210890496,-0.01193240657448769,1,0.001925661112181842,1,0.04640321061015129,1,0.0072125643491745,1,0.001069989870302379,1,-0.0001835103466873989,1
1772485623221287680,-0.002934749238193035,1,-0.001117458916269243,1,0.0958620011806488,1,0.006469605024904013,1,0.001489555579610169,1,-0.0001725585025269538,1
1772485623231584000,0.00216612359508872,1,-0.008619952015578747,1,0.1034686863422394,1,0.004819627851247787,1,0.0008411999442614615,1,-0.0002412467147223651,1
1772485623241780224,0.0003168736584484577,1,0.0004913168959319592,1,0.06966456025838852,1,0.004012719262391329,1,0.0009691432351246476,1,-0.0001852902496466413,1
1772485623251876864,-0.004129896406084299,1,0.002742788754403591,1,0.08784254640340805,1,0.00275906641036272,1,0.001113592879846692,1,8.876830543158576e-05,1
1772485623261874432,0.0006810097838751972,1,-0.006557330954819918,1,0.1410891562700272,1,0.001021593110635877,1,0.001148617826402187,1,-0.0001185573855764233,1
1772485623271775232,0.0007140731904655695,1,-0.01079525984823704,1,0.1436509341001511,1,-0.0004353449621703476,1,0.0005597890121862292,1,2.657036748132668e-05,1
1772485623281580544,-0.0001512189774075523,1,-0.001395034603774548,1,0.1037684753537178,1,-0.002146157901734114,1,0.0001775513665052131,1,9.128865349339321e-05,1
1772485623291290368,0.004675181582570076,1,-0.005719322711229324,1,0.09264466166496277,1,-0.003548944601789117,1,-0.0001229207991855219,1,-6.748691521352157e-05,1
1772485623300919808,0.01115492358803749,1,-0.01100834645330906,1,0.0973026230931282,1,-0.004781467840075493,1,-0.0006293578189797699,1,-0.0003872765810228884,1
1772485623310455808,0.01075571402907372,1,-0.00378023530356586,1,0.05211425200104713,1,-0.00509015005081892,1,-0.001198114245198667,1,-0.000267158611677587,1
1772485623319898880,0.006551605649292469,1,0.002407399471849203,1,0.01152321882545948,1,-0.004484295379370451,1,-0.000965709041338414,1,-3.320337418699637e-05,1
1772485623329250560,-0.0003952780389226973,1,0.00599584961310029,1,-0.003821428399533033,1,-0.003930044826120138,1,-0.0007587917498312891,1,7.090508006513119e-06,1
1772485623339266304,-0.004819145426154137,1,-0.0003135755250696093,1,0.01690499112010002,1,-0.003010645043104887,1,-0.0008248490048572421,1,-0.0001779600424924865,1
1772485623349939456,-0.007220243103802204,1,-0.0009379000402987003,1,0.02986100874841213,1,-0.002783752512186766,1,-0.0006974145653657615,1,9.424771633348428e-06,1
1772485623360508928,-0.006697142496705055,1,0.0002667513908818364,1,0.01389520242810249,1,-0.001806988613680005,1,-0.0007276639225892723,1,-0.0001746099587762728,1
1772485623370975744,-0.00380336563102901,1,0.005251698195934296,1,-0.0209658294916153,1,-0.0007294330862350762,1,-0.0006371137569658458,1,-7.532007293775678e-05,1
1772485623381345792,0.002055364893749356,1,0.00819069892168045,1,-0.02132986858487129,1,0.0003585121885407716,1,-0.0005559097044169903,1,-0.0001958833454409614,1
1772485623391616512,0.008075966499745846,1,0.001917969202622771,1,-0.01277645770460367,1,0.001775242853909731,1,-0.0006230187718756497,1,-4.33751629316248e-05,1
1772485623401787392,0.001796884229406714,1,0.0006122376071289182,1,-0.04217719286680222,1,0.003215797711163759,1,-0.00051623594481498,1,-0.0001544171682326123,1
1772485623411857664,-0.006335795391350985,1,0.007034907117486,1,-0.04163355007767677,1,0.005059635266661644,1,-0.0002346072433283553,1,2.095662966894452e-05,1
1772485623421830400,-0.01305074896663427,1,0.000533922400791198,1,0.02410776168107986,1,0.006154590751975775,1,0.0001550845190649852,1,5.36523584742099e-05,1
1772485623431705344,-0.01595120690762997,1,-0.00953737273812294,1,0.08818361163139343,1,0.006414866540580988,1,0.0005580083816312253,1,0.0001112598765757866,1
1772485623441485056,-0.02056826464831829,1,-0.001053065876476467,1,0.0806334987282753,1,0.005640760064125061,1,0.0008158363052643836,1,0.0001912525040097535,1
1772485623451170304,-0.01188801322132349,1,-0.003585361409932375,1,0.06648648530244827,1,0.00444289855659008,1,0.001356373424641788,1,3.342213312862441e-05,1
1772485623460760576,0.005459130275994539,1,-0.007580952718853951,1,0.08026678115129471,1,0.00346367247402668,1,0.001174553181044757,1,-0.0001524372783023864,1
1772485623470257408,0.014147630892694,1,-0.007561288774013519,1,0.08754332363605499,1,0.002406436251476407,1,0.00113596860319376,1,-0.0002835249761119485,1
1772485623479662336,0.01755092479288578,1,-0.007550399284809828,1,0.0889105349779129,1,0.001904855482280254,1,0.0007854987634345889,1,-0.0001396831939928234,1
1772485623488974592,0.007487926632165909,1,-0.002902294741943479,1,0.08435048162937164,1,0.0008873636834323406,1,0.0006628297851420939,1,7.219007966341451e-05,1
1772485623499421952,-0.005512170493602753,1,-0.004747187253087759,1,0.09092692285776138,1,-0.0006448727217502892,1,0.0005867401487194002,1,0.000142316406709142,1
1772485623510072576,-0.01447141915559769,1,-0.005788348615169525,1,0.106622152030468,1,-0.002147579798474908,1,0.0002264662180095911,1,0.0002761615323834121,1
1772485623520619008,-0.01724389940500259,1,-0.006354266311973333,1,0.1083249524235725,1,-0.003324547782540321,1,-3.421270230319351e-05,1,0.0001547149731777608,1
1772485623531066368,-0.006676819641143084,1,-0.01072539389133453,1,0.09926916658878326,1,-0.00499736936762929,1,-0.0003510929818730801,1,0.0001459571358282119,1
1772485623541413120,0.002723187208175659,1,-0.008026945404708385,1,0.07488769292831421,1,-0.006130299065262079,1,-0.0006973095587454736,1,0.0002461659896653146,1
1772485623551656448,0.01640287414193153,1,-0.009674430824816227,1,0.05474011600017548,1,-0.006244033109396696,1,-0.0007947735721245408,1,-2.480463081155904e-05,1
1772485623561801472,0.02247814834117889,1,-0.001368321245536208,1,0.002198895439505577,1,-0.005872820969671011,1,-0.001109713106416166,1,-2.439743911963888e-05,1
1772485623571846912,0.02027355879545212,1,0.004084005020558834,1,-0.01262981351464987,1,-0.005018593277782202,1,-0.000940212863497436,1,0.0001268204796360806,1
1772485623581794048,0.01311657857149839,1,0.00104617839679122,1,0.002493985230103135,1,-0.004146217834204435,1,-0.0009970117826014757,1,0.0001340719172731042,1
1772485623591644928,0.002341034356504679,1,-0.002399626653641462,1,0.02572803758084774,1,-0.002698434051126242,1,-0.0009610535344108939,1,4.820767571800388e-05,1
1772485623601399296,-0.01190374698489904,1,-0.0005865132552571595,1,0.004235066473484039,1,-0.002114242874085903,1,-0.001433147001080215,1,5.304365913616493e-06,1
1772485623611066624,-0.01556518021970987,1,-0.001931540202349424,1,-0.02332851849496365,1,-0.0007080694776959717,1,-0.001126045128330588,1,-9.61541518336162e-05,1
1772485623620642304,-0.01386234164237976,1,-0.003091452410444617,1,-0.01384302601218224,1,0.0008894997299648821,1,-0.0006946997018530965,1,0.0001363246119581163,1
1772485623630124800,-0.01202969532459974,1,0.0002188302460126579,1,-0.02363505773246288,1,0.002181079005822539,1,-0.0002999990829266608,1,0.0001203247520606965,1
1772485623639515136,-0.005987480282783508,1,0.007502099499106407,1,-0.009378215298056602,1,0.003171485383063555,1,0.000151203348650597,1,3.003399251610972e-05,1
1772485623648966400,0.002503484487533569,1,0.003224885789677501,1,-0.01127806678414345,1,0.004589447751641273,1,0.0002926630550064147,1,-8.52858938742429e-05,1
1772485623659700224,0.00774352066218853,1,-0.002712230663746595,1,0.01348964497447014,1,0.005820496007800102,1,0.0004972745082341135,1,2.804842733894475e-05,1
1772485623670329600,0.004790990613400936,1,0.003936995286494493,1,0.03833466768264771,1,0.006061383988708258,1,0.0009503199253231287,1,-0.0001258259580936283,1
1772485623680858624,0.0003694345359690487,1,-0.0068129887804389,1,0.09097454696893692,1,0.005619089119136333,1,0.001130747841671109,1,-0.0002781348302960396,1
1772485623691284992,-0.001319643808528781,1,-0.01803026720881462,1,0.1033864393830299,1,0.004227772820740938,1,0.001180175924673676,1,-0.000114360373117961,1
1772485623701610496,-0.01009693741798401,1,-0.01037304475903511,1,0.09682080894708633,1,0.003209576476365328,1,0.0009957859292626381,1,-5.744579539168626e-06,1
1772485623711837440,-0.007362668868154287,1,0.003368395147845149,1,0.0466303713619709,1,0.001909017912112176,1,0.0003505386121105403,1,-0.0001364092022413388,1
1772485623721963776,0.003125124610960484,1,-0.01075498014688492,1,0.05409951880574226,1,0.002093158196657896,1,0.001002393313683569,1,-0.0002676452568266541,1
1772485623731994112,0.00794034730643034,1,-0.0107563603669405,1,0.1078375354409218,1,-0.0003737708320841193,1,0.0006214851746335626,1,-0.0004362176987342536,1
1772485623741935104,0.009062048979103565,1,-0.004406202118843794,1,0.1161121651530266,1,-0.0003187705879099667,1,0.0003504507476463914,1,-3.439569991314784e-05,1
1772485623751779584,-0.001180140650831163,1,-0.003146602772176266,1,0.09962750971317291,1,-0.002874040976166725,1,0.0002500835107639432,1,2.673616472748108e-05,1
1772485623761528064,-0.006980426143854856,1,0.005345951765775681,1,0.09448303282260895,1,-0.003815035568550229,1,-0.0001388733362546191,1,-0.0001971938763745129,1
1772485623771183360,-0.002199667971581221,1,-0.007886553183197975,1,0.08862079679965973,1,-0.005116915795952082,1,-0.0006069823284633458,1,-2.528828918002546e-05,1
1772485623780743680,7.420136535074562e-05,1,-0.002673920709639788,1,0.04711853340268135,1,-0.00526146637275815,1,-0.0006558351451531053,1,-0.0001394823775626719,1
1772485623790211328,0.005201966501772404,1,0.005924020428210497,1,0.04902195930480957,1,-0.005187178030610085,1,-0.0009328410378657281,1,-8.075289770204108e-06,1
1772485623799590912,0.01653937436640263,1,-0.008302165195345879,1,0.02990570105612278,1,-0.005185239482671022,1,-0.001048772595822811,1,-0.0001888757251435891,1
1772485623809180928,0.008917524479329586,1,-0.002636349061504006,1,0.03405284881591797,1,-0.004117564298212528,1,-0.0008960446575656533,1,9.406308527104557e-05,1
1772485623819881984,0.004527253098785877,1,0.007634749170392752,1,-0.00888686440885067,1,-0.003900253213942051,1,-0.001235227333381772,1,0.0001559751690365374,1
1772485623830479104,0.00185532309114933,1,-0.005182977765798569,1,-0.02650467120110989,1,-0.001933282008394599,1,-0.001306803664192557,1,7.96149397501722e-05,1
1772485623840972288,0.00200438336469233,1,0.002763499272987247,1,-0.02484655193984509,1,-0.001162784523330629,1,-0.001177570200525224,1,-9.192781362798996e-07,1
1772485623851365120,0.001090409466996789,1,-0.002598162274807692,1,0.003005083417519927,1,0.0006731276516802609,1,-0.001036898465827107,1,-2.270983168273233e-05,1
1772485623861661696,-0.004381520673632622,1,-0.01006673742085695,1,-0.002223243471235037,1,0.001978891668841243,1,-0.0005848879227414727,1,0.0001575139467604458,1
1772485623871858432,-0.01843308843672276,1,0.004061392974108458,1,-0.05619439855217934,1,0.003740502987056971,1,-0.0002254693245049566,1,0.0002007902803597972,1
1772485623881955840,-0.02164284884929657,1,0.007632600143551826,1,-0.03876284882426262,1,0.005210413131862879,1,0.000411867251386866,1,-8.228323713410646e-05,1
1772485623891956736,-0.01620245352387428,1,-0.003067982383072376,1,0.03020388074219227,1,0.006269002798944712,1,0.0008611075463704765,1,-0.000213578634429723,1
1772485623901860352,-0.005044563673436642,1,-0.004138647112995386,1,0.08885617554187775,1,0.006164237391203642,1,0.001080652349628508,1,-9.857754048425704e-05,1
1772485623911667968,0.005073702894151211,1,-0.002570744371041656,1,0.08571632206439972,1,0.00527268135920167,1,0.001058479305356741,1,-0.0002822079986799508,1
1772485623921382400,0.01028693746775389,1,-0.00352333253249526,1,0.07569798082113266,1,0.003746588947251439,1,0.001187367248348892,1,-9.765628783497959e-05,1
1772485623931002112,0.01052174065262079,1,-9.340350516140461e-05,1,0.06320535391569138,1,0.00322303525172174,1,0.0005571373621933162,1,-7.609093154314905e-05,1
1772485623940528128,0.006876777391880751,1,0.0001690448843874037,1,0.06358751654624939,1,0.002543681068345904,1,0.001009171712212265,1,-0.0001083639290300198,1
1772485623949961216,-0.003682640846818686,1,-0.003811438800767064,1,0.09392985701560974,1,0.001594062778167427,1,0.001056458684615791,1,7.863077917136252e-05,1
1772485623959303168,-0.01035205833613873,1,-0.007165802642703056,1,0.1085909083485603,1,0.0004844230425078422,1,0.0005556547548621893,1,-3.012633169419132e-05,1
1772485623969314048,-0.01288420334458351,1,-0.00678571593016386,1,0.08488163352012634,1,-0.0006232172017917037,1,0.0003531107795424759,1,-0.0002277740277349949,1
1772485623979983872,-0.01441630534827709,1,0.0006890434888191521,1,0.0809967890381813,1,-0.001903018332086504,1,0.0003187087131664157,1,-8.377430640393868e-05,1
1772485623990549248,-0.004558396525681019,1,-0.002907008863985538,1,0.0891733318567276,1,-0.002876409329473972,1,-1.168902963399887e-05,1,-0.0001544151891721413,1
1772485624001012224,0.01129552628844976,1,-0.0146136274561286,1,0.09933240711688995,1,-0.00395854702219367,1,-0.0001201965642394498,1,-0.0002077016106341034,1
1772485624011376896,0.02060477621853352,1,-0.008207446895539761,1,0.08158718049526215,1,-0.005005449056625366,1,-0.0005889752064831555,1,-0.0001561232493259013,1
1772485624021643520,0.02492564171552658,1,-0.004270002245903015,1,0.01631750166416168,1,-0.005091545172035694,1,-0.0009238815400749445,1,-8.728557077120058e-06,1
1772485624031809792,0.02018689922988415,1,-0.00388630130328238,1,-0.01322652492672205,1,-0.004041375126689672,1,-0.0008051346521824598,1,-6.889973883517087e-05,1
1772485624041876736,0.008031538687646389,1,-0.001437163911759853,1,0.02703999355435371,1,-0.003653415245935321,1,-0.0006152325659058988,1,-0.0001757226418703794,1
1772485624051845376,-0.001235431875102222,1,-0.00691181281581521,1,0.05240235850214958,1,-0.002798815025016665,1,-0.0009008445776998997,1,-0.000267872674157843,1
1772485624061717504,-0.01133923698216677,1,0.002009045099839568,1,-0.001999722793698311,1,-0.002089746063575149,1,-0.001009732251986861,1,0.0001350552629446611,1
1772485624071493376,-0.01476556435227394,1,0.00968605000525713,1,-0.04232224449515343,1,-0.0008308108663186431,1,-0.0007525954861193895,1,-2.492126077413559e-05,1
1772485624081177344,-0.0004173727938905358,1,-0.001182748004794121,1,-0.01610580831766129,1,0.0003756833029910922,1,-0.0002645767235662788,1,-1.307395086769247e-05,1
1772485624090766080,0.006602630019187927,1,-0.003287412226200104,1,0.01310749817639589,1,0.001484169159084558,1,-0.0003285048296675086,1,3.680402369354852e-05,1
1772485624100263424,0.004674301017075777,1,-0.001171518815681338,1,-0.01744087785482407,1,0.003558224765583873,1,-0.0001568022271385416,1,0.000209364021429792,1
1772485624109667840,-0.001003638957627118,1,0.002346716588363051,1,-0.06071322783827782,1,0.005516816396266222,1,0.0005998077103868127,1,-5.626879283227026e-05,1
1772485624118980608,-0.008083582855761051,1,0.003937939181923866,1,-0.001030792482197285,1,0.006739455740898848,1,0.001028590369969606,1,-0.0002897573867812753,1
1772485624129426944,-0.01612951047718525,1,-0.001645098673179746,1,0.07693289965391159,1,0.006711597554385662,1,0.001441017375327647,1,-0.0001448329567210749,1
1772485624140077312,-0.01721838675439358,1,-0.01004970166832209,1,0.1132411062717438,1,0.005860906094312668,1,0.001477353041991591,1,-0.0001723593595670536,1
1772485624150624512,-0.01311184838414192,1,-0.007709113880991936,1,0.0947105884552002,1,0.0041921716183424,1,0.001021586009301245,1,-0.0001076802800525911,1
1772485624161070080,-0.002881554188206792,1,-0.008447305299341679,1,0.07797010987997055,1,0.003290514694526792,1,0.001055101398378611,1,-0.0002033829514402896,1
1772485624171415040,0.003786319633945823,1,-0.004058372229337692,1,0.08142641186714172,1,0.002440598793327808,1,0.001060966053046286,1,-0.000287663919152692,1
1772485624181656576,0.007826727814972401,1,-0.009689022786915302,1,0.110586129128933,1,0.001250897301360965,1,0.0006718724616803229,1,-0.0002357743796892464,1
1772485624191800320,0.005810340866446495,1,-0.01049899961799383,1,0.1104637011885643,1,-0.000351074559148401,1,0.0005457726074382663,1,0.0001712476368993521,1
1772485624201843712,-0.006282731425017118,1,-0.003508321940898895,1,0.09754694253206253,1,-0.002054387703537941,1,0.0002444667916279286,1,0.0001874405861599371,1
1772485624211789824,-0.01289321295917034,1,0.0007786096539348364,1,0.07197915762662888,1,-0.002840367844328284,1,-0.0001311788219027221,1,-1.117869032896124e-05,1
1772485624221650176,-0.009253156371414661,1,-0.006808876059949398,1,0.08181150257587433,1,-0.003760323394089937,1,0.0002039953105850145,1,0.000139771233079955,1
1772485624231419648,-0.001988782547414303,1,-0.008413961157202721,1,0.08980139344930649,1,-0.005235872231423855,1,-0.0001406944065820426,1,0.000191412094864063,1
1772485624241094144,0.009199467487633228,1,-0.00695363711565733,1,0.06328825652599335,1,-0.005418513435870409,1,-0.0003752064367290586,1,0.0002933527575805783,1
1772485624250675968,0.01442618668079376,1,-0.005984870716929436,1,0.01488365605473518,1,-0.00531400041654706,1,-0.0003697094798553735,1,0.000211364240385592,1
1772485624260163840,0.01180202048271894,1,0.004087257664650679,1,0.0009941158350557089,1,-0.004956807475537062,1,-0.000427805760409683,1,0.0002240062167402357,1
1772485624269559552,0.01038207486271858,1,-0.002308286027982831,1,0.02631425112485886,1,-0.004034241661429405,1,-0.0004291764926165342,1,0.0001689615310169756,1
1772485624279016960,0.005314972251653671,1,-0.004670274909585714,1,0.02592266164720058,1,-0.003273928537964821,1,-0.0004250743368174881,1,-6.588934775209054e-05,1
1772485624289749248,-0.002103590872138739,1,0.004352843388915062,1,0.001149487216025591,1,-0.002209815196692944,1,-0.000550272292457521,1,-0.0002032357006100938,1
1772485624300377088,-0.002069673733785748,1,0.004025297239422798,1,-0.03338123112916946,1,-0.00123846938367933,1,-0.0007374885608442128,1,-4.680976053350605e-05,1
1772485624310904576,0.0007439431501552463,1,-0.002626216970384121,1,-0.003920158371329308,1,-0.0002145146136172116,1,-0.00081582524580881,1,5.44393878953997e-05,1
1772485624321330176,0.002830220852047205,1,-0.003205511718988419,1,0.01971886865794659,1,0.0009857333498075604,1,-0.0007481726934202015,1,0.0002897899539675564,1
1772485624331654656,-0.002090658759698272,1,-0.004738812334835529,1,-0.000243328046053648,1,0.002253383863717318,1,-0.0002459642419125885,1,0.0001945569238159806,1
1772485624341880320,-0.005872895941138268,1,0.001780149876140058,1,-0.02272114157676697,1,0.003384273266419768,1,1.674670784268528e-05,1,4.028555849799886e-05,1
1772485624352005120,-0.009590470232069492,1,0.0007881199708208442,1,0.0127508956938982,1,0.004562402609735727,1,0.0001116616840590723,1,-0.000276752543868497,1
1772485624362033408,-0.009316686540842056,1,-0.001690489239990711,1,0.06154335290193558,1,0.004617739003151655,1,0.0004160147509537637,1,-0.000301618070807308,1
1772485624371963648,-0.01121192798018456,1,-0.004084411077201366,1,0.06930688768625259,1,0.004423066042363644,1,0.0008697345620021224,1,-0.0001615839428268373,1
1772485624381805056,-0.01361838821321726,1,2.971437061205506e-05,1,0.05338352546095848,1,0.004245012067258358,1,0.0009057169663719833,1,-1.305408659391105e-06,1
1772485624391554816,-0.0112753976136446,1,-0.001711332937702537,1,0.05621956661343575,1,0.00347901089116931,1,0.001181758125312626,1,5.262639024294913e-05,1
1772485624401210112,-0.002599296160042286,1,-0.005626052618026733,1,0.1056485250592232,1,0.002306656911969185,1,0.000848656811285764,1,-0.0001645168231334537,1
1772485624410770944,0.001833317801356316,1,-0.009423166513442993,1,0.1274202466011047,1,0.0009608286200091243,1,0.0005358033813536167,1,-0.0002493993670213968,1
1772485624420239616,0.0004281587607692927,1,-0.006173156201839447,1,0.101712666451931,1,-0.0003320113173685968,1,0.0006787599995732307,1,-3.965946234529838e-05,1
1772485624429615616,-0.003338725306093693,1,-0.0005161262233741581,1,0.07467018067836761,1,-0.001790522364899516,1,0.0003716316423378885,1,8.450602763332427e-05,1
1772485624439202560,-0.001745740883052349,1,-0.004155705217272043,1,0.100775308907032,1,-0.003083923598751426,1,0.0003805213782470673,1,-0.000157593356561847,1
1772485624449902336,0.002884980058297515,1,-0.009195880033075809,1,0.1214505508542061,1,-0.004727745894342661,1,0.0001163269625976682,1,-0.0001525162224425003,1
1772485624460498176,0.009075065143406391,1,-0.008349022828042507,1,0.07426641881465912,1,-0.005883658304810524,1,-0.0008642401080578566,1,8.669197268318385e-05,1
1772485624470990592,0.01084322482347488,1,0.001390028279274702,1,0.01728249713778496,1,-0.006691782269626856,1,-0.001098227920010686,1,0.0001053036976372823,1
1772485624481379328,0.01420513540506363,1,-0.0009825688321143389,1,0.01864167116582394,1,-0.005851041991263628,1,-0.001282805576920509,1,-7.621687836945057e-05,1
1772485624491670784,0.01667081378400326,1,-0.006493140943348408,1,0.05595953390002251,1,-0.00516653573140502,1,-0.001545605016872287,1,0.0001982505200430751,1
1772485624501864192,0.00674555916339159,1,-0.0004414523718878627,1,0.02069337293505669,1,-0.004034014418721199,1,-0.001445693429559469,1,0.0001591419713804498,1
1772485624511958016,-0.003046826459467411,1,0.006329773925244808,1,-0.0371876060962677,1,-0.002983756130561233,1,-0.001202423358336091,1,0.0001844843354774639,1
1772485624521954304,-0.005306494422256947,1,0.006603049580007792,1,-0.03998291864991188,1,-0.001730242511257529,1,-0.0008789571584202349,1,-0.0001555038179503754,1
1772485624531853056,-0.005092417355626822,1,-0.0004255895619280636,1,0.006318099796772003,1,-0.0001531510788481683,1,-0.0006983540370129049,1,-6.795252556912601e-05,1
1772485624541656320,-0.005067010410130024,1,-0.006201678421348333,1,-0.009011870250105858,1,0.001066285884007812,1,-0.000375246221665293,1,1.687364783720113e-05,1
1772485624551363584,-0.01226963475346565,1,0.0006827651523053646,1,-0.04802680760622025,1,0.002847775816917419,1,0.0001994601625483483,1,-7.888882828410715e-05,1
1772485624560978432,-0.01305423770099878,1,0.01273501291871071,1,-0.03348207101225853,1,0.004376665689051151,1,0.0003297908697277308,1,-0.0002035987417912111,1
1772485624570499072,-0.00690455874428153,1,-0.002855222672224045,1,0.03192786872386932,1,0.005537700373679399,1,0.0009274821495637298,1,-9.12539690034464e-05,1
1772485624579927296,-0.001986628631129861,1,-0.005573403555899858,1,0.08062206953763962,1,0.005736026912927628,1,0.001214095042087138,1,-9.58523105509812e-06,1
1772485624589263872,-0.00392818171530962,1,0.005313294008374214,1,0.09906062483787537,1,0.005163693334907293,1,0.001240925397723913,1,-0.0001574848574819043,1
1772485624599271936,0.001492873881943524,1,-0.00776323489844799,1,0.03910202533006668,1,0.00441731046885252,1,0.000970240740571171,1,-6.201237556524575e-05,1
1772485624609942528,0.004552706610411406,1,-0.01424929685890675,1,0.06653949618339539,1,0.004263000097125769,1,0.001017577713355422,1,-5.916300506214611e-05,1
1772485624620508160,0.003653901861980557,1,0.002181227086111903,1,0.08854779601097107,1,0.002791308565065265,1,0.0006805103039368987,1,-5.007351865060627e-05,1
1772485624630970624,0.005038994364440441,1,-0.009075924754142761,1,0.08856333792209625,1,0.002325120382010937,1,0.000637889897916466,1,2.266614319523796e-05,1
1772485624641337088,-0.0009881865698844194,1,-0.005867838393896818,1,0.07388190180063248,1,0.0005163429887033999,1,0.0003046781057491899,1,3.130077675450593e-05,1
1772485624651602944,-0.006654057186096907,1,-0.00058158696629107,1,0.09618580341339111,1,7.074947643559426e-05,1,1.515046824351884e-05,1,-0.0001457366743125021,1
1772485624661768704,-0.003071926534175873,1,-0.01019335817545652,1,0.1212384849786758,1,-0.001579381991177797,1,-0.0002105811581714079,1,-1.167900791188003e-05,1
1772485624671834624,-0.002361201448366046,1,-7.51740881241858e-05,1,0.09007053077220917,1,-0.002610159106552601,1,-0.0008856366039253771,1,-2.342380685149692e-05,1
1772485624681803008,0.0001518815406598151,1,0.002524389186874032,1,0.08173750340938568,1,-0.003552759066224098,1,-0.001084690680727363,1,2.117445183102973e-05,1
1772485624691672832,0.005413764622062445,1,-0.004203934222459793,1,0.06542960554361343,1,-0.004798060283064842,1,-0.001290523330681026,1,-1.039888593368232e-05,1
1772485624701448192,0.00810073409229517,1,-0.004692720714956522,1,0.09222951531410217,1,-0.005534499417990446,1,-0.001233395421877503,1,-0.0002140209981007501,1
1772485624711127552,0.00462983176112175,1,-0.004696016199886799,1,0.06527247279882431,1,-0.006105630192905664,1,-0.001566238584928215,1,-6.689757719868794e-05,1
1772485624720712448,-0.004292915109544992,1,-0.001959018874913454,1,0.03657406195998192,1,-0.005754909012466669,1,-0.001285975333303213,1,2.99308703688439e-05,1
1772485624730202624,-0.01080789510160685,1,0.002592417877167463,1,0.02527447603642941,1,-0.005674345884472132,1,-0.001049279351718724,1,-0.0001830210821935907,1
1772485624739600896,-0.008583760820329189,1,0.004289335571229458,1,-0.00824209488928318,1,-0.004892582539469004,1,-0.001110934070311487,1,-5.711459016310982e-05,1
1772485624748905472,0.002389907836914062,1,0.002602801891043782,1,-0.0541117936372757,1,-0.002875487087294459,1,-0.0007552288589067757,1,0.0002769466955214739,1
1772485624759350528,0.00972285307943821,1,0.004233974032104015,1,-0.06355872750282288,1,-0.001025314792059362,1,-0.0003268568543717265,1,0.0001874676090665162,1
1772485624770000640,0.0194288082420826,1,-0.00515565974637866,1,-0.03506168723106384,1,0.001270347158424556,1,-0.0002319909690413624,1,0.0001560339151183143,1
1772485624780546560,0.01293096877634525,1,-0.01257603336125612,1,-0.02263473719358444,1,0.0029030900914222,1,0.0004909467534162104,1,0.0002835620252881199,1
1772485624790992384,-0.008055059239268303,1,0.005306926555931568,1,-0.005135517567396164,1,0.004534238018095493,1,0.001044775592163205,1,0.0002214683045167476,1
1772485624801336320,-0.02063646726310253,1,0.007569763343781233,1,-0.003421443281695247,1,0.005487258546054363,1,0.000999908777885139,1,0.0002703846548683941,1
1772485624811580416,-0.02102121710777283,1,-0.003996746614575386,1,0.03547154739499092,1,0.006074213422834873,1,0.0009913906687870622,1,1.706951479718555e-05,1
1772485624821725184,-0.01430861931294203,1,0.004510160069912672,1,0.06833180785179138,1,0.005982485599815845,1,0.001161438063718379,1,4.064295717398636e-05,1
1772485624831770880,0.0009683158714324236,1,-0.004226541146636009,1,0.07139858603477478,1,0.005539954639971256,1,0.001222182530909777,1,2.286082599312067e-05,1
1772485624841719552,0.01366895623505116,1,-0.006029985379427671,1,0.06944011896848679,1,0.004464298021048307,1,0.0008482066914439201,1,-6.606047827517614e-05,1
1772485624851576576,0.01162130478769541,1,0.004363029263913631,1,0.08421492576599121,1,0.003224558895453811,1,0.0009604096412658691,1,-0.0001662272261455655,1
1772485624861343744,0.008690616115927696,1,-0.002336364239454269,1,0.09335257112979889,1,0.002253640908747911,1,0.0005143425660207868,1,-0.0002431666507618502,1
1772485624871016192,0.001446039997972548,1,-0.007636514957994223,1,0.1037932112812996,1,0.001066983444616199,1,0.0006413256051018834,1,8.898132364265621e-08,1
1772485624880594176,-0.009730303660035133,1,-0.00179223611485213,1,0.1013447046279907,1,-0.0003943963383790106,1,0.0004025177622679621,1,3.101104084635153e-05,1
1772485624890080512,-0.01124606933444738,1,-0.002667892258614302,1,0.1171729192137718,1,-0.002060935599729419,1,0.0003928112564608455,1,0.0002043966087512672,1
1772485624899473920,-0.0100778779014945,1,-0.002509312238544226,1,0.1060576513409615,1,-0.003312378190457821,1,-0.0003857272095046937,1,0.0001852387649705634,1
1772485624908928512,-0.004540171008557081,1,-0.005569509696215391,1,0.08726124465465546,1,-0.004720634315162897,1,-0.0008322012727148831,1,-6.809193291701376e-05,1
1772485624919660288,0.005520500708371401,1,-0.004816452041268349,1,0.06666301935911179,1,-0.00563513208180666,1,-0.001050090533681214,1,2.456811125739478e-05,1
1772485624930286848,0.01448071002960205,1,-0.002716471441090107,1,0.0676129162311554,1,-0.006142261438071728,1,-0.001155958278104663,1,-2.426011451461818e-05,1
1772485624940811776,0.01803548820316792,1,-0.005985163152217865,1,0.02968445234000683,1,-0.005578154232352972,1,-0.001613280386663973,1,-4.606356014846824e-05,1
1772485624951235328,0.01036092918366194,1,0.005127496551722288,1,-0.01736277341842651,1,-0.004879195243120193,1,-0.001264482154510915,1,0.0002873646735679358,1
1772485624961557248,-0.003900760086253285,1,0.009584491141140461,1,-0.01244230940937996,1,-0.003483686130493879,1,-0.00104467652272433,1,0.0002123878075508401,1
1772485624971778816,-0.008775794878602028,1,-0.006605902221053839,1,0.03474963828921318,1,-0.002342499326914549,1,-0.0006135405856184661,1,2.558531195973046e-05,1
1772485624981900544,-0.01236587669700384,1,-0.008685940876603127,1,0.03675443679094315,1,-0.001692661317065358,1,-0.000551203265786171,1,0.0001748063805280253,1
1772485624991924480,-0.01439497526735067,1,0.001822964171878994,1,-0.02916666306555271,1,-0.000271486584097147,1,-0.0005617800052277744,1,0.0002669085515663028,1
1772485625001849600,-0.004475167021155357,1,-0.003271102672442794,1,-0.07933740317821503,1,0.001770525705069304,1,-9.276634955313057e-05,1,-4.447889659786597e-05,1
1772485625011680256,0.007131519727408886,1,-0.00111786019988358,1,-0.04333290457725525,1,0.003290290711447597,1,0.0006160868797451258,1,-0.0001610972103662789,1
1772485625021420544,0.009756360203027725,1,0.004638288635760546,1,0.02217134460806847,1,0.004640212748199701,1,0.0006746512954123318,1,-0.0001284035970456898,1
1772485625031072000,0.007389120291918516,1,-0.002770165912806988,1,0.002786573953926563,1,0.006100507918745279,1,0.0009571738191880286,1,-1.757001155056059e-05,1
1772485625040630016,-0.006020165979862213,1,0.0002001847606152296,1,-0.003319368930533528,1,0.006561894901096821,1,0.001122670480981469,1,9.714115731185302e-05,1
1772485625050094848,-0.0113477036356926,1,0.004755991511046886,1,0.04560628533363342,1,0.006511050276458263,1,0.001302557182498276,1,6.1539321905002e-05,1
1772485625059467520,-0.004718055948615074,1,-0.01608881913125515,1,0.1204678490757942,1,0.005605303682386875,1,0.0008462236146442592,1,-7.20126308806357e-06,1
1772485625069052160,-0.002517024055123329,1,-0.01514053344726562,1,0.1155355647206306,1,0.00423000380396843,1,0.0008806620026007295,1,3.123387432424352e-05,1
1772485625079752448,-0.006342054810374975,1,0.0002989726781379431,1,0.0724090188741684,1,0.002492011059075594,1,0.0004896899336017668,1,0.0001913541927933693,1
1772485625090347520,-0.00218605762347579,1,2.427314757369459e-05,1,0.06403683871030807,1,0.0007980800000950694,1,0.0008083422435447574,1,0.0001771612442098558,1
1772485625100839424,0.001482002204284072,1,-0.005131983663886786,1,0.1305702179670334,1,-0.0001866099191829562,1,0.0005650456296280026,1,8.775380410952494e-05,1
1772485625111230720,0.004068753682076931,1,-0.007204605266451836,1,0.1507744342088699,1,-0.002192210638895631,1,-0.0003344291471876204,1,-9.498950021225028e-06,1
1772485625121524480,-0.005527179688215256,1,0.0005198212456889451,1,0.09841020405292511,1,-0.003527728375047445,1,-0.0005048312596045434,1,3.498340083751827e-05,1
1772485625131718912,-0.008437648415565491,1,0.002805831376463175,1,0.06352243572473526,1,-0.004753407556563616,1,-0.0004540734807960689,1,-9.173727448796853e-05,1
1772485625141814528,-0.003955704160034657,1,-0.007033915258944035,1,0.07789163291454315,1,-0.005352141335606575,1,-0.0005204801564104855,1,4.109555447939783e-06,1
1772485625151812608,-0.0009615955641493201,1,-0.0104471268132329,1,0.07151245325803757,1,-0.005913224071264267,1,-0.0005917481612414122,1,6.539867899846286e-05,1
1772485625161713152,-0.000703051162417978,1,-0.005975055973976851,1,0.02840006723999977,1,-0.005572442431002855,1,-0.0008519421680830419,1,0.0001213270661537535,1
1772485625171517440,-0.001680020475760102,1,0.004684666637331247,1,-0.01443402282893658,1,-0.004642452113330364,1,-0.0007983252289704978,1,0.0001769913651514798,1
1772485625181228288,0.0005188673967495561,1,0.001406945171765983,1,0.001309239538386464,1,-0.003814441384747624,1,-0.0002551194920670241,1,5.559986675507389e-05,1
1772485625190844416,0.004476277157664299,1,-0.00131880259141326,1,0.03366057947278023,1,-0.003331846324726939,1,-0.0001048451813403517,1,-3.878663119394332e-05,1
1772485625200366592,0.007172249257564545,1,-0.0008647447684779763,1,0.02146908827126026,1,-0.002332080155611038,1,-0.0006187676335684955,1,3.33569769281894e-05,1
1772485625209796352,0.006099756807088852,1,0.001516661490313709,1,-0.03080432489514351,1,-0.001464503235183656,1,-0.0006784189608879387,1,7.485637615900487e-05,1
1772485625219133184,0.002998109208419919,1,0.005759427323937416,1,-0.04437274858355522,1,-0.0001192632189486176,1,-0.00061007309705019,1,0.0001251586218131706,1
1772485625229141504,0.002033528871834278,1,-0.001239884877577424,1,-0.01426251977682114,1,0.001622780226171017,1,-0.0001016663227346726,1,3.881325392285362e-05,1
1772485625239811328,-0.003236545948311687,1,-0.001871291548013687,1,-0.01166355237364769,1,0.003613773733377457,1,0.0004257933760527521,1,0.0003077676810789853,1
1772485625250377984,-0.008386703208088875,1,0.004677890799939632,1,-0.008687556721270084,1,0.004607206210494041,1,0.0004156272916588932,1,-3.43594620062504e-05,1
1772485625260843776,-0.007423852570354939,1,0.001409513759426773,1,-0.01195810362696648,1,0.005827879067510366,1,0.0004482398217078298,1,0.0001363732444588095,1
1772485625271207424,-0.004206323064863682,1,-0.001452852273359895,1,0.04601243883371353,1,0.006458633113652468,1,0.000506108277477324,1,8.691407856531441e-05,1
1772485625281467904,0.004148488398641348,1,-0.004232578445225954,1,0.1016687005758286,1,0.005646275356411934,1,0.0006128327222540975,1,0.0002131638611899689,1
1772485625291629312,0.008532901294529438,1,-0.0129099003970623,1,0.1203526705503464,1,0.004587041214108467,1,0.000564862391911447,1,3.219630889361724e-05,1
1772485625301692672,0.003428852651268244,1,-0.005056058987975121,1,0.07667890191078186,1,0.002951725851744413,1,0.0003193801094312221,1,-1.42955977935344e-05,1
1772485625311655936,-0.005279595497995615,1,0.004477128386497498,1,0.07050976902246475,1,0.002000490203499794,1,0.000436666450696066,1,4.912540680379607e-05,1
1772485625321530112,-0.004780610557645559,1,-0.003908668644726276,1,0.1163882166147232,1,0.0001281487348023802,1,0.0003593780566006899,1,-4.135819835937582e-05,1
1772485625331311104,-0.006775141227990389,1,-0.01016818173229694,1,0.140812024474144,1,-0.001651706174015999,1,-0.0003124299983028322,1,-0.0001269147760467604,1
1772485625340997120,-0.006837699562311172,1,-0.003236901247873902,1,0.1168421432375908,1,-0.003059197915717959,1,-0.0005429654847830534,1,0.0001122903704526834,1
1772485625350589952,-0.004992335569113493,1,-0.002513865008950233,1,0.07744100689888,1,-0.00435126107186079,1,-0.0007537166820839047,1,-1.917406916618347e-05,1
1772485625360089088,0.00116046005859971,1,-0.005588929634541273,1,0.0742037370800972,1,-0.005343832075595856,1,-0.0006227042176760733,1,8.880873792804778e-05,1
1772485625369496064,0.01049451716244221,1,-0.006930362898856401,1,0.06871925294399261,1,-0.00590087054297328,1,-0.0007187292212620378,1,0.0001681688008829951,1
1772485625378812160,0.01400856766849756,1,-0.006831217557191849,1,0.03023558296263218,1,-0.005121203605085611,1,-0.001143268193118274,1,-0.0001789721864042804,1
1772485625389258496,0.009247102774679661,1,0.003716654377058148,1,0.003746552160009742,1,-0.00468336557969451,1,-0.0008930256590247154,1,-6.234696775209159e-05,1
1772485625399908096,0.006837888155132532,1,0.005416013766080141,1,0.005123279988765717,1,-0.004284828435629606,1,-0.001174474484287202,1,-9.106370998779312e-05,1
1772485625410454016,0.002399114426225424,1,-0.00665351515635848,1,0.02905789203941822,1,-0.003680460387840867,1,-0.0005028045852668583,1,2.435890564811416e-05,1
1772485625420896512,-0.005728188902139664,1,-0.004008392337709665,1,0.02570034377276897,1,-0.002805524505674839,1,-0.0003241231315769255,1,-5.284650251269341e-05,1
1772485625431240704,-0.01234929542988539,1,0.001926488475874066,1,-0.02080446109175682,1,-0.001733874902129173,1,-0.0006896632257848978,1,0.000269821030087769,1
1772485625441485824,-0.01318293251097202,1,-0.0006269061705097556,1,-0.05334325134754181,1,-5.3611263865605e-05,1,-0.0005556244286708534,1,0.0001372300175717101,1
1772485625451631616,-0.008002756163477898,1,-0.006656874902546406,1,-0.04964575543999672,1,0.001828987500630319,1,0.0002962376456707716,1,0.0001486297842347994,1
1772485625461678080,-0.005576835013926029,1,0.002101914491504431,1,-0.01466068346053362,1,0.004045546986162663,1,0.000460231676697731,1,-9.517818398308009e-05,1
1772485625471625984,-0.000757041503675282,1,0.006209291517734528,1,-0.00305099063552916,1,0.005234099924564362,1,0.000642207742203027,1,-0.0002222668554168195,1
1772485625481477632,-0.003919702488929033,1,-0.0004251928476151079,1,0.02076779864728451,1,0.0059319450519979,1,0.0007551767630502582,1,-3.730265234480612e-06,1
1772485625491233792,-0.00601882440969348,1,-0.000433789100497961,1,0.06388568878173828,1,0.006022920832037926,1,0.001279375865124166,1,-0.0001038182963384315,1
1772485625500894976,-0.004391005262732506,1,-0.00898636132478714,1,0.09969929605722427,1,0.004839970730245113,1,0.001202517072670162,1,-0.000115846487460658,1
1772485625510461952,-0.003083601128309965,1,-0.01237416919320822,1,0.08839871734380722,1,0.003991777542978525,1,0.001259598764590919,1,-8.281515329144895e-05,1
1772485625519934464,-0.005811686161905527,1,0.004919940140098333,1,0.05621286481618881,1,0.002878001425415277,1,0.0009230005089193583,1,-0.0001592281041666865,1
1772485625529314816,-0.000659823534078896,1,0.002424334641546011,1,0.06263191252946854,1,0.002463880926370621,1,0.001102558802813292,1,-2.242239315819461e-05,1
1772485625538756608,0.002309826901182532,1,-0.008241835981607437,1,0.122315876185894,1,0.000796546577475965,1,0.001161132473498583,1,-0.0002277992607560009,1
1772485625549489408,0.002438995288684964,1,-0.007404537871479988,1,0.1493980884552002,1,-0.0008611747762188315,1,0.0005221698083914816,1,-0.0001043771844706498,1
1772485625560117504,-0.002615369856357574,1,-0.003016679082065821,1,0.1186609789729118,1,-0.002360995626077056,1,-0.0003685263800434768,1,-5.543841689359397e-05,1
1772485625570645760,-0.0006088103400543332,1,-0.003501053899526596,1,0.08905008435249329,1,-0.004059049300849438,1,-0.000798252469394356,1,-0.000162900410941802,1
1772485625581071616,0.004787968937307596,1,-0.003843926824629307,1,0.07654792815446854,1,-0.004991217516362667,1,-0.0007735842373222113,1,-0.0004356939462013543,1
1772485625591396096,0.01314066350460052,1,-0.007453987374901772,1,0.05925764143466949,1,-0.00525977648794651,1,-0.001137266284786165,1,-0.0002413544862065464,1
1772485625601621248,0.008363349363207817,1,-0.008343810215592384,1,0.02278752624988556,1,-0.00508499750867486,1,-0.001535285613499582,1,-0.0002099801931763068,1
1772485625611746048,0.0002081231796182692,1,0.003590145613998175,1,-0.01230034790933132,1,-0.004412101116031408,1,-0.001440821564756334,1,-0.0001922818773891777,1
1772485625621771520,-0.004221143666654825,1,0.002687315456569195,1,-0.004966218024492264,1,-0.00393675547093153,1,-0.001069748075678945,1,-0.0002200848248321563,1
1772485625631699456,-0.002401584293693304,1,-0.006372727919369936,1,0.03122990950942039,1,-0.003619939321652055,1,-0.0006772165070287883,1,-0.0002359110658289865,1
1772485625641532416,-0.006428451277315617,1,-0.008407031185925007,1,0.04565714299678802,1,-0.003111170139163733,1,-0.0006940743769519031,1,3.751535405172035e-05,1
1772485625651279360,-0.005215574987232685,1,-0.0005434375489130616,1,-0.004129896871745586,1,-0.002202101983129978,1,-0.0005284021608531475,1,0.0002860308159142733,1
1772485625660933888,-0.001778049161657691,1,-0.001197244739159942,1,-0.03878477215766907,1,-0.001136660925112665,1,-0.0002495865046512336,1,3.012172055605333e-05,1
1772485625670494720,0.0008570146164856851,1,-0.004117007367312908,1,-0.04351091757416725,1,0.001003698445856571,1,-0.0001345852797385305,1,-0.0001510326401330531,1
1772485625679963136,-0.000189859070815146,1,-0.002978079952299595,1,-0.02867563255131245,1,0.002789957448840141,1,0.0002737421891652048,1,6.245267286431044e-05,1
1772485625689339904,-0.006424226332455873,1,0.00265571684576571,1,-0.01396979577839375,1,0.004387652035802603,1,0.0008407040149904788,1,0.0002501894487068057,1
1772485625698927872,-0.01339294668287039,1,-0.001995841506868601,1,0.008435670286417007,1,0.006037913262844086,1,0.001160529325716197,1,0.0004257196269463748,1
1772485625709628928,-0.01251537725329399,1,0.001852965215221047,1,0.02942642755806446,1,0.006086623761802912,1,0.001040884177200496,1,0.0001142476903623901,1
1772485625720227328,-0.009088153019547462,1,-0.001293037319555879,1,0.07383333891630173,1,0.005589671432971954,1,0.0007748541538603604,1,-2.051533738267608e-05,1
1772485625730722560,0.003291583620011806,1,-0.01301258523017168,1,0.0964118167757988,1,0.00447824876755476,1,0.0007078537601046264,1,-0.0001582869881531224,1
1772485625741114112,0.007580289151519537,1,-0.007104640826582909,1,0.09165323525667191,1,0.003591641550883651,1,0.0005653338739648461,1,1.392577541992068e-05,1
1772485625751410176,0.006643096450716257,1,0.0006602202192880213,1,0.08488470315933228,1,0.002355361822992563,1,0.0004420011828187853,1,8.698321471456438e-05,1
1772485625761606656,0.008597612380981445,1,-0.007656572852283716,1,0.1293123960494995,1,0.0005958649562671781,1,3.062716132262722e-05,1,-5.006236096960492e-05,1
1772485625771703296,0.004319249652326107,1,-0.008703519590198994,1,0.1530339419841766,1,-0.001533325528725982,1,-0.0006636072066612542,1,-0.0003884875623043627,1
1772485625781701376,-0.005230928771197796,1,-0.004991451278328896,1,0.1081962734460831,1,-0.002776542911306024,1,-0.0008235671557486057,1,-7.819247548468411e-05,1
1772485625791601408,-0.01202318072319031,1,-0.00557722058147192,1,0.07162339240312576,1,-0.003970514982938766,1,-0.0006630020798183978,1,-0.0002621918101795018,1
1772485625801404672,-0.00823652371764183,1,-0.004386903718113899,1,0.07794549316167831,1,-0.004864053335040808,1,-0.0004948941641487181,1,-0.0001224342995556071,1
1772485625811113728,-0.002065303968265653,1,-0.004966321401298046,1,0.0937044695019722,1,-0.005550817586481571,1,-0.0007857361924834549,1,4.922119114780799e-05,1
1772485625820728576,0.000971845758613199,1,-0.009044271893799305,1,0.07373868674039841,1,-0.006146390456706285,1,-0.001225357758812606,1,-0.0001818632590584457,1
1772485625830249472,0.0008919402025640011,1,0.004188363905996084,1,-0.007986745797097683,1,-0.005091720726341009,1,-0.000798730761744082,1,0.0001493310846854001,1
1772485625839677952,0.0003353659412823617,1,0.01145118847489357,1,-0.05230053886771202,1,-0.004205638542771339,1,-0.0004616948426701128,1,-0.0001723224704619497,1
1772485625849012992,0.007570055313408375,1,-0.002460625255480409,1,0.005401878617703915,1,-0.002979990327730775,1,-0.0001477694604545832,1,0.0002008184092119336,1
1772485625859017472,0.005305223166942596,1,-0.009442267939448357,1,0.05745310336351395,1,-0.00218142569065094,1,-0.0001589209859957919,1,-5.840610538143665e-05,1
1772485625869680384,-0.0003747345472220331,1,-0.006023010239005089,1,0.003450967371463776,1,-0.001421187887899578,1,-0.0005091074272058904,1,-2.06392323889304e-05,1
1772485625880240384,-0.004986175335943699,1,-0.0001968104625120759,1,-0.06323274224996567,1,0.0003293452609796077,1,0.0001044015007209964,1,8.630329102743417e-05,1
1772485625890695936,-0.001468203263357282,1,0.0003651482693385333,1,-0.05035555735230446,1,0.002297630300745368,1,0.0006413700757548213,1,0.0002888524322770536,1
1772485625901051648,0.0006140752229839563,1,0.001698029227554798,1,0.001071134814992547,1,0.004021777771413326,1,0.0008070057956501842,1,7.419469329761341e-05,1
1772485625911310848,-0.001890895306132734,1,0.002238293178379536,1,0.007820907048881054,1,0.005020931828767061,1,0.001144992536865175,1,0.0001788387598935515,1
1772485625921469440,-0.005588843952864408,1,-0.0005404975963756442,1,0.01845843158662319,1,0.005446805618703365,1,0.0008899068925529718,1,-0.0001177478407043964,1
1772485625931529984,-0.007536368910223246,1,0.003395523875951767,1,0.03071940131485462,1,0.006016180384904146,1,0.001203657360747457,1,-0.0002603981702122837,1
1772485625941492224,-0.006041781976819038,1,-0.008075402118265629,1,0.05072882398962975,1,0.006025345996022224,1,0.001085666473954916,1,-0.0003026063204742968,1
1772485625951357184,-0.002117005176842213,1,-0.0091513367369771,1,0.06961365789175034,1,0.005747074261307716,1,0.001113712904043496,1,-0.000291206844849512,1
1772485625961125376,0.001938055735081434,1,-0.005915414541959763,1,0.08631152659654617,1,0.004630371928215027,1,0.001356380293145776,1,-0.0003208807611372322,1
1772485625970800384,0.005096306558698416,1,-0.006243695039302111,1,0.1080607250332832,1,0.003011391032487154,1,0.001334246015176177,1,-0.0003387563920114189,1
1772485625980379648,0.004411512054502964,1,-0.00596019858494401,1,0.1404831260442734,1,0.0007905837846919894,1,0.0008361394866369665,1,-0.0002612276584841311,1
1772485625989865984,-0.002646211767569184,1,0.001429418916814029,1,0.1234318166971207,1,-0.0006715983035974205,1,0.0001006913589662872,1,-7.814305718056858e-05,1
1772485625999258368,-0.003912026528269053,1,-0.002133239526301622,1,0.09662623703479767,1,-0.002091686008498073,1,-0.0002986490144394338,1,-0.0001080178044503555,1
1772485626008559104,-0.0007332645473070443,1,-0.005216488149017096,1,0.1108450815081596,1,-0.004600304644554853,1,-0.0003095826250500977,1,0.0001964953262358904,1
1772485626019162368,-0.002635240321978927,1,-0.00478642899543047,1,0.1245052367448807,1,-0.005520104896277189,1,-0.0003488598158583045,1,4.357338912086561e-05,1
1772485626029817344,0.002926234155893326,1,-0.01220635138452053,1,0.06539750099182129,1,-0.00650965329259634,1,-0.0005691046826541424,1,-0.0003123633214272559,1
1772485626040368384,0.005552066955715418,1,-0.0002379975048825145,1,-0.006654213182628155,1,-0.005349010694772005,1,-0.0009280061931349337,1,-0.0003042932075913996,1
1772485626050816768,0.004420549608767033,1,0.008161656558513641,1,-0.01877363212406635,1,-0.004620274063199759,1,-0.001205393229611218,1,-0.0002694451832212508,1
1772485626061165824,0.01096922252327204,1,-0.001407203380949795,1,0.003859471995383501,1,-0.003800739767029881,1,-0.001172621501609683,1,-0.0001552159956190735,1
1772485626071416064,0.01284584030508995,1,-0.008278960362076759,1,0.03627074882388115,1,-0.003092900849878788,1,-0.0006856726831756532,1,-6.690763984806836e-05,1
1772485626081566464,-0.0003329163882881403,1,0.0002609320217743516,1,0.01410350576043129,1,-0.002135287271812558,1,-0.0002631618699524552,1,-4.521389564615674e-05,1
1772485626091616000,-0.005938343238085508,1,0.001391813857480884,1,-0.03147721663117409,1,-0.001559703960083425,1,-0.0004205819277558476,1,-5.701143527403474e-05,1
1772485626101567488,-0.007673623505979776,1,-0.000506965268868953,1,-0.04428660497069359,1,7.177863153629005e-05,1,-0.0004009469994343817,1,0.0001470906136091799,1
1772485626111422208,-0.004063545260578394,1,-0.002297006314620376,1,-0.03480812162160873,1,0.00193705060519278,1,-0.0001699037966318429,1,0.000222962349653244,1
1772485626121179904,-0.001786995329894125,1,0.002216821536421776,1,-0.03109227493405342,1,0.004132264293730259,1,0.0006419458077289164,1,0.0001513407041784376,1
1772485626130844416,-0.00308713736012578,1,0.008209819905459881,1,-0.005978445522487164,1,0.005023949779570103,1,0.0009351883199997246,1,9.668088023317978e-05,1
1772485626140413184,0.001249378197826445,1,-0.0006747556617483497,1,0.04078755155205727,1,0.005649222992360592,1,0.0009990493999794126,1,3.535191353876144e-06,1
1772485626149888768,-0.00273402757011354,1,0.001942686620168388,1,0.06251116842031479,1,0.005740405526012182,1,0.001259562908671796,1,0.0001019824048853479,1
1772485626159271424,-0.0045252894051373,1,0.000639407429844141,1,0.06211245805025101,1,0.005020851269364357,1,0.001334932981990278,1,0.0001687564508756623,1
1772485626168716032,-0.002261213259771466,1,-0.00771466176956892,1,0.07082951068878174,1,0.004092257469892502,1,0.001376806641928852,1,0.0001890457060653716,1
1772485626179449088,0.0004874171281699091,1,-0.009337763302028179,1,0.09647113084793091,1,0.002974679693579674,1,0.001043270458467305,1,0.0002590625372249633,1
1772485626190077696,0.001431667129509151,1,-0.008195267058908939,1,0.1085116788744926,1,0.001724753994494677,1,0.0009214261663146317,1,7.809676026226953e-05,1
1772485626200604416,0.001997833605855703,1,-0.005884798243641853,1,0.1218370124697685,1,9.040007716976106e-05,1,0.0003619509225245565,1,5.351914296625182e-05,1
1772485626211030272,-0.0003136529121547937,1,-0.002482573734596372,1,0.111600749194622,1,-0.001650060061365366,1,0.0001621573755983263,1,-3.841309080598876e-05,1
1772485626221354752,-0.002848889445886016,1,-0.001962867332622409,1,0.1003747433423996,1,-0.00315012177452445,1,-0.0002576159022282809,1,-0.0001379443565383554,1
1772485626231578368,-0.00029036431806162,1,-0.005996966734528542,1,0.1233438700437546,1,-0.004768757615238428,1,-0.0009004921885207295,1,-3.759188984986395e-05,1
1772485626241702400,0.003612773027271032,1,-0.009515554644167423,1,0.1307145208120346,1,-0.006224511191248894,1,-0.001403761794790626,1,-8.46823095344007e-05,1
1772485626251728384,0.006766192149370909,1,-0.009799547493457794,1,0.06128764525055885,1,-0.00725626153871417,1,-0.001589085091836751,1,-0.0001900087809190154,1
1772485626261656064,0.002023998182266951,1,0.001308594946749508,1,-0.04145097360014915,1,-0.006218795664608479,1,-0.001708872383460402,1,-2.726152160903439e-05,1
1772485626271489024,-0.0007231694180518389,1,0.01089449599385262,1,-0.06386086344718933,1,-0.004297555424273014,1,-0.001176453195512295,1,-0.0003261516685597599,1
1772485626281234688,0.004666490014642477,1,0.001427532755769789,1,0.004158008843660355,1,-0.003301070770248771,1,-0.0006191504071466625,1,-0.0003582987410482019,1
1772485626290888448,0.005891392473131418,1,-0.01275583542883396,1,0.05695025622844696,1,-0.00231643277220428,1,-0.0003220009384676814,1,-5.014022463001311e-05,1
1772485626300448000,-0.00353371724486351,1,-0.004372112918645144,1,0.01604631915688515,1,-0.001618267851881683,1,-0.0005361748044379056,1,2.994402166223153e-07,1
1772485626309914368,-0.008319693617522717,1,0.003493889234960079,1,-0.06653205305337906,1,-0.0003492745745461434,1,-0.0002384696126682684,1,-0.0001887254184111953,1
1772485626319287808,-0.00735065620392561,1,0.0005448331357911229,1,-0.06162421777844429,1,0.001298864604905248,1,0.0002977361145894974,1,-5.070908810012043e-05,1
1772485626328871680,-0.003010137472301722,1,-0.0001839192991610616,1,-0.006936832331120968,1,0.003081594360992312,1,0.0007701357244513929,1,5.592166417045519e-06,1
1772485626339565824,-0.001091610407456756,1,-5.890110332984477e-05,1,0.01790834590792656,1,0.00472224410623312,1,0.0008986427565105259,1,0.0001257137191714719,1
1772485626350155264,-0.002910791430622339,1,0.0002193085238104686,1,-0.006219130009412766,1,0.005967034492641687,1,0.0008290490950457752,1,0.00011603650636971,1
1772485626360641536,-0.004175543319433928,1,0.00920039601624012,1,0.002021923195570707,1,0.00650364626199007,1,0.001143501605838537,1,-2.157881317543797e-05,1
1772485626371025664,0.002037222264334559,1,-0.001784075167961419,1,0.05422357842326164,1,0.006460097152739763,1,0.001097216736525297,1,-0.0001907768892124295,1
1772485626381313536,0.007971963845193386,1,-0.01371268462389708,1,0.09556706249713898,1,0.005628357175737619,1,0.001172805670648813,1,3.756439036806114e-05,1
1772485626391501312,0.001015349291265011,1,-0.003232796676456928,1,0.09189368039369583,1,0.00423039123415947,1,0.001086594071239233,1,0.000180066330358386,1
1772485626401589248,-0.005465573631227016,1,0.003761632367968559,1,0.08015014976263046,1,0.003245833562687039,1,0.001032794360071421,1,6.399706762749702e-06,1
1772485626411579392,-0.00523213529959321,1,-0.005106117576360703,1,0.1119565069675446,1,0.001709609990939498,1,0.0008108003530651331,1,-9.236947516910732e-05,1
1772485626421472256,-0.003780149389058352,1,-0.00801851786673069,1,0.1456663608551025,1,-0.0001585077698109671,1,0.0005680375616066158,1,-0.0002234553103335202,1
1772485626431268096,-0.001031721010804176,1,-0.003849080996587873,1,0.1213667243719101,1,-0.001716588856652379,1,7.351449312409386e-06,1,-0.0004182964912615716,1
1772485626440969472,-0.0003402032889425755,1,-0.003804294159635901,1,0.09408391267061234,1,-0.003130706725642085,1,-0.0003727257717400789,1,-0.0002861199318431318,1
1772485626450576640,0.00132306176237762,1,-0.002917991718277335,1,0.09247217327356339,1,-0.004438250325620174,1,-0.0008438508957624435,1,-0.0004391532565932721,1
1772485626460089088,0.002214467152953148,1,-0.005861747078597546,1,0.1011501476168633,1,-0.005529945250600576,1,-0.000933638890273869,1,-0.000396398885641247,1
1772485626469509376,0.001628441386856139,1,-0.01082848571240902,1,0.0627133697271347,1,-0.005751199088990688,1,-0.001128494739532471,1,-5.809296999359503e-05,1
1772485626478836480,-0.000769045960623771,1,0.00115716690197587,1,0.01741329021751881,1,-0.005305375903844833,1,-0.001099422690458596,1,-0.0002073071518680081,1
1772485626488990208,-0.002468794817104936,1,0.006741786375641823,1,-0.01184846926480532,1,-0.004616138990968466,1,-0.0008585201576352119,1,-0.000168136932188645,1
1772485626499653632,0.0003867206978611648,1,0.001599690411239862,1,-0.0006365904118865728,1,-0.004183493554592133,1,-0.0005948852631263435,1,-1.972860627574846e-05,1
1772485626510213632,0.001115835504606366,1,-0.004484761971980333,1,0.03675904870033264,1,-0.002982400823384523,1,-0.0003495126438792795,1,0.0002175566769437864,1
1772485626520670464,-0.002791700884699821,1,-0.00951960776001215,1,0.03593315556645393,1,-0.003018710296601057,1,-0.0007003441569395363,1,0.0001726355112623423,1
1772485626531028224,-0.005899891257286072,1,-0.00360385631211102,1,-0.007287127897143364,1,-0.002085246378555894,1,-0.0004529926518443972,1,2.979361670440994e-05,1
1772485626541287936,-0.004147627390921116,1,0.00244930200278759,1,-0.03600959852337837,1,-0.0006356771336868405,1,-0.0003411194775253534,1,0.0002201401512138546,1
1772485626551447296,0.0001076724729500711,1,-0.002661808859556913,1,-0.03402306511998177,1,0.001199601450935006,1,-0.000243744783801958,1,0.0002937759272754192,1
1772485626561508608,0.003271870547905564,1,-0.003186715766787529,1,-0.02480453066527843,1,0.002670207060873508,1,0.0002382781385676935,1,0.0002381892991252244,1
1772485626571471360,0.001031024614349008,1,0.0004216341476421803,1,-0.001208729576319456,1,0.004269563127309084,1,0.0006620559724979103,1,0.0001796487777028233,1
1772485626581337344,-0.001704571768641472,1,-0.001144223148003221,1,0.02055903151631355,1,0.005193448159843683,1,0.0009618772310204804,1,4.804279888048768e-05,1
1772485626591106560,-0.009211010299623013,1,-0.004575153812766075,1,0.04091760516166687,1,0.005894092377275229,1,0.001203809282742441,1,2.542693255236372e-05,1
1772485626600782336,-0.01054559275507927,1,0.001720463391393423,1,0.05700568109750748,1,0.005560243502259254,1,0.00145791657269001,1,-0.0003472949611023068,1
1772485626610362880,-0.003642560448497534,1,-0.005535222124308348,1,0.0789220780134201,1,0.004704393446445465,1,0.0009558856836520135,1,-0.0002038894745055586,1
1772485626619849216,0.001477110432460904,1,-0.008351488970220089,1,0.07826300710439682,1,0.00339599372819066,1,0.001011634361930192,1,-4.743796307593584e-05,1
1772485626629243136,0.003689543809741735,1,-0.003756586695089936,1,0.07569585740566254,1,0.002667527180165052,1,0.0008163971360772848,1,-0.0002669836103450507,1
1772485626638544384,0.003795942291617393,1,-0.003637729212641716,1,0.08552321046590805,1,0.001432523131370544,1,0.0006558664026670158,1,-0.00016069742559921,1
1772485626649142016,0.0001050766441039741,1,-0.005801769439131021,1,0.1057834401726723,1,0.0002675491268746555,1,0.0005494097131304443,1,-0.0002659455349203199,1
1772485626659791616,-0.00428328849375248,1,-0.005704380571842194,1,0.1081026270985603,1,-0.0009528394439257681,1,0.0002097515825880691,1,-0.0002205795608460903,1
1772485626670336512,-0.008666669018566608,1,-0.001627358607947826,1,0.1053345501422882,1,-0.002433141227811575,1,9.965196659322828e-05,1,-0.0001127858486142941,1
1772485626680778496,-0.006330192554742098,1,-0.00494469003751874,1,0.1249002292752266,1,-0.004151858855038881,1,-0.0004723379388451576,1,3.960266622016206e-05,1
1772485626691119104,-0.001780512393452227,1,-0.01211504079401493,1,0.1151722818613052,1,-0.005948446691036224,1,-0.0005339091294445097,1,-4.933608579449356e-07,1
1772485626701365504,0.007743470836430788,1,-0.007424904033541679,1,0.07839047163724899,1,-0.00670742429792881,1,-0.0009613718139007688,1,-0.0001114322949433699,1
1772485626711512064,0.01285573467612267,1,-0.004640103783458471,1,0.006152642890810966,1,-0.00647357665002346,1,-0.001093495287932456,1,-5.882315235794522e-05,1
1772485626721559296,0.01394296437501907,1,0.003466712776571512,1,-0.01652068272233009,1,-0.005221825558692217,1,-0.001573334913700819,1,3.138449756079353e-05,1
1772485626731509504,0.01043208967894316,1,0.004552645143121481,1,0.008293363265693188,1,-0.004393636714667082,1,-0.001549733686260879,1,9.888838394545019e-05,1
1772485626741362432,0.004021002445369959,1,-0.005009285174310207,1,0.04143039509654045,1,-0.003783588297665119,1,-0.001074273604899645,1,0.0003591264539863914,1
1772485626751119872,-0.006741785444319248,1,-0.001543994294479489,1,0.02986537478864193,1,-0.002990731969475746,1,-0.0008486866136081517,1,0.0002632391115184873,1
1772485626760783360,-0.01284614577889442,1,0.0004948052228428423,1,-0.004738001152873039,1,-0.002497405046597123,1,-0.000750439940020442,1,6.743823178112507e-05,1
1772485626770352640,-0.01083565317094326,1,0.003071465529501438,1,-0.01972772181034088,1,-0.0009195037418976426,1,-0.000810291909147054,1,-3.173788718413562e-05,1
1772485626779828992,-0.002258732449263334,1,-0.001629181322641671,1,-0.01704591512680054,1,0.0007430977420881391,1,-0.0007002564379945397,1,7.655045919818804e-06,1
1772485626789211648,0.003539233701303601,1,-0.001243600971065462,1,-0.04300697147846222,1,0.002212043851613998,1,-0.0002865746209863573,1,-0.0002231075341114774,1
1772485626798656256,0.001051211962476373,1,0.007210906594991684,1,-0.05718278139829636,1,0.004327640868723392,1,0.0004227547324262559,1,-0.0003396418760530651,1
1772485626809382144,-0.000633549876511097,1,0.005679188296198845,1,-0.02681502886116505,1,0.005992443766444921,1,0.0007988510187715292,1,-0.0002458995149936527,1
1772485626820003072,-0.003587153274565935,1,0.001532563823275268,1,0.04073295742273331,1,0.006790333427488804,1,0.001014214940369129,1,-0.0001742260647006333,1
1772485626830522112,-0.01131917536258698,1,-0.003390904748812318,1,0.06938078999519348,1,0.006871250923722982,1,0.0008198474533855915,1,-0.0001552332105347887,1
1772485626840938752,-0.01407555397599936,1,-0.0128540089353919,1,0.08890349417924881,1,0.005867187865078449,1,0.0007625651196576655,1,-0.0001024733574013226,1
1772485626851254016,-0.01672279089689255,1,-0.008172002620995045,1,0.1183232590556145,1,0.004073102958500385,1,0.001086860778741539,1,0.0001568603474879637,1
1772485626861468160,-0.01385669782757759,1,-0.00368203385733068,1,0.1240577548742294,1,0.002204689430072904,1,0.001080972026102245,1,0.0001154653873527423,1
1772485626871584256,-0.003859688527882099,1,-0.00238468125462532,1,0.0949832871556282,1,0.000658806471619755,1,0.001194566721096635,1,0.0002064980508293957,1
1772485626881605376,0.00268957857042551,1,0.002978721167892218,1,0.07836781442165375,1,-0.001115810126066208,1,0.0009137656888924539,1,0.0002267873351229355,1
1772485626891534080,0.01143934018909931,1,-0.001807244261726737,1,0.0792091116309166,1,-0.002029106020927429,1,0.0005077649839222431,1,-2.240347748738714e-05,1
1772485626901365760,0.01490739081054926,1,-0.01335975807160139,1,0.08368894457817078,1,-0.002785312244668603,1,0.0003538966702762991,1,9.82581841526553e-05,1
1772485626911101184,0.01034745573997498,1,-0.01060767471790314,1,0.08386046439409256,1,-0.003477274905890226,1,8.445886487606913e-05,1,-5.036956281401217e-05,1
1772485626920742400,0.003121539717540145,1,-0.004432638641446829,1,0.06708367168903351,1,-0.004419606644660234,1,-0.0003320872492622584,1,-9.418721310794353e-05,1
1772485626930288896,0.002968180691823363,1,-0.004897989798337221,1,0.0389331616461277,1,-0.00459728529676795,1,-0.0006683801766484976,1,-0.0001191986375488341,1
1772485626939743232,0.001778683043085039,1,-0.003040929790586233,1,0.0378110371530056,1,-0.003952971193939447,1,-0.0006148653337731957,1,6.424674938898534e-05,1
1772485626949105664,0.003756563877686858,1,0.0004250122874509543,1,0.02998233400285244,1,-0.003494723932817578,1,-0.0007622349075973034,1,-6.665298133157194e-05,1
1772485626958834688,0.005040545016527176,1,-0.002480994910001755,1,0.01518111769109964,1,-0.003118134802207351,1,-0.0008988770423457026,1,-0.0002496169181540608,1
1772485626969530624,0.004977800883352757,1,0.004351975861936808,1,-0.002603908535093069,1,-0.002922821091488004,1,-0.001209407462738454,1,-9.345251601189375e-05,1
1772485626980121856,0.003038422903046012,1,0.001983831636607647,1,-0.01600252091884613,1,-0.001257154974155128,1,-0.001044861739501357,1,-3.745058347703889e-05,1
1772485626990610688,0.003450782503932714,1,-0.003707125084474683,1,-0.01525204535573721,1,-0.0004441376077011228,1,-0.000975439790636301,1,-0.000137243332574144,1
1772485627000999936,-0.0005685647483915091,1,-0.00696133729070425,1,-0.01136674173176289,1,0.001512825721874833,1,-0.0006341116386465728,1,0.0001279786229133606,1
1772485627011286272,-0.01073112804442644,1,-0.003855072660371661,1,0.0006109545938670635,1,0.00279510160908103,1,-7.756376726320013e-05,1,3.092707629548386e-05,1
1772485627021472512,-0.01898957416415215,1,-0.001119845546782017,1,-0.004065643530339003,1,0.004128449596464634,1,0.0003252643218729645,1,-0.0001864634541561827,1
1772485627031561216,-0.02192953787744045,1,0.0004671219212468714,1,-0.004217646550387144,1,0.005278474185615778,1,0.0006592342397198081,1,-0.0001987814030144364,1
1772485627041551360,-0.01726975850760937,1,-0.002663950901478529,1,0.04158718511462212,1,0.005764609202742577,1,0.0008011896861717105,1,-6.215386383701116e-05,1
1772485627051442944,-0.007654317189007998,1,-0.003704075235873461,1,0.09103913605213165,1,0.005220185965299606,1,0.001086985343135893,1,-0.0003593171131797135,1
1772485627061240320,-0.001470597228035331,1,-0.008910117670893669,1,0.1146541833877563,1,0.003823464037850499,1,0.00103767856489867,1,-0.0003068256773985922,1
1772485627070943232,0.006284750532358885,1,-0.01175577286630869,1,0.0823657289147377,1,0.002394161187112331,1,0.001022760872729123,1,-5.960834823781624e-05,1
1772485627080560384,0.01001447625458241,1,-0.005902874283492565,1,0.06313200294971466,1,0.001878550392575562,1,0.001275873044505715,1,0.0001417868479620665,1
1772485627090084352,0.007142744958400726,1,-0.001927415025420487,1,0.08431036025285721,1,0.001032595406286418,1,0.0009642433142289519,1,0.0002252104313811287,1
1772485627099514880,0.002714063972234726,1,-0.004253812599927187,1,0.1240396723151207,1,-0.0003368495090398937,1,0.0007948170532472432,1,0.0002205571945523843,1
1772485627108854272,-0.005200480576604605,1,-0.005788621492683887,1,0.1321166157722473,1,-0.002015868667513132,1,0.0004041455686092377,1,-5.538046025321819e-06,1
1772485627119012608,-0.006156389601528645,1,-0.009058668278157711,1,0.1150364279747009,1,-0.004042046144604683,1,-0.0001123945839935914,1,0.0001486203109379858,1
1772485627129675776,-0.005862059537321329,1,-0.01082444656640291,1,0.09013058990240097,1,-0.005686970427632332,1,-0.0004154129419475794,1,2.861227767425589e-05,1
1772485627140235776,0.0005281734629534185,1,-0.0107150012627244,1,0.06888102740049362,1,-0.006522973999381065,1,-0.0006403875886462629,1,2.760724964900874e-05,1
1772485627150693632,0.007282385602593422,1,-0.004049251321703196,1,0.01851936057209969,1,-0.006231730338186026,1,-0.0007293556700460613,1,0.0002220160677097738,1
1772485627161051904,0.009981710463762283,1,0.005471036769449711,1,-0.01337729394435883,1,-0.004896554164588451,1,-0.0009974276181310415,1,-8.303022696054541e-06,1
1772485627171308800,0.01580039970576763,1,0.005165962036699057,1,0.002649829955771565,1,-0.004068992100656033,1,-0.0007586412830278277,1,5.408147990237921e-05,1
1772485627181465600,0.01763810776174068,1,-0.004952078685164452,1,0.02449841983616352,1,-0.003444171976298094,1,-0.0007488747942261398,1,0.000169424936757423,1
1772485627191526144,0.001106216805055737,1,-0.004615668673068285,1,-0.005590763874351978,1,-0.002152180066332221,1,-0.0007535269833169878,1,7.7590681030415e-05,1
1772485627201487872,-0.006257881876081228,1,0.0002125460014212877,1,-0.02580694295465946,1,-0.001307031023316085,1,-0.0004106468986719847,1,7.978764915606007e-05,1
1772485627211356672,-0.008460414595901966,1,-0.0003779681865125895,1,-0.01749522611498833,1,-8.291812264360487e-05,1,-0.0002355399046791717,1,1.084466930478811e-06,1
1772485627221134592,-0.006231104489415884,1,-0.005288476124405861,1,-0.01843399181962013,1,0.00140137760899961,1,-0.000349782349076122,1,0.0001652517530601472,1
1772485627230817280,-0.008357468992471695,1,3.742153057828546e-05,1,-0.02398595213890076,1,0.003189372830092907,1,0.0002329843991901726,1,0.0003152661665808409,1
1772485627240406528,-0.007438245695084333,1,0.006388715002685785,1,-0.02382966317236423,1,0.004251079168170691,1,0.0006095574935898185,1,-8.961017010733485e-05,1
1772485627249903104,-0.001764036482200027,1,-0.003665093565359712,1,-0.003024504519999027,1,0.005506377201527357,1,0.0004690710047725588,1,4.240198904881254e-06,1
1772485627259306752,-0.003581737633794546,1,3.718714287970215e-05,1,0.04836370795965195,1,0.00579873425886035,1,0.0004581589018926024,1,0.0002858916122931987,1
1772485627268618752,-0.0009796140948310494,1,-0.004442841745913029,1,0.07562169432640076,1,0.005397242028266191,1,0.0007215425139293075,1,9.846154716797173e-05,1
1772485627279216384,-0.004390939138829708,1,-0.01378767471760511,1,0.08632743358612061,1,0.004043867345899343,1,0.000757906527724117,1,-2.516742824809626e-05,1
1772485627289862912,-0.008662882260978222,1,-0.004025409929454327,1,0.08101986348628998,1,0.003360979491844773,1,0.00061012216610834,1,0.0003439375723246485,1
1772485627300404992,-0.006384027190506458,1,-0.005487821064889431,1,0.07945134490728378,1,0.002255724743008614,1,0.0003432007215451449,1,0.0001874034642241895,1
1772485627310846976,-0.002565070288255811,1,-0.007851717993617058,1,0.08721128851175308,1,0.0012500393204391,1,0.000664686958771199,1,0.0001561468816362321,1
1772485627321186816,0.003863593796268106,1,-0.00778362387791276,1,0.1062063202261925,1,-9.758274245541543e-05,1,0.0006374545628204942,1,5.694261926691979e-05,1
1772485627331426816,0.009525257162749767,1,-0.005491151008754969,1,0.1018037870526314,1,-0.0008756247698329389,1,0.0002553171361796558,1,-0.0001264394231839105,1
1772485627341566464,0.007524669170379639,1,-0.0003808827314060181,1,0.09876281023025513,1,-0.001830453868024051,1,8.599498687544838e-05,1,3.473558172117919e-05,1
1772485627351606272,0.005586372222751379,1,-0.004314139485359192,1,0.1062243431806564,1,-0.003737065708264709,1,-0.00024393830972258,1,9.233965829480439e-05,1
1772485627361547776,0.0005656302673742175,1,-0.01029434893280268,1,0.0828266367316246,1,-0.004898768849670887,1,-0.0002156865666620433,1,8.98038997547701e-05,1
1772485627371393536,-0.005231646355241537,1,-0.005612980574369431,1,0.04909054934978485,1,-0.005268910434097052,1,-0.0002899550599977374,1,0.0003030351654160768,1
1772485627381151744,-0.005389535799622536,1,-0.005488162394613028,1,0.04660770669579506,1,-0.005149696487933397,1,-0.0005379782523959875,1,0.0001565792044857517,1
1772485627390814976,0.002994327805936337,1,-0.00692688999697566,1,0.04988690838217735,1,-0.004878139588981867,1,-0.000959092634730041,1,0.0003050275263376534,1
1772485627400384000,0.00880355853587389,1,-0.001168493647128344,1,0.01687918417155743,1,-0.004617187660187483,1,-0.0009117297013290226,1,0.0002118416596204042,1
1772485627409859328,0.01134110894054174,1,0.001163064735010266,1,-0.0009331558831036091,1,-0.003869231091812253,1,-0.0008331972057931125,1,-0.0001066219847416505,1
1772485627419241728,0.01133990380913019,1,0.001338284695520997,1,0.003705460578203201,1,-0.002766282763332129,1,-0.0009453904931433499,1,-0.0001932534942170605,1
1772485627428686080,0.005285478197038174,1,-0.00534298550337553,1,0.01494682300835848,1,-0.002789798192679882,1,-0.0005483691929839551,1,-0.0002181242743972689,1
1772485627439411456,-0.002271466422826052,1,-0.001426115166395903,1,-0.006986454129219055,1,-0.001259575947187841,1,-0.0004130714514758438,1,-0.000131897657411173,1
1772485627450031872,-0.005136355292052031,1,-0.004658862482756376,1,-0.03239978849887848,1,0.0007396187866106629,1,-0.0003315976937301457,1,-0.0001123086694860831,1
1772485627460551424,-0.01170034427195787,1,-0.001403403235599399,1,-0.06845543533563614,1,0.002559288404881954,1,-0.000174898246768862,1,2.375397343712393e-05,1
1772485627470970368,-0.01436262484639883,1,0.001640754053369164,1,-0.04020721092820168,1,0.00501906918361783,1,0.0007394837448373437,1,6.598219624720514e-05,1
1772485627481286144,-0.01041769608855247,1,-0.002363871317356825,1,0.004601103253662586,1,0.006094012409448624,1,0.001043440541252494,1,0.0003499416343402117,1
1772485627491501056,-0.006443748250603676,1,-0.002283389214426279,1,0.03190698102116585,1,0.006914785131812096,1,0.001032848376780748,1,6.717856740579009e-05,1
1772485627501617408,-0.004198129288852215,1,-0.001789978006854653,1,0.04655461758375168,1,0.006412993650883436,1,0.001283975201658905,1,0.000109812302980572,1
1772485627511633664,0.004141552839428186,1,-0.01090203505009413,1,0.08899318426847458,1,0.005128121934831142,1,0.0008878124644979835,1,0.0001721960579743609,1
1772485627521552896,0.01035369001328945,1,-0.01296245120465755,1,0.1037335246801376,1,0.004254689905792475,1,0.0006929520168341696,1,8.09247067081742e-05,1
1772485627531379200,0.002013637684285641,1,0.0007875165902078152,1,0.06709301471710205,1,0.003184220986440778,1,0.0007133812760002911,1,0.0001119428561651148,1
1772485627541117184,-0.002303799614310265,1,0.005376224871724844,1,0.04812389239668846,1,0.002825326751917601,1,0.0006949319504201412,1,7.732058293186128e-05,1
1772485627550759680,-0.004816338885575533,1,-0.003586244536563754,1,0.1120821386575699,1,0.00213824724778533,1,0.0005233967676758766,1,-0.0003437082341406494,1
1772485627560308736,-0.0008782062213867903,1,-0.01102419011294842,1,0.1338069140911102,1,0.0004240471462253481,1,5.666419747285545e-05,1,-0.0003797137178480625,1
1772485627569765376,-0.004808702506124973,1,-0.007442670874297619,1,0.1084534078836441,1,-0.0008292383281514049,1,-0.0001327734062215313,1,-0.0002133379457518458,1
1772485627579128320,-0.003460034960880876,1,-0.003565285820513964,1,0.07984605431556702,1,-0.002441508462652564,1,-0.0004332736716605723,1,-0.0001792145485524088,1
1772485627588856576,-0.0005754067096859217,1,-0.003358916379511356,1,0.09819580614566803,1,-0.003794556017965078,1,-0.0001461782085243613,1,-1.328215876128525e-05,1
1772485627599550464,0.003847979474812746,1,-0.005977836903184652,1,0.1150281876325607,1,-0.005434170830994844,1,-0.0007092801388353109,1,-6.06369212619029e-05,1
1772485627610139904,0.005817938596010208,1,-0.009782346896827221,1,0.07068458944559097,1,-0.00580745842307806,1,-0.00112259469460696,1,7.56926674512215e-05,1
1772485627620628736,0.006143897771835327,1,-0.004398440010845661,1,-0.002737899776548147,1,-0.0055423928424716,1,-0.000897872494533658,1,0.00021256877516862,1
1772485627631015680,0.005825374275445938,1,0.00497199222445488,1,-0.02360234782099724,1,-0.004488974343985319,1,-0.000744123593904078,1,0.0001368119701510295,1
1772485627641299712,0.007435335777699947,1,-0.00473244022578001,1,0.02500132843852043,1,-0.003236495656892657,1,-0.0005074871587567031,1,0.0002936575328931212,1
1772485627651483904,0.002681614365428686,1,-0.01006472948938608,1,0.04606232792139053,1,-0.002836407627910376,1,-0.0002292440040037036,1,0.0002085786400130019,1
1772485627661570048,-0.007349768187850714,1,-0.002347417641431093,1,0.008257435634732246,1,-0.002183997770771384,1,-0.0004261199501343071,1,0.0004478943010326475,1
1772485627671557376,-0.01155596785247326,1,0.0004424679209478199,1,-0.02290505543351173,1,-0.001255372888408601,1,-0.0002691565605346113,1,0.0002526805619709194,1
1772485627681449216,-0.008420499041676521,1,-0.004780815914273262,1,-0.01541540678590536,1,0.0002137741248589009,1,-0.0001827699597924948,1,0.0001517533528385684,1
1772485627691244544,0.0003448213683441281,1,-0.01177501957863569,1,-0.0109286829829216,1,0.001687833108007908,1,3.031018422916532e-05,1,6.460418808273971e-05,1
1772485627700958976,0.002199481939896941,1,-0.006592798046767712,1,-0.03748836740851402,1,0.003438771469518542,1,0.0001444430381525308,1,0.0001826469670049846,1
1772485627710578432,-0.0001268996857106686,1,0.003157178405672312,1,-0.0186744537204504,1,0.004902392625808716,1,0.000545975286513567,1,0.00019095279276371,1
1772485627720103936,0.002775522414594889,1,0.0002942719729617238,1,0.01352493930608034,1,0.005647288169711828,1,0.0007482984801754355,1,0.0002905911242123693,1
1772485627729536768,-0.001963755814358592,1,-0.004130814224481583,1,0.05250616744160652,1,0.006150523200631142,1,0.0005288875545375049,1,0.0002292017015861347,1
1772485627738878720,-0.006297545973211527,1,-0.002751905936747789,1,0.07386916130781174,1,0.005346506834030151,1,0.0006378453690558672,1,0.0001637606619624421,1
1772485627749036032,-0.005598471034318209,1,-0.009298291988670826,1,0.102795846760273,1,0.004074057098478079,1,0.000589021248742938,1,0.0001304830220760778,1
1772485627759698432,-0.00506200036033988,1,-0.009305398911237717,1,0.09822343289852142,1,0.002779869129881263,1,0.0006348663591779768,1,0.0002119204145856202,1
1772485627770256896,-0.006203618366271257,1,0.0008424357511103153,1,0.077210433781147,1,0.001801681821234524,1,0.0007454984588548541,1,0.0002876558573916554,1
1772485627780712704,-0.0001818383461795747,1,-0.002296091057360172,1,0.06641539186239243,1,0.0008559781708754599,1,0.0004925269167870283,1,1.240920755662955e-05,1
1772485627791068416,0.004503168165683746,1,-0.008810059167444706,1,0.1009642779827118,1,-9.325233986601233e-05,1,0.0006209934363141656,1,1.39768799272133e-05,1
1772485627801328896,0.004532465245574713,1,-0.008147245272994041,1,0.1244703382253647,1,-0.001582232187502086,1,0.000221974536543712,1,0.0002090358029818162,1
1772485627811488512,-0.0004429196123965085,1,-0.0008056944934651256,1,0.09984956681728363,1,-0.002580350730568171,1,-0.000149899919051677,1,-3.117260348517448e-06,1
1772485627821549312,-0.004320000298321247,1,-0.001161593245342374,1,0.0918661430478096,1,-0.003740251064300537,1,-0.0002315408200956881,1,-8.976185927167535e-05,1
1772485627831514112,-0.002438323572278023,1,-0.004825524054467678,1,0.106274202466011,1,-0.005392329767346382,1,-0.0006408009212464094,1,-0.0001676033716648817,1
1772485627841379840,0.0005683833733201027,1,-0.008175361901521683,1,0.09045962989330292,1,-0.005913341883569956,1,-0.000857875042129308,1,-0.0003648796118795872,1
1772485627851150080,0.005011844448745251,1,-0.00876704603433609,1,0.01526396628469229,1,-0.005776567850261927,1,-0.001259522861801088,1,-0.00052021280862391,1
1772485627860825856,0.006059810984879732,1,0.006701949052512646,1,-0.05456738173961639,1,-0.004239759873598814,1,-0.0009268588619306684,1,-0.0002316090103704482,1
1772485627870407424,0.01271146722137928,1,0.002847071038559079,1,-0.02307557128369808,1,-0.002775210188701749,1,-0.0002722551871556789,1,-0.0001147208677139133,1
1772485627879895040,0.01413912139832973,1,-0.01016050390899181,1,0.04625055566430092,1,-0.001755311153829098,1,-0.0003275050548836589,1,-7.477067993022501e-05,1
1772485627889289728,0.006210917606949806,1,-0.005069111008197069,1,0.04494966939091682,1,-0.001555849565193057,1,-0.0002250934339826927,1,0.0001353945699520409,1
1772485627898592768,-0.008526749908924103,1,0.004323560278862715,1,-0.05624474957585335,1,-0.0002984148450195789,1,-0.0003438738058321178,1,-5.471108670462854e-05,1
1772485627909198336,-0.01236475445330143,1,-0.0007074132445268333,1,-0.07157021015882492,1,0.001599488197825849,1,-0.0002887083101086318,1,-0.0001105010305764154,1
1772485627919854848,-0.01125468965619802,1,-0.00331147899851203,1,-0.03752506524324417,1,0.003937677945941687,1,-7.519272912759334e-06,1,-0.0002201637398684397,1
1772485627930406656,-0.00591278588399291,1,-0.004599296487867832,1,0.004356405697762966,1,0.005722964648157358,1,0.0002564553578849882,1,-0.0001188139285659418,1
1772485627940855296,-0.00366072915494442,1,0.002077052602544427,1,0.01101882848888636,1,0.00639087799936533,1,0.0003873650566674769,1,3.568791362340562e-05,1
1772485627951203840,-0.002778858179226518,1,0.002383589744567871,1,0.03532017767429352,1,0.006793185137212276,1,0.0004187986778561026,1,0.0001316670241067186,1
1772485627961454080,0.001529717352241278,1,-0.005087698809802532,1,0.09162995219230652,1,0.005592146422713995,1,0.0003150634584017098,1,4.724668542621657e-05,1
1772485627971603968,0.003973193466663361,1,-0.01396706141531467,1,0.1082772314548492,1,0.004388065077364445,1,0.0007563061080873013,1,6.400184793164954e-05,1
1772485627981652992,-0.002272542333230376,1,-0.005290871951729059,1,0.08563399314880371,1,0.003390389727428555,1,0.0005782438674941659,1,5.513287032954395e-05,1
1772485627991604480,-0.008236783556640148,1,0.0003297468647360802,1,0.04683630540966988,1,0.002218289067968726,1,0.0006638133199885488,1,0.0001472976728109643,1
1772485628001458944,-0.007203178945928812,1,-0.004754544235765934,1,0.08787866681814194,1,0.001453099655918777,1,0.0007570397574454546,1,-7.5207841291558e-05,1
1772485628011215616,-0.00253254477865994,1,-0.008167619816958904,1,0.12799471616745,1,0.0002807553391903639,1,0.0004736934788525105,1,3.325385478092358e-05,1
1772485628020878848,-0.0004568822623696178,1,-0.005156638100743294,1,0.1308931708335876,1,-0.001478340593166649,1,-0.0001946546108229086,1,-0.000181980969500728,1
1772485628030447616,0.0005024436395615339,1,-0.001304976874962449,1,0.09787454456090927,1,-0.003518334357067943,1,-0.0009266058914363384,1,4.334118420956656e-05,1
1772485628039922944,-2.725605736486614e-05,1,-0.004104846622794867,1,0.08518176525831223,1,-0.004904432222247124,1,-0.0009181540226563811,1,-0.0003113926213700324,1
1772485628049304064,-0.0003414911625441164,1,-0.003054378787055612,1,0.09801877290010452,1,-0.005858176853507757,1,-0.001081231748685241,1,-0.0002268125535920262,1
1772485628058747648,0.002401759382337332,1,-0.01230419706553221,1,0.08364766091108322,1,-0.006331171840429306,1,-0.001167233334854245,1,-0.0001357720175292343,1
