Time,inertial-6286.188861:estLinearAccelX,inertial-6286.188861:estLinearAccelX:valid,inertial-6286.188861:estLinearAccelY,inertial-6286.188861:estLinearAccelY:valid,inertial-6286.188861:estLinearAccelZ,inertial-6286.188861:estLinearAccelZ:valid,inertial-6286.188861:estAngularRateX,inertial-6286.188861:estAngularRateX:valid,inertial-6286.188861:estAngularRateY,inertial-6286.188861:estAngularRateY:valid,inertial-6286.188861:estAngularRateZ,inertial-6286.188861:estAngularRateZ:valid
1772056470103177728,0.01764605194330215,1,0.1806611567735672,1,0.04534297809004784,1,0.01905220933258533,1,-0.00978650338947773,1,-0.1181216314435005,1
1772056470112485632,0.06933663040399551,1,0.1821636855602264,1,0.04821766540408134,1,0.006227560341358185,1,-0.003248213790357113,1,-0.1056798025965691,1
1772056470123087616,0.1099048629403114,1,0.2141718119382858,1,0.04293954372406006,1,-0.003351712599396706,1,0.001324997050687671,1,-0.07340385019779205,1
1772056470133739776,0.06491317600011826,1,0.1251107901334763,1,0.04955044016242027,1,-0.01061627175658941,1,0.004709993954747915,1,-0.04050304740667343,1
1772056470144288512,0.03828889131546021,1,0.08398698270320892,1,0.046180609613657,1,-0.025678725913167,1,0.01224086247384548,1,-0.02238229848444462,1
1772056470154735104,0.03382014110684395,1,0.08200766146183014,1,0.03947608917951584,1,-0.03348732367157936,1,0.01627045124769211,1,-0.01240363903343678,1
1772056470165082112,0.05250772088766098,1,0.1221852824091911,1,0.0292313564568758,1,-0.02848943322896957,1,0.01399739645421505,1,-0.006947110872715712,1
1772056470175328512,0.03997917845845222,1,0.09665475785732269,1,0.03259601444005966,1,-0.01606013812124729,1,0.007777254097163677,1,-0.003836770774796605,1
1772056470185474560,0.03230316564440727,1,0.07784430682659149,1,0.03823412582278252,1,-0.009284962899982929,1,0.004370125941932201,1,-0.001927135861478746,1
1772056470195520768,0.0009100437164306641,1,-0.04208345711231232,1,0.04184975475072861,1,-0.0050013093277812,1,0.002183281583711505,1,0.001033005071803927,1
1772056470205469696,-0.07829415053129196,1,-0.145844429731369,1,0.04271195456385612,1,-0.00324611971154809,1,0.001800651778467,1,0.05965583771467209,1
1772056470215320320,0.0130169540643692,1,0.0336531475186348,1,0.04128767922520638,1,-0.002445073099806905,1,0.00154061964713037,1,0.09526970237493515,1
1772056470225077248,0.0614171102643013,1,0.1367123126983643,1,0.04364703595638275,1,-0.001577678718604147,1,0.001278661540709436,1,0.08481166511774063,1
1772056470234737408,0.06405559927225113,1,0.2323786020278931,1,0.03630375117063522,1,-0.0002943882718682289,1,0.000712611828930676,1,0.08188039064407349,1
1772056470244303616,0.1095282584428787,1,0.1945201456546783,1,0.03906607627868652,1,0.0004816911241505295,1,0.0006676421035081148,1,0.07588734477758408,1
1772056470253775872,0.073808453977108,1,0.1389714777469635,1,0.04032231122255325,1,0.0006312064942903817,1,0.0005723612848669291,1,0.06109659001231194,1
1772056470263155200,0.06484729796648026,1,0.1253110021352768,1,0.04204787686467171,1,0.0009512624237686396,1,0.000587708200328052,1,0.0648924708366394,1
1772056470272597760,-0.02816068008542061,1,-0.07373316586017609,1,0.0407320074737072,1,0.0009023664169944823,1,0.0003509381785988808,1,0.07962057739496231,1
1772056470283326720,-0.06583499163389206,1,-0.2040126770734787,1,0.04438631236553192,1,9.924349433276802e-05,1,0.0007216243539005518,1,0.115697406232357,1
1772056470293951232,-0.02871681749820709,1,-0.14680415391922,1,0.04484839364886284,1,-0.0001744326436892152,1,0.0006827929173596203,1,0.1659359782934189,1
1772056470304472064,0.05561504140496254,1,0.02962613292038441,1,0.04131043702363968,1,0.0004777442954946309,1,0.0005253538838587701,1,0.1981123834848404,1
1772056470314890240,0.1511765569448471,1,0.2519333064556122,1,0.03423252701759338,1,0.001595029956661165,1,0.0005753985606133938,1,0.2052682638168335,1
1772056470325206272,0.1478555798530579,1,0.4168343842029572,1,0.03823035210371017,1,0.00405045272782445,1,-0.0004197013331577182,1,0.1930231302976608,1
1772056470335425792,0.06650716066360474,1,0.2540395557880402,1,0.04509527236223221,1,0.007612804416567087,1,-0.002573621459305286,1,0.1704402565956116,1
1772056470345546752,0.01859102211892605,1,0.1206681951880455,1,0.04980695992708206,1,0.0009983322815969586,1,0.0004143666010349989,1,0.1498549580574036,1
1772056470355566848,0.03503962233662605,1,0.1171508133411407,1,0.04120584949851036,1,-0.003007769118994474,1,0.002533155726268888,1,0.1351037323474884,1
1772056470365489920,0.04909049347043037,1,0.1104984357953072,1,0.03459727764129639,1,-0.00170288875233382,1,0.001576386392116547,1,0.1331486850976944,1
1772056470375315968,0.06623150408267975,1,0.1252875030040741,1,0.03940625861287117,1,-0.0007482822402380407,1,0.000554483849555254,1,0.1376267522573471,1
1772056470385044992,0.06743039190769196,1,0.1263177394866943,1,0.03789716213941574,1,0.0001507989654783159,1,0.0007220155675895512,1,0.1527889668941498,1
1772056470394679296,0.03073415532708168,1,0.07345610111951828,1,0.03844892606139183,1,0.0002123777521774173,1,0.001108935219235718,1,0.1619189232587814,1
1772056470404220416,-0.01613463088870049,1,0.004596684593707323,1,0.04086398333311081,1,-0.0002255119470646605,1,0.000714953348506242,1,0.1525113433599472,1
1772056470413666560,-0.03994930163025856,1,-0.02948332764208317,1,0.04281999915838242,1,-0.0003314614586997777,1,0.0006317132501862943,1,0.1290683448314667,1
1772056470423021312,-0.05723070353269577,1,-0.06392069160938263,1,0.03979006037116051,1,0.0002007500734180212,1,0.0005525052547454834,1,0.09678801149129868,1
1772056470432744448,-0.05282657220959663,1,-0.05739092454314232,1,0.03906416893005371,1,0.0008918403182178736,1,1.288290877710097e-05,1,0.06042582914233208,1
1772056470443444736,-0.01663820073008537,1,-0.006674281321465969,1,0.04004636406898499,1,0.001163691049441695,1,-0.0003320305841043591,1,0.0328201912343502,1
1772056470454041088,0.01243333891034126,1,0.04624990373849869,1,0.03553839027881622,1,0.003099920460954309,1,-0.001196787925437093,1,0.01750743575394154,1
1772056470464533504,0.01127574406564236,1,0.03863723948597908,1,0.04302414506673813,1,0.00499016884714365,1,-0.001809577341191471,1,0.009056947194039822,1
1772056470474925056,0.009375936351716518,1,0.03080237843096256,1,0.04593028873205185,1,-0.001032158965244889,1,0.0008851283928379416,1,0.004722917452454567,1
1772056470485216000,0.02513902075588703,1,0.05956688895821571,1,0.0460057221353054,1,-0.002706659957766533,1,0.001127927331253886,1,0.002429959364235401,1
1772056470495406080,0.02497176453471184,1,0.0631975382566452,1,0.03855485841631889,1,-0.001502464758232236,1,0.000679258955642581,1,0.0009500007727183402,1
1772056470505497344,0.02581366710364819,1,0.06353557854890823,1,0.03672674298286438,1,-0.0004317114653531462,1,0.000590164796449244,1,0.0002376662450842559,1
1772056470515490048,0.02664276212453842,1,0.06254775822162628,1,0.03903472051024437,1,0.0003170500858686864,1,0.0002754358574748039,1,-1.37618844746612e-05,1
1772056470525384704,0.02576058357954025,1,0.05745822563767433,1,0.04641110077500343,1,0.0004018700856249779,1,-0.0001129473894252442,1,3.77731557819061e-05,1
1772056470535182336,0.02548890002071857,1,0.0593297965824604,1,0.04675472155213356,1,-0.0007142870454117656,1,0.0001100566660170443,1,2.762347867246717e-05,1
1772056470544889600,0.02476988919079304,1,0.06211857870221138,1,0.04311951994895935,1,-0.0007133118924684823,1,4.184747012914158e-05,1,-5.18365231982898e-05,1
1772056470554502400,0.02492119558155537,1,0.0615837499499321,1,0.03922944888472557,1,-0.0005550245405174792,1,6.912987009854987e-05,1,-0.0001998169755097479,1
1772056470564020736,0.0261391457170248,1,0.06462576240301132,1,0.03772328421473503,1,0.0007514638709835708,1,-2.199412847403437e-07,1,-0.0004429517430253327,1
1772056470573446656,0.02594577521085739,1,0.06934588402509689,1,0.03736573830246925,1,0.001976450905203819,1,-0.000520536326803267,1,-0.0005785004468634725,1
1772056470582781184,0.04746893793344498,1,0.1132017597556114,1,0.02651434950530529,1,0.01818999275565147,1,-0.008790402673184872,1,-0.0008112089126370847,1
1772056470592939520,0.05213463306427002,1,0.1194094344973564,1,0.02395869232714176,1,0.04054504632949829,1,-0.02004734799265862,1,-0.0006870323559269309,1
1772056470603605760,0.03837728127837181,1,0.08983517438173294,1,0.02667356468737125,1,0.05360249057412148,1,-0.02610652148723602,1,-0.0004185386933386326,1
1772056470614168320,0.03061787039041519,1,0.07187740504741669,1,0.03397798538208008,1,0.06060865521430969,1,-0.03003907762467861,1,-0.0004114022012799978,1
1772056470624628992,0.01563774980604649,1,0.04291412234306335,1,0.0414418950676918,1,0.05836146697402,1,-0.02882930636405945,1,-3.726055001607165e-05,1
1772056470634987776,0.00482012378051877,1,0.01656783744692802,1,0.05428814142942429,1,0.04559795558452606,1,-0.02213281206786633,1,0.0003101870534010231,1
1772056470645245696,0.02145397663116455,1,0.03633643686771393,1,0.05660561099648476,1,0.02224878221750259,1,-0.01050570420920849,1,0.005065801553428173,1
1772056470655403776,0.003817946882918477,1,0.02135602384805679,1,0.0512445867061615,1,0.004195239394903183,1,-0.001957793720066547,1,0.01292694453150034,1
1772056470665463552,-0.003107032040134072,1,0.01989991962909698,1,0.04602570459246635,1,-0.007972686551511288,1,0.003719688626006246,1,0.008884517475962639,1
1772056470675423488,0.01546125952154398,1,0.0548178106546402,1,0.03561772406101227,1,-0.01046108826994896,1,0.004914053715765476,1,0.004560618661344051,1
1772056470685287424,0.02817033603787422,1,0.07886054366827011,1,0.0316607840359211,1,-0.004220773000270128,1,0.002240538829937577,1,0.002165399258956313,1
1772056470695063808,0.03241704031825066,1,0.08084041625261307,1,0.0283787939697504,1,0.005745499394834042,1,-0.002592766424641013,1,0.001091489801183343,1
1772056470704744704,0.03437776491045952,1,0.08225454390048981,1,0.03267239034175873,1,0.01499888021498919,1,-0.006966195534914732,1,0.0001242636935785413,1
1772056470714331392,0.005894212983548641,1,0.01879849284887314,1,0.04750704020261765,1,0.0220885593444109,1,-0.01014494430273771,1,-6.223595119081438e-05,1
1772056470723824640,0.01424151938408613,1,0.03740397840738297,1,0.04429396614432335,1,0.01320579554885626,1,-0.005937514360994101,1,-0.0002356576005695388,1
1772056470733223680,0.01707991026341915,1,0.0473557822406292,1,0.04696052148938179,1,0.00775197334587574,1,-0.003621609881520271,1,-0.000356514792656526,1
1772056470742531840,0.01810158975422382,1,0.04943064972758293,1,0.04412169381976128,1,0.004501781892031431,1,-0.002010418567806482,1,-0.0005367904086597264,1
1772056470753132544,0.01711216196417809,1,0.05271771922707558,1,0.04077732935547829,1,0.003111786209046841,1,-0.001026082783937454,1,-0.0006334781646728516,1
1772056470763783168,0.0185212567448616,1,0.05367888137698174,1,0.04089832305908203,1,0.002414880786091089,1,-0.0009942627511918545,1,-0.0006885224720463157,1
1772056470774329344,0.01893671602010727,1,0.05582907423377037,1,0.04180826246738434,1,0.002312262309715152,1,-0.0007018873002380133,1,-0.000552008452359587,1
1772056470784774400,0.01863754540681839,1,0.05081596598029137,1,0.05059957504272461,1,0.0017330915434286,1,-0.0007209049654193223,1,-0.0003897442657034844,1
1772056470795117312,0.01924572885036469,1,0.05720698460936546,1,0.04401268437504768,1,0.0001603327109478414,1,-0.0003007480117958039,1,-0.0005053251516073942,1
1772056470805359872,0.02521801553666592,1,0.06117888167500496,1,0.03934498131275177,1,0.0002273699501529336,1,-0.0001806371728889644,1,-0.000291076663415879,1
1772056470815502080,0.1046250835061073,1,0.1705898344516754,1,0.03310666978359222,1,0.001009576953947544,1,0.0001566461578477174,1,0.01028520334511995,1
1772056470825544448,0.03204534947872162,1,0.06181003153324127,1,0.04612172022461891,1,0.00198857462964952,1,4.01018769480288e-05,1,0.03397773578763008,1
1772056470835488256,-0.0067058433778584,1,0.01402201224118471,1,0.05051166191697121,1,0.000632187002338469,1,-6.880944420117885e-05,1,0.02356552146375179,1
1772056470845335040,0.02655339986085892,1,0.06606771051883698,1,0.04093964025378227,1,0.000319596059853211,1,-0.0001504469546489418,1,0.01697167009115219,1
1772056470855086848,0.008998764678835869,1,0.04605753347277641,1,0.04013407975435257,1,0.0007736738189123571,1,-0.0002712093992158771,1,0.02078548260033131,1
1772056470864742400,0.001302541117183864,1,0.03229665383696556,1,0.04321364313364029,1,0.0004148953594267368,1,-0.0003808512701652944,1,0.01228504441678524,1
1772056470874311680,0.01134766638278961,1,0.03927004337310791,1,0.04608339816331863,1,-9.333411435363814e-05,1,-0.0003655895707197487,1,0.006581995636224747,1
1772056470883788288,0.01847650855779648,1,0.0459134615957737,1,0.04447847232222557,1,-0.0005219222512096167,1,-1.620583861949854e-05,1,0.003520479192957282,1
1772056470893172736,0.02023160085082054,1,0.05173132568597794,1,0.03823006525635719,1,-0.0001675473904469982,1,1.153613629867323e-05,1,0.001646147458814085,1
1772056470902618880,0.02288335189223289,1,0.05320121720433235,1,0.03671691939234734,1,-0.0001414462167304009,1,-0.000154493740410544,1,0.0006326808943413198,1
1772056470913347840,0.02327419258654118,1,0.05457647517323494,1,0.03734485059976578,1,0.000427080289227888,1,-0.0001545527338748798,1,0.0002111996291205287,1
1772056470923972096,0.02131588198244572,1,0.05474718287587166,1,0.03936069086194038,1,0.0005839173682034016,1,-0.0002928624744527042,1,-0.0001571319589857012,1
1772056470934493952,0.021030368283391,1,0.05569374561309814,1,0.03751728311181068,1,0.0008811551961116493,1,-0.000464084412669763,1,-0.0003409697965253145,1
1772056470944915456,0.01913581974804401,1,0.05649575218558311,1,0.04113082960247993,1,0.0007417509332299232,1,-0.0002447929582558572,1,-0.0004721037985291332,1
1772056470955234816,0.02034699358046055,1,0.05601401627063751,1,0.04663687571883202,1,0.0001665235031396151,1,8.441722457064316e-05,1,-0.0004009792755823582,1
1772056470965452800,0.02173376083374023,1,0.05578196048736572,1,0.04077218845486641,1,-0.0003566139203030616,1,4.727624036604539e-05,1,-0.0003278893418610096,1
1772056470975571968,0.02306180074810982,1,0.05708645656704903,1,0.03863515704870224,1,-0.0003630839637480676,1,0.0004369898815639317,1,-0.0003417902044020593,1
1772056470985592064,0.02302455902099609,1,0.06052999198436737,1,0.03665657341480255,1,-0.0009034355171024799,1,0.0001662564318394288,1,-0.000346808839822188,1
1772056470995514624,0.02327277138829231,1,0.05937246605753899,1,0.04060661047697067,1,-0.0009459356078878045,1,5.54401776753366e-05,1,-0.0004444913647603244,1
1772056471005341184,0.0218982957303524,1,0.05950260907411575,1,0.03964323922991753,1,-0.0006237506167963147,1,0.0001892353757284582,1,-0.00026101412368007,1
1772056471015072256,0.02257610857486725,1,0.05731166526675224,1,0.0375494472682476,1,-0.0003389331977814436,1,-1.01060595625313e-05,1,-0.0005581863806582987,1
1772056471024710144,0.02142757549881935,1,0.05738553404808044,1,0.03735808283090591,1,-0.0004051319847349077,1,-4.573502519633621e-05,1,-0.0006222761585377157,1
1772056471034261504,0.01924457959830761,1,0.05762559175491333,1,0.03927585482597351,1,-0.0002088633045786992,1,-0.0001382763730362058,1,-0.0007259806152433157,1
1772056471043718400,0.02054974995553493,1,0.05786493048071861,1,0.04059570655226707,1,-0.0002720135671552271,1,-0.0001736308622639626,1,-0.0007508738781325519,1
1772056471053083392,0.02101717889308929,1,0.05669352412223816,1,0.03840098157525063,1,-0.00038246059557423,1,-0.0001226340827997774,1,-0.0004595482314471155,1
1772056471062812416,0.02032378129661083,1,0.05242766812443733,1,0.04040027037262917,1,-0.001273574773222208,1,0.0002820495283231139,1,-0.0007318663410842419,1
1772056471073509888,0.0192696824669838,1,0.04157885909080505,1,0.04201306030154228,1,-0.004284363705664873,1,0.001643109484575689,1,-0.0002442178374622017,1
1772056471084104192,0.02413570694625378,1,0.0521204024553299,1,0.04038383811712265,1,-0.007735318504273891,1,0.00344735337421298,1,-0.0003032673848792911,1
1772056471094595072,0.02713841944932938,1,0.06207099929451942,1,0.03355801850557327,1,-0.007233791053295135,1,0.003102438990026712,1,-0.000155351692228578,1
1772056471104982784,0.02782679907977581,1,0.07177218794822693,1,0.03415532782673836,1,-0.003298104973509908,1,0.001627167919650674,1,-0.0001580155803821981,1
1772056471115273728,0.02749376744031906,1,0.07262542843818665,1,0.036233801394701,1,0.00190959288738668,1,-0.0009616425959393382,1,-0.000232285397942178,1
1772056471125467648,0.02277057990431786,1,0.06083231419324875,1,0.0384063832461834,1,0.006286935415118933,1,-0.003044563112780452,1,-0.0002685919171199203,1
1772056471135562240,0.01659324206411839,1,0.0476590059697628,1,0.0430968813598156,1,0.004662945400923491,1,-0.002243512310087681,1,-0.0003982075722888112,1
1772056471145558016,0.01449504960328341,1,0.04313612729310989,1,0.0438317134976387,1,0.0007422039634548128,1,-0.0002836107742041349,1,-0.000551244243979454,1
1772056471155456000,0.01481520477682352,1,0.04223746433854103,1,0.04417042806744576,1,-0.005767296068370342,1,0.002584280911833048,1,-0.0005975715466775,1
1772056471165257728,0.02068856358528137,1,0.05251216888427734,1,0.0406174324452877,1,-0.01092735026031733,1,0.00525581743568182,1,-0.0005402733804658055,1
1772056471174964224,0.02083984948694706,1,0.05312710255384445,1,0.04113077372312546,1,-0.0129607655107975,1,0.006447562016546726,1,-0.0006132978014647961,1
1772056471184578816,0.02652306295931339,1,0.06587282568216324,1,0.0350809320807457,1,-0.01272357627749443,1,0.006065885536372662,1,-0.0005012274486944079,1
1772056471194099200,0.02529212459921837,1,0.06535099446773529,1,0.03805521503090858,1,-0.009195622988045216,1,0.004173727240413427,1,-0.0005627907812595367,1
1772056471203526400,0.02099691331386566,1,0.06205630302429199,1,0.03947639465332031,1,-0.007077871356159449,1,0.003451515920460224,1,-0.0004141831304877996,1
1772056471212861696,0.02177325636148453,1,0.06507609039545059,1,0.03782515600323677,1,-0.005258121062070131,1,0.002584168687462807,1,-0.0003827778273262084,1
1772056471223019520,0.02602940984070301,1,0.06459334492683411,1,0.03667710721492767,1,-0.001900872564874589,1,0.0005223935004323721,1,-0.0004418889584485441,1
1772056471233686016,0.02688300982117653,1,0.06193038076162338,1,0.03974413499236107,1,-0.0003437318373471498,1,0.0003099489258602262,1,-0.0005034372443333268,1
1772056471244248320,0.03029270097613335,1,0.06731400638818741,1,0.03673543035984039,1,0.00167577201500535,1,-0.001027750666253269,1,-0.0005333613371476531,1
1772056471254708224,0.03186427056789398,1,0.07115264981985092,1,0.03578861430287361,1,0.005742259323596954,1,-0.003069365164265037,1,-0.000533911632373929,1
1772056471265065472,0.02841595560312271,1,0.06540427356958389,1,0.03574473038315773,1,0.009935055859386921,1,-0.004838400054723024,1,-0.000282048131339252,1
1772056471275322624,0.02099810168147087,1,0.05251291766762733,1,0.03890872746706009,1,0.01050018053501844,1,-0.005185683723539114,1,-0.0006836130633018911,1
1772056471285485056,0.01692761108279228,1,0.04691486805677414,1,0.04064043238759041,1,0.007306605111807585,1,-0.003615383757278323,1,-0.0003223166859243065,1
1772056471295549440,0.01600718311965466,1,0.04089538380503654,1,0.0428352952003479,1,0.003112186212092638,1,-0.001594102825038135,1,-0.0002397833159193397,1
1772056471305515008,0.01479054428637028,1,0.04024621099233627,1,0.04708312451839447,1,-0.002760725328698754,1,0.001390604535117745,1,-0.0003412312362343073,1
1772056471315383808,0.01759668253362179,1,0.03857167810201645,1,0.0435066781938076,1,-0.009279916062951088,1,0.004737447947263718,1,-0.0005524600856006145,1
1772056471325155840,0.02165469154715538,1,0.04958171397447586,1,0.04129244387149811,1,-0.01377410814166069,1,0.007030281703919172,1,-0.000602418789640069,1
1772056471334832640,0.01727940514683723,1,0.04222884029150009,1,0.04194182157516479,1,-0.01623108796775341,1,0.008319293148815632,1,-0.0007843478815630078,1
1772056471344414720,0.02720644325017929,1,0.06220346689224243,1,0.03492836281657219,1,-0.0179816409945488,1,0.008767199702560902,1,-0.0006886183400638402,1
1772056471353905152,0.03038190491497517,1,0.07060016691684723,1,0.03693914413452148,1,-0.0140661932528019,1,0.006895822007209063,1,-0.00080331158824265,1
1772056471363301632,0.02858409099280834,1,0.06935675442218781,1,0.03872345760464668,1,-0.01005024183541536,1,0.004713243339210749,1,-0.0006986706284806132,1
1772056471372606720,0.03088446147739887,1,0.07114924490451813,1,0.03556700795888901,1,-0.005317415576428175,1,0.002278997795656323,1,-0.0005403520772233605,1
1772056471383205888,0.02844187803566456,1,0.06630921363830566,1,0.03568792715668678,1,-0.00219575734809041,1,0.000841919332742691,1,-0.0004585491260513663,1
1772056471393854976,0.02685481682419777,1,0.06002208590507507,1,0.04013056308031082,1,0.0003648414276540279,1,-0.0003740136744454503,1,-0.0003009427746292204,1
1772056471404400384,0.02418902143836021,1,0.05636460706591606,1,0.03897805139422417,1,0.001228794455528259,1,-0.0009010644862428308,1,-0.0003631491854321212,1
1772056471414845696,0.02236966788768768,1,0.05302854627370834,1,0.04277996346354485,1,0.0004703712183982134,1,-0.0004207058227621019,1,-0.0003015004331246018,1
1772056471425190144,0.01319113653153181,1,0.03685732558369637,1,0.04848373681306839,1,-0.003396956948563457,1,0.001463996828533709,1,-0.0005748935509473085,1
1772056471435432704,0.01653905212879181,1,0.04010611772537231,1,0.04752369597554207,1,-0.01027381047606468,1,0.004828312434256077,1,-0.0005684730131179094,1
1772056471445576704,0.01486257277429104,1,0.04922615364193916,1,0.03700767830014229,1,-0.01168249640613794,1,0.00519245583564043,1,-0.002178867813199759,1
1772056471455622144,-0.005012791138142347,1,0.01483698934316635,1,0.04328442737460136,1,-0.01028474420309067,1,0.004402704071253538,1,-0.01709456369280815,1
1772056471465569792,0.04431718960404396,1,0.08560246229171753,1,0.03835894912481308,1,-0.01098627410829067,1,0.004771039355546236,1,-0.01718851551413536,1
1772056471475420672,0.0356387123465538,1,0.07182399928569794,1,0.04396583512425423,1,-0.01137959770858288,1,0.00534969475120306,1,-0.01008711569011211,1
1772056471485186304,0.03252683579921722,1,0.06764735281467438,1,0.04286502301692963,1,-0.01183075923472643,1,0.0056307353079319,1,-0.005866748280823231,1
1772056471494857984,0.02650855295360088,1,0.06040975078940392,1,0.04194629564881325,1,-0.0128478892147541,1,0.00620201975107193,1,-0.003723643720149994,1
1772056471504436224,0.02829978801310062,1,0.06827577948570251,1,0.04085762053728104,1,-0.01302494388073683,1,0.006123337429016829,1,-0.002617021091282368,1
1772056471513920768,0.02258066087961197,1,0.06065180152654648,1,0.04080726578831673,1,-0.01105543971061707,1,0.005696240346878767,1,-0.002180809620767832,1
1772056471523313152,0.02421058714389801,1,0.06499269604682922,1,0.03994699195027351,1,-0.01194694638252258,1,0.006221642717719078,1,-0.002118239877745509,1
1772056471532765440,0.0320371612906456,1,0.07388950139284134,1,0.03935671225190163,1,-0.008099784143269062,1,0.004309800919145346,1,-0.001428091782145202,1
1772056471543491840,0.02906807139515877,1,0.06685718148946762,1,0.04084848240017891,1,-0.00377642922103405,1,0.002131622051820159,1,-0.001027019694447517,1
1772056471554112768,0.02677742019295692,1,0.06533824652433395,1,0.03952238336205482,1,-0.001013314351439476,1,0.0009695551707409322,1,-0.0006481467862613499,1
1772056471564630016,0.02272993698716164,1,0.05737968906760216,1,0.0385030210018158,1,0.0001177741651190445,1,0.0003294153138995171,1,-0.0006510789389722049,1
1772056471575051520,0.02062911540269852,1,0.05221724510192871,1,0.03904277831315994,1,-0.001757930382154882,1,0.0009969742968678474,1,-0.0001454617595300078,1
1772056471585371648,0.0214966181665659,1,0.05370434001088142,1,0.03862012922763824,1,-0.005209778901189566,1,0.002398645039647818,1,-0.0004439344047568738,1
1772056471595591168,0.02193156629800797,1,0.05632072687149048,1,0.03933793306350708,1,-0.007013532333076,1,0.00362987257540226,1,-0.0004313601239118725,1
1772056471605710848,0.01591449603438377,1,0.04536531865596771,1,0.04163540527224541,1,-0.01042091101408005,1,0.005381070077419281,1,-0.000557043997105211,1
1772056471615731712,0.01732062548398972,1,0.04439324513077736,1,0.03947475552558899,1,-0.01607583276927471,1,0.008219901472330093,1,-0.0005518840625882149,1
1772056471625654272,0.03288932144641876,1,0.07788253575563431,1,0.03523667529225349,1,-0.01419785805046558,1,0.007070244755595922,1,-0.0006651949952356517,1
1772056471635481088,0.02860250324010849,1,0.07209945470094681,1,0.0336383543908596,1,-0.008023207075893879,1,0.004163336008787155,1,-0.0006778392707929015,1
1772056471645211904,0.02448042668402195,1,0.06395870447158813,1,0.03890166059136391,1,-0.004408813547343016,1,0.002285775961354375,1,-0.000891979958396405,1
1772056471654847744,-0.01734315790235996,1,-0.005016227252781391,1,0.03945036977529526,1,-0.001887028571218252,1,0.001157688093371689,1,-0.007284789346158504,1
1772056471664389376,0.02909466810524464,1,0.07301247119903564,1,0.04216083139181137,1,-0.001010441686958075,1,0.0008007895085029304,1,-0.02048824541270733,1
1772056471673837056,0.03819288313388824,1,0.08211752027273178,1,0.03954754397273064,1,-0.0008919081301428378,1,0.0003474630357231945,1,-0.01262068655341864,1
1772056471683192832,0.03349658101797104,1,0.0740588903427124,1,0.04320237413048744,1,-0.0007018591277301311,1,0.000690916960593313,1,-0.00761679420247674,1
1772056471692915712,0.03116467781364918,1,0.07023990154266357,1,0.0396583192050457,1,-0.0005808002897538245,1,5.909753235755488e-05,1,-0.00453862501308322,1
1772056471703612416,0.02938225492835045,1,0.06710096448659897,1,0.03788658231496811,1,-5.630178202409297e-05,1,0.0002211673563579097,1,-0.002770647639408708,1
1772056471714204672,0.02663742564618587,1,0.06745397299528122,1,0.0373927466571331,1,0.0001769394148141146,1,0.0001384828356094658,1,-0.001653427490964532,1
1772056471724694272,0.02550203166902065,1,0.0665222704410553,1,0.03877447918057442,1,0.000277622981229797,1,0.000162604046636261,1,-0.001328659476712346,1
1772056471735083008,0.02394408732652664,1,0.06470280885696411,1,0.04131762683391571,1,0.0007830702816136181,1,0.0001968691794900224,1,-0.000794650986790657,1
1772056471745371648,0.02119156159460545,1,0.06192205473780632,1,0.04211021587252617,1,0.000589570845477283,1,0.0001529353321529925,1,-0.0005371755105443299,1
1772056471755560448,0.02059238031506538,1,0.06103891134262085,1,0.03980300948023796,1,0.0006711217574775219,1,0.0002920633414760232,1,-0.0005159373977221549,1
1772056471765646848,0.02143599092960358,1,0.06015431135892868,1,0.04251904040575027,1,0.0004964229301549494,1,0.0003037310088984668,1,-0.0007012126734480262,1
1772056471775635968,0.02431251853704453,1,0.06139447167515755,1,0.03688675537705421,1,0.0005336319445632398,1,0.000141649303259328,1,-0.0004825651703868061,1
1772056471785525760,0.02683988027274609,1,0.06127579137682915,1,0.03868206590414047,1,0.0003191675059497356,1,0.0004513957537710667,1,-0.0006322779809124768,1
1772056471795318784,0.02870139107108116,1,0.06354226171970367,1,0.04222257807850838,1,0.0006325962021946907,1,8.291470294352621e-05,1,-0.0002754316083155572,1
1772056471805015040,0.03009116649627686,1,0.061935655772686,1,0.04159264266490936,1,0.0005746284732595086,1,-4.344033732195385e-05,1,-0.0004253164224792272,1
1772056471814614528,0.02839360572397709,1,0.06234925612807274,1,0.04008064046502113,1,0.0007138327928259969,1,-9.330132161267102e-05,1,-0.0003743557608686388,1
1772056471824121088,0.02431540191173553,1,0.06177737563848495,1,0.03844320774078369,1,0.0007361935568042099,1,-0.0001625467702979222,1,-0.0004890087875537574,1
1772056471833532928,0.02412158437073231,1,0.05993933603167534,1,0.03826809301972389,1,0.0008988081244751811,1,-7.913756417110562e-05,1,-0.0004524552205111831,1
1772056471842851072,0.02258393540978432,1,0.0598023347556591,1,0.03909078612923622,1,0.0002860139647964388,1,0.0002060536935459822,1,-9.430819773115218e-05,1
1772056471853001472,0.02005049400031567,1,0.05982423201203346,1,0.04109518229961395,1,3.546123480191454e-05,1,-2.854295598808676e-05,1,-0.0003120045876130462,1
1772056471863667200,0.01867260970175266,1,0.06363832950592041,1,0.03899474814534187,1,0.000162555807037279,1,8.491041080560535e-05,1,-0.0004736791888717562,1
1772056471874228224,0.01753134280443192,1,0.06256179511547089,1,0.04049593955278397,1,0.0002289147960254923,1,-0.0001098566499422304,1,-0.0006089943926781416,1
1772056471884685824,0.02051866985857487,1,0.06141779199242592,1,0.03897934406995773,1,1.881826392491348e-05,1,5.488894385052845e-05,1,-0.0003326919104438275,1
1772056471895044864,0.02454990521073341,1,0.06148533895611763,1,0.0418020635843277,1,1.690480712568387e-05,1,-5.330503336153924e-05,1,-0.0005402156384661794,1
1772056471905304832,0.02944302931427956,1,0.0616045854985714,1,0.04165401682257652,1,-0.0001757585705490783,1,-0.0001427049282938242,1,-0.0006570836994796991,1
1772056471915465216,0.03193994238972664,1,0.06434985995292664,1,0.04135218635201454,1,-0.0003845298197120428,1,-0.0004289823991712183,1,-0.0005334815941751003,1
1772056471925526272,0.02704074420034885,1,0.06381162256002426,1,0.03935684263706207,1,9.919540752889588e-05,1,-0.0002887988521251827,1,-0.0004914971650578082,1
1772056471935488256,0.02287115342915058,1,0.06205902621150017,1,0.03856415301561356,1,0.0002136172988684848,1,-0.0006433431408368051,1,-0.000351137772668153,1
1772056471945353472,0.02106450125575066,1,0.06178076937794685,1,0.03909740224480629,1,6.899639265611768e-05,1,-0.0008113153162412345,1,-0.000206085664103739,1
1772056471955121664,0.01899528130888939,1,0.06167594343423843,1,0.04079050943255424,1,1.36174785438925e-05,1,-0.000805742631200701,1,-0.0001047288387781009,1
1772056471964796672,0.01883849687874317,1,0.06012802198529243,1,0.04015135392546654,1,-0.0001837278832681477,1,-0.000162314492627047,1,-0.0003677414788398892,1
1772056471974375680,0.02203806489706039,1,0.05947090685367584,1,0.03899803012609482,1,-0.0001858132745837793,1,-0.0002440477110212669,1,-0.000496480381116271,1
1772056471983861760,0.02576262317597866,1,0.06208513677120209,1,0.0390191338956356,1,9.906607738230377e-05,1,-0.0002586416958365589,1,-0.0004291192162781954,1
1772056471993259520,0.03091506101191044,1,0.06176792457699776,1,0.03656592965126038,1,0.0001309925282839686,1,-0.0001233726507052779,1,-0.0004857689491473138,1
1772056472002578432,0.03086536563932896,1,0.06123649328947067,1,0.03749297559261322,1,0.0002230935206171125,1,-0.0001358260924462229,1,-0.0003275803755968809,1
1772056472013179136,0.02688722684979439,1,0.06299241632223129,1,0.04066365584731102,1,0.0005650706589221954,1,-0.000223726179683581,1,-0.0005398544599302113,1
1772056472023828992,0.02423017099499702,1,0.06336204707622528,1,0.04062414169311523,1,0.0007212802302092314,1,0.0001913447194965556,1,-0.0003257905191276222,1
1772056472034375168,0.02004625461995602,1,0.06386052817106247,1,0.04217609390616417,1,0.0001652975770412013,1,5.476728256326169e-05,1,-0.0004514230822678655,1
1772056472044821504,0.02005551941692829,1,0.06133779883384705,1,0.04247069731354713,1,-0.0001569295855006203,1,0.0001152184631791897,1,-0.0004215473891235888,1
1772056472055166464,0.02150345221161842,1,0.06127477437257767,1,0.04107003286480904,1,0.0001789577945601195,1,-0.000105773528048303,1,-0.0006069285445846617,1
1772056472065411328,0.02252579294145107,1,0.05945578962564468,1,0.03711346536874771,1,0.0004531634622253478,1,0.0001771714596543461,1,-0.0006161567871458828,1
1772056472075556096,0.02527443878352642,1,0.05944278463721275,1,0.03965335711836815,1,0.0006873812526464462,1,0.0001121646491810679,1,-0.0004508427809923887,1
1772056472085600256,0.02828896790742874,1,0.05974269285798073,1,0.04243823885917664,1,0.0006580046028830111,1,-0.0001040552815538831,1,-0.0006457464187406003,1
1772056472095546368,0.0271248072385788,1,0.05954693630337715,1,0.04201020300388336,1,0.0002256592124467716,1,-7.154120248742402e-05,1,-0.0005513411015272141,1
1772056472105396992,0.02593650296330452,1,0.06131329014897346,1,0.04094143584370613,1,8.078487735474482e-05,1,-0.0001947532291524112,1,-0.0005493050557561219,1
1772056472115151104,0.02304705232381821,1,0.06079373508691788,1,0.04187487065792084,1,1.795708521967754e-05,1,-0.0004179986426606774,1,-0.0006466383929364383,1
1772056472124810496,0.0227084644138813,1,0.06246962770819664,1,0.04049646109342575,1,0.0002414638875052333,1,-0.0003000631113536656,1,-0.0006762797711417079,1
1772056472134375424,0.02386122010648251,1,0.0639740377664566,1,0.04136497899889946,1,0.000532295904122293,1,-8.27883486635983e-05,1,-0.0007232770440168679,1
1772056472143860224,0.02470238879323006,1,0.06396098434925079,1,0.03990703076124191,1,0.0008829794824123383,1,6.253486208152026e-05,1,-0.000514875166118145,1
1772056472153255168,0.02717450447380543,1,0.0629771426320076,1,0.03957796469330788,1,0.001168600982055068,1,-0.0003403296286705881,1,-0.0002251503319712356,1
1772056472162710528,0.02941491641104221,1,0.06078488379716873,1,0.03849586471915245,1,0.0008123229490593076,1,-0.0001768807996995747,1,-0.0003365833545103669,1
1772056472173436160,0.03059044107794762,1,0.05952747538685799,1,0.03986000642180443,1,0.0008691766997799277,1,-8.817116031423211e-05,1,-7.983209798112512e-05,1
1772056472184057344,0.02811954542994499,1,0.06083046272397041,1,0.04128321632742882,1,0.0005898887757211924,1,-0.000227009441005066,1,-0.0001991617027670145,1
1772056472194577152,0.02485988102853298,1,0.06018471345305443,1,0.04120525345206261,1,0.0003114706487394869,1,-9.778486128197983e-05,1,-0.0005032869521528482,1
1772056472204993024,0.02245679497718811,1,0.06060225516557693,1,0.04112019389867783,1,0.0006327892770059407,1,0.000140096468385309,1,-0.0007395692518912256,1
1772056472215304704,0.02241457998752594,1,0.06085880100727081,1,0.04144422337412834,1,0.0004324233741499484,1,-0.0001255895913345739,1,-0.0005767764523625374,1
1772056472225516288,0.02369163185358047,1,0.06228317320346832,1,0.0422261469066143,1,0.0003856981347780675,1,-0.0001311758242081851,1,-0.0005448086885735393,1
1772056472235626240,0.02783072367310524,1,0.06119236350059509,1,0.03976138308644295,1,-0.0001452196593163535,1,-0.0003859504649881274,1,-0.0005318747134879231,1
1772056472245635840,0.02843258902430534,1,0.06193726882338524,1,0.03760005533695221,1,-0.0003415779210627079,1,-0.0002778615453280509,1,-0.0002902043925132602,1
1772056472255550720,0.02795612066984177,1,0.05990223959088326,1,0.03999157249927521,1,0.0001732489909045398,1,-0.0002013471384998411,1,-0.0002438047813484445,1
1772056472265370112,0.02720428071916103,1,0.06083869934082031,1,0.04082754626870155,1,0.00053705635946244,1,-0.000371987116523087,1,-0.0003616439935285598,1
1772056472275093760,0.02522940747439861,1,0.05908673256635666,1,0.04127836227416992,1,0.0007169627351686358,1,4.134794289711863e-05,1,-0.0002437376242596656,1
1772056472284720896,0.02492624148726463,1,0.06116573512554169,1,0.04237441346049309,1,0.0007413014536723495,1,-5.510224582394585e-06,1,-0.0005371066508814692,1
1772056472294253824,0.02277742139995098,1,0.06011132523417473,1,0.04417131468653679,1,0.0005199467414058745,1,-0.0002412198518868536,1,-0.0006087719229981303,1
1772056472303692544,0.0224635936319828,1,0.05772629007697105,1,0.03941546007990837,1,0.0001454619778087363,1,0.0002053932985290885,1,-0.0003005373582709581,1
1772056472313037312,0.02337420172989368,1,0.05820051953196526,1,0.04083533212542534,1,-0.0001837205782067031,1,0.0003115153813268989,1,-0.0003153604629915208,1
1772056472322752768,0.0255741011351347,1,0.0598844550549984,1,0.03960651159286499,1,-0.0007435269071720541,1,-5.054725988884456e-05,1,-0.0004080896032974124,1
1772056472333443072,0.02487915195524693,1,0.06145113706588745,1,0.03858798369765282,1,-0.0007210807525552809,1,3.258695141994394e-05,1,-0.0002259520697407424,1
1772056472344029952,0.02343383617699146,1,0.05890972912311554,1,0.03729651123285294,1,-0.0002564120222814381,1,0.0003672293678391725,1,-0.0001311900850851089,1
1772056472354513920,0.02355953119695187,1,0.05972116068005562,1,0.03772837296128273,1,-1.726346090435982e-05,1,0.0002379391808062792,1,-0.000402607984142378,1
1772056472364895232,0.0242233220487833,1,0.05964761227369308,1,0.03783737868070602,1,0.0001669605553615838,1,0.0002979726705234498,1,-0.0003235199546907097,1
1772056472375181056,0.02172010205686092,1,0.05941255390644073,1,0.03633534163236618,1,0.0002329071576241404,1,0.0001542770332889631,1,-0.0001928425626829267,1
1772056472385367808,0.02314591407775879,1,0.06053231656551361,1,0.04044583439826965,1,0.0002729879342950881,1,8.171162335202098e-06,1,-0.0003371004713699222,1
1772056472395454208,0.02538418397307396,1,0.05956543609499931,1,0.03997853025794029,1,0.0002908741589635611,1,-0.0002979110286105424,1,-0.0002349031856283545,1
1772056472405443072,0.02485827542841434,1,0.06105354428291321,1,0.03995656594634056,1,0.0002376617630943656,1,-0.0003358723770361394,1,-0.0003903246833942831,1
1772056472415334656,0.02759529836475849,1,0.06098245829343796,1,0.04131907597184181,1,-0.0001195420336443931,1,-6.256817141547799e-05,1,-0.0003361084964126348,1
1772056472425129728,0.02583339437842369,1,0.06209941208362579,1,0.03828303888440132,1,0.0001993366895476356,1,-0.0001816111471271142,1,-0.0002761035575531423,1
1772056472434828544,0.02313247509300709,1,0.06211879849433899,1,0.04119220748543739,1,0.0006011065561324358,1,-0.0001720068976283073,1,-0.0003940022434107959,1
1772056472444435200,0.02442497387528419,1,0.06187226250767708,1,0.03961853310465813,1,0.0005036276415921748,1,-0.0001492277951911092,1,-0.0004112599126528949,1
1772056472453948928,0.0233412217348814,1,0.06261412054300308,1,0.03840353712439537,1,0.0003887910861521959,1,-4.468570477911271e-05,1,-0.0005675585125572979,1
1772056472463368704,0.02404890395700932,1,0.06028116121888161,1,0.03784551098942757,1,0.0003888160863425583,1,-0.0002650764072313905,1,-0.0007461452623829246,1
1772056472472696320,-0.01468762010335922,1,0.01096768211573362,1,0.03967980295419693,1,0.0008947223541326821,1,-0.0002312996657565236,1,-0.004485804587602615,1
1772056472482850816,-0.08180458843708038,1,0.1403379291296005,1,0.04131756350398064,1,0.0007171961478888988,1,-0.0004437908937688917,1,-0.03657757118344307,1
1772056472493515008,0.04181636869907379,1,0.08938690274953842,1,0.03986791893839836,1,0.0006210594438016415,1,-0.0007508933776989579,1,-0.03821195662021637,1
1772056472504076544,0.08103770017623901,1,0.04165774956345558,1,0.04266015440225601,1,0.0001678594417171553,1,-0.0004251828941050917,1,-0.02356139197945595,1
1772056472514535680,0.05413621664047241,1,0.04929332435131073,1,0.04139143601059914,1,0.0003084197815041989,1,-0.0004712312656920403,1,-0.01321279164403677,1
1772056472524892416,0.04086145758628845,1,0.05374002456665039,1,0.04116447642445564,1,-9.871705697150901e-05,1,4.384548810776323e-05,1,-0.007416099309921265,1
1772056472535149056,0.03108879737555981,1,0.05369356274604797,1,0.0403762124478817,1,-0.0001712700759526342,1,-3.383622606634162e-05,1,-0.004090006928890944,1
1772056472545305088,0.02764044143259525,1,0.05683319270610809,1,0.03983258083462715,1,-0.0001417407474946231,1,-0.0003799782716669142,1,-0.002361454535275698,1
1772056472555361280,0.02644287049770355,1,0.0584086962044239,1,0.03924102708697319,1,-0.0003975272120442241,1,0.0001074153551599011,1,-0.001479624770581722,1
1772056472565327104,0.02653011679649353,1,0.05983700603246689,1,0.03637179732322693,1,0.0001056068867910653,1,0.0002263735077576712,1,-0.0009098115260712802,1
1772056472575204608,0.0271086897701025,1,0.064567930996418,1,0.04060572758316994,1,0.0006732945912517607,1,-0.0001174895369331352,1,-0.0009320593089796603,1
1772056472584986368,0.02617332711815834,1,0.06133493036031723,1,0.03915326297283173,1,0.0009518903098069131,1,0.00021301259403117,1,-0.0005903790006414056,1
1772056472594673408,0.02619244530797005,1,0.06223472580313683,1,0.04144776239991188,1,0.0008735453011468053,1,0.0002980168210342526,1,-0.0006150517729111016,1
1772056472604266240,0.0233036782592535,1,0.06212422251701355,1,0.03951556608080864,1,0.001084570540115237,1,0.0001008368999464437,1,-0.0005537417018786073,1
1772056472613765632,0.02365939319133759,1,0.06084442511200905,1,0.04020287096500397,1,0.0004772165266331285,1,-0.000365107785910368,1,-0.0006843932787887752,1
1772056472623171328,0.0254990104585886,1,0.06216657906770706,1,0.04048547893762589,1,0.0006980999605730176,1,-0.000359087047399953,1,-0.0007843494531698525,1
1772056472632488448,0.02666449546813965,1,0.06070345267653465,1,0.04144684225320816,1,0.0003054802946280688,1,-0.000270356802502647,1,-0.0006684406544081867,1
1772056472643240704,0.02562818489968777,1,0.06120143458247185,1,0.03714155778288841,1,0.0001161970722023398,1,-8.892040204955265e-05,1,-0.0005008759908378124,1
1772056472653888768,0.02504915930330753,1,0.06151273101568222,1,0.03712064772844315,1,0.000270264019491151,1,5.918082752032205e-05,1,-0.0005240186583250761,1
1772056472664434432,0.02671525813639164,1,0.06210288777947426,1,0.0396103523671627,1,0.0002965728926938027,1,-5.814587348140776e-05,1,-0.0004646131419576705,1
1772056472674877696,0.02391227893531322,1,0.06233848631381989,1,0.03967106714844704,1,0.0006605694070458412,1,4.862149580731057e-05,1,-0.0004740994772873819,1
1772056472685219584,0.02142238989472389,1,0.06308373808860779,1,0.04094088077545166,1,0.0006739205564372241,1,-0.0002700076438486576,1,-0.0003701492096297443,1
1772056472695460352,0.02092557214200497,1,0.06192144379019737,1,0.03773656114935875,1,0.0007086879923008382,1,2.055914046650287e-05,1,-0.0004889327101409435,1
1772056472705602304,0.0226863045245409,1,0.06255386769771576,1,0.03705763816833496,1,0.0002412095782347023,1,-0.0001498014171374962,1,-0.0003974892606493086,1
1772056472715645440,0.0238326508551836,1,0.06080950796604156,1,0.04070249199867249,1,-0.0001465211389586329,1,-8.02999347797595e-05,1,-0.0001956503838300705,1
1772056472725598720,0.02362555824220181,1,0.06160568073391914,1,0.0416719876229763,1,-2.403243706794456e-05,1,0.0001685370953055099,1,-0.0002450034080538899,1
1772056472735454976,0.02502910047769547,1,0.06219521909952164,1,0.03952280804514885,1,0.0001817901502363384,1,0.0002418995572952554,1,-0.000238882377743721,1
1772056472745216256,0.02374547906219959,1,0.06157048791646957,1,0.03695056214928627,1,7.244712469400838e-05,1,5.957182293059304e-05,1,-0.000454516033641994,1
1772056472754882560,0.02325276099145412,1,0.06220116093754768,1,0.03761430829763412,1,0.0003957588342018425,1,0.0002030705800279975,1,-0.0004726558399852365,1
1772056472764454656,0.02317501977086067,1,0.06348729878664017,1,0.03888421878218651,1,0.0003302049590274692,1,0.000145498474012129,1,-0.0004569649754557759,1
1772056472773932544,0.02465732954442501,1,0.06440386176109314,1,0.0390317402780056,1,0.0007053470471873879,1,9.615917224436998e-05,1,-0.0003479718579910696,1
1772056472783320320,0.02580391429364681,1,0.06080451607704163,1,0.03872508555650711,1,0.0005659460439346731,1,-0.0001504362444393337,1,-0.0003212970914319158,1
1772056472792768512,0.02531412802636623,1,0.06013896316289902,1,0.0390690341591835,1,0.0007561205420643091,1,-0.0002760844945441931,1,-0.000405336293624714,1
1772056472803491840,0.02381374686956406,1,0.06098919361829758,1,0.03853862732648849,1,0.0009669612045399845,1,-0.000316356512485072,1,-0.0004544773837551475,1
1772056472814111232,0.0243590772151947,1,0.06060404703021049,1,0.03650907799601555,1,0.0007872435380704701,1,3.807904431596398e-05,1,-0.0003952395636588335,1
1772056472824626688,0.02296121418476105,1,0.0606285072863102,1,0.03919112682342529,1,0.0009351799380965531,1,0.0001719721039989963,1,-0.0004654072690755129,1
1772056472835041024,0.02161866798996925,1,0.0612277053296566,1,0.03948608040809631,1,0.0005990699864923954,1,1.375485226162709e-05,1,-0.0005917202215641737,1
1772056472845352960,0.02170340716838837,1,0.06092429906129837,1,0.04117681831121445,1,0.000190372797078453,1,-4.811695544049144e-05,1,-0.0005325890961103141,1
1772056472855564800,0.02260821312665939,1,0.06021386757493019,1,0.04058397933840752,1,0.0002945478772744536,1,-0.0003634439199231565,1,-0.0004754398833028972,1
1772056472865674240,0.02333609759807587,1,0.06040770187973976,1,0.03904948756098747,1,4.178293966106139e-05,1,-0.0002017682127188891,1,-0.0005446189898066223,1
1772056472875686400,0.02400687150657177,1,0.06012179329991341,1,0.04187015071511269,1,0.0001518426579423249,1,-7.437615568051115e-05,1,-0.0004271480138413608,1
1772056472885598720,0.02237122319638729,1,0.0598408542573452,1,0.04076504334807396,1,0.0003013355890288949,1,-0.0003566814411897212,1,-0.000335043587256223,1
1772056472895416832,0.02437917329370975,1,0.06036769971251488,1,0.04197424650192261,1,0.0001452920550946146,1,-3.360654227435589e-05,1,-0.0004970282316207886,1
1772056472905146368,0.02129133976995945,1,0.06024833768606186,1,0.03999989852309227,1,0.0001826535444706678,1,4.267284384695813e-05,1,-0.0003983588248956949,1
1772056472914781184,0.02048615366220474,1,0.06066774949431419,1,0.03920150175690651,1,0.0004318928404245526,1,-9.637066250434145e-05,1,-0.0005604101461358368,1
1772056472924322560,0.02235457487404346,1,0.06100951135158539,1,0.03730955347418785,1,0.0004376124707050622,1,0.0001520100049674511,1,-0.0006341869593597949,1
1772056472933771520,0.02313183806836605,1,0.06142132729291916,1,0.03716206923127174,1,2.31195444939658e-05,1,0.0001664519659243524,1,-0.0005975493113510311,1
1772056472943128832,0.02471618168056011,1,0.06121086329221725,1,0.03952301666140556,1,0.0002745767706073821,1,-3.140989429084584e-05,1,-0.0006087371148169041,1
1772056472952851456,0.02529535070061684,1,0.05982939526438713,1,0.03889704495668411,1,0.000272404111456126,1,8.749363041715696e-05,1,-0.0003725122660398483,1
1772056472963539456,0.0259450301527977,1,0.06077311187982559,1,0.03850823640823364,1,0.0003816649841610342,1,0.0002122330770362169,1,-0.0005556491087190807,1
1772056472974124032,0.025863166898489,1,0.06028267741203308,1,0.03833173960447311,1,0.0002200395101681352,1,0.0002536648244131356,1,-0.0005574330571107566,1
1772056472984605696,0.02634289674460888,1,0.06139012426137924,1,0.04117478430271149,1,6.203695375006646e-05,1,0.0002127652551280335,1,-0.0004975841147825122,1
1772056472994987008,0.02521922066807747,1,0.06077910214662552,1,0.04212716594338417,1,0.0001970744924619794,1,0.0002771791478153318,1,-0.0005471485201269388,1
1772056473005266176,0.02533118985593319,1,0.06192056089639664,1,0.04141277447342873,1,-0.0001228716573677957,1,-7.175381324486807e-05,1,-0.00048086914466694,1
1772056473015444736,0.02404290251433849,1,0.06222999840974808,1,0.03964599221944809,1,-0.0002781085495371372,1,-0.0001790497044567019,1,-0.0003086754004471004,1
1772056473025525760,0.02282682061195374,1,0.0622684545814991,1,0.03699589520692825,1,-0.0003514124546200037,1,-0.0003470713854767382,1,-0.000209065357921645,1
1772056473035507968,0.02492858469486237,1,0.06389329582452774,1,0.03901584073901176,1,0.000111643152195029,1,-0.000394954695366323,1,-0.0002264608338009566,1
1772056473045391360,0.02501230873167515,1,0.06316258758306503,1,0.03785799816250801,1,0.0004039288032799959,1,-0.0005170216900296509,1,-0.0002448575978633016,1
1772056473055182336,0.02388425916433334,1,0.06317242980003357,1,0.0390903428196907,1,0.0005750225973315537,1,-0.0001541557867312804,1,-0.0003900235751643777,1
1772056473064878848,0.02173583954572678,1,0.06187292188405991,1,0.03915716707706451,1,0.0006145806983113289,1,-0.000283086730632931,1,-0.0002143932651961222,1
1772056473074480128,0.02244442887604237,1,0.06114042550325394,1,0.0386335663497448,1,0.0003632435400504619,1,-0.0003079541784245521,1,-0.0001886139070848003,1
1772056473083988224,0.0233988594263792,1,0.0599709115922451,1,0.0405505895614624,1,0.0005967261968180537,1,-0.0003775629447773099,1,-0.0005400367663241923,1
1772056473093403904,0.02359668910503387,1,0.06030565872788429,1,0.0430048480629921,1,0.0003661255759652704,1,-0.0003241583472117782,1,-0.0004413336573634297,1
1772056473102726144,0.02307738550007343,1,0.05760981515049934,1,0.04079551249742508,1,0.0003418858977966011,1,-0.000467853038571775,1,-0.0004626126028597355,1
1772056473113031424,0.02561873011291027,1,0.05816862732172012,1,0.04211914166808128,1,0.0004911078722216189,1,-0.0002679456083569676,1,-0.0005881933611817658,1
1772056473123694080,0.02813621424138546,1,0.06036533415317535,1,0.03886428475379944,1,0.0004625433939509094,1,-0.0005370432045310736,1,-0.0006262841052375734,1
1772056473134253824,0.02510659396648407,1,0.06342930346727371,1,0.04098595306277275,1,0.0004811284597963095,1,-0.0003227731795050204,1,-0.0005971606587991118,1
1772056473144712192,0.02592893503606319,1,0.06493643671274185,1,0.04197821021080017,1,0.0007614641799591482,1,-0.0002564256719779223,1,-0.0006427571643143892,1
1772056473155067648,0.02585555985569954,1,0.06062892451882362,1,0.04051749780774117,1,0.001039686962030828,1,-0.0001446033420506865,1,-0.0007400033064186573,1
1772056473165323264,0.0244462825357914,1,0.05990198627114296,1,0.04016642645001411,1,0.00075529859168455,1,-0.0002013067714869976,1,-0.0007480676285922527,1
1772056473175478784,0.02400961518287659,1,0.05884997919201851,1,0.04354211315512657,1,0.0004717645351774991,1,-0.0002063421416096389,1,-0.0007558832876384258,1
1772056473185534976,0.02361697144806385,1,0.06001966819167137,1,0.0428851991891861,1,0.0003955482097808272,1,5.824241088703275e-05,1,-0.0005024432903155684,1
1772056473195492096,0.02419645339250565,1,0.06114526465535164,1,0.04100774601101875,1,0.0003038384893443435,1,-7.644083234481514e-05,1,-0.0004510298895183951,1
1772056473205355008,0.02583327516913414,1,0.06121449172496796,1,0.03807080164551735,1,0.0004054870805703104,1,-0.0004494631721172482,1,-0.0003153998113702983,1
1772056473215125248,0.02328117564320564,1,0.06036385893821716,1,0.03549715504050255,1,0.0004207315505482256,1,-0.0006145857041701674,1,-0.0003792604256886989,1
1772056473224806400,0.02485076524317265,1,0.0615222156047821,1,0.03976480290293694,1,0.0008438079385086894,1,-0.0006075907149352133,1,-0.0003601233183871955,1
1772056473234394624,0.02385916747152805,1,0.06121593341231346,1,0.04135243222117424,1,0.0007631914922967553,1,-0.0004299166612327099,1,-0.0005391985177993774,1
1772056473243889152,0.02401478588581085,1,0.06006989628076553,1,0.04436823725700378,1,0.0001659418921917677,1,-0.0003295138303656131,1,-0.0005838483921252191,1
1772056473253291776,0.02563474699854851,1,0.06193426251411438,1,0.040041733533144,1,0.0007746858755126595,1,-0.0002571601653471589,1,-0.0004652637871913612,1
1772056473262602496,0.02463890053331852,1,0.06262784451246262,1,0.03816762566566467,1,0.0006016029510647058,1,-6.783516437280923e-05,1,-0.0005820890655741096,1
1772056473273352192,0.0279353205114603,1,0.06308536231517792,1,0.04082687944173813,1,0.0007196503574959934,1,-5.362516458262689e-05,1,-0.0005864395061507821,1
1772056473283997952,0.02625397965312004,1,0.0614481195807457,1,0.04217043146491051,1,0.0009896528208628297,1,-0.000222923161345534,1,-0.000516846717800945,1
1772056473294539520,0.02542971260845661,1,0.06205415725708008,1,0.04173748195171356,1,0.0006840699352324009,1,-9.820514969760552e-05,1,-0.0002704063372220844,1
1772056473304980224,0.02734935842454433,1,0.06226177513599396,1,0.04027162119746208,1,0.0005345072131603956,1,0.0001594696950633079,1,-0.0004999139346182346,1
1772056473315318272,0.02497566305100918,1,0.06047166883945465,1,0.03747481480240822,1,0.000114842398033943,1,-7.446258678101003e-06,1,-0.000630413880571723,1
1772056473325555712,0.02360563538968563,1,0.06119401007890701,1,0.03961126133799553,1,0.00013583546387963,1,-0.0002689626708161086,1,-0.0005804915563203394,1
1772056473335693056,0.02349556796252728,1,0.06157246604561806,1,0.04104823619127274,1,0.0006016541738063097,1,-0.0003479661536403,1,-0.0004867184325121343,1
1772056473345732864,0.02473273314535618,1,0.0632554292678833,1,0.04101163893938065,1,0.0008010076126083732,1,-2.534472514525987e-05,1,-0.0006058233557268977,1
1772056473355672832,0.0259227491915226,1,0.06245861947536469,1,0.04237683489918709,1,0.0007207095040939748,1,-0.0002725934609770775,1,-0.0007482899818569422,1
1772056473365516544,0.0261464100331068,1,0.05983048677444458,1,0.04190785065293312,1,0.0008906806469894946,1,-0.0002414444606984034,1,-0.000867266848217696,1
1772056473375264768,0.02341059967875481,1,0.06096303835511208,1,0.0424102246761322,1,0.0006598436739295721,1,-0.0001270554348593578,1,-0.0006170315318740904,1
1772056473384918528,0.02478067390620708,1,0.06172297149896622,1,0.04063287377357483,1,0.0006264959811232984,1,-0.0001205676817335188,1,-0.0002426462160656229,1
1772056473394478592,0.02442705258727074,1,0.06347054988145828,1,0.03911583125591278,1,0.0004384330823086202,1,-7.45799916330725e-05,1,-0.0004277491534594446,1
1772056473403950336,0.02519924193620682,1,0.06238739937543869,1,0.03989028930664062,1,-4.39276554971002e-05,1,-1.037587571772747e-05,1,-0.0005330703570507467,1
1772056473413330432,0.02330525405704975,1,0.0610506497323513,1,0.03939997404813766,1,0.0001032845757436007,1,-0.0003496960562188178,1,-0.0004414140421431512,1
1772056473422770688,0.02416919358074665,1,0.06337928026914597,1,0.04081858694553375,1,0.0003595530870370567,1,-0.0003887908242177218,1,-0.0005105381715111434,1
1772056473433488128,0.02448775246739388,1,0.06018924713134766,1,0.04212294146418571,1,0.0001719299179967493,1,-0.0002441910037305206,1,-0.0005184938199818134,1
1772056473444101376,0.02726806700229645,1,0.06113656982779503,1,0.04615999758243561,1,0.0002560351276770234,1,-0.0003940172900911421,1,-0.0001790506794350222,1
1772056473454612224,0.02300628647208214,1,0.06771218031644821,1,0.03344770148396492,1,0.0002611206728033721,1,-0.0004730153013952076,1,-0.0002185852354159579,1
1772056473465022464,0.02580604329705238,1,0.06316955387592316,1,0.03593827411532402,1,0.0003578647738322616,1,-0.0002732911088969558,1,-0.0004791316750925034,1
1772056473475331072,0.03290002793073654,1,0.06023282557725906,1,0.04638998582959175,1,0.0003288401057943702,1,-4.283188900444657e-05,1,-0.0004256762331351638,1
1772056473485538816,0.02932807989418507,1,0.0611177533864975,1,0.04351349174976349,1,0.0003879984433297068,1,-0.0001147334041888826,1,-0.0001350732200080529,1
1772056473495648000,0.02336449176073074,1,0.06112504377961159,1,0.03746308013796806,1,0.0005537435645237565,1,4.014067599200644e-05,1,-3.029684739885852e-05,1
1772056473505658368,0.02212047204375267,1,0.0604126937687397,1,0.04078369587659836,1,0.0001955096377059817,1,-9.224141649610829e-06,1,-0.0003250799491070211,1
1772056473515572736,0.02302738837897778,1,0.063653364777565,1,0.04525236040353775,1,0.0003096428990829736,1,-4.829510362469591e-05,1,-0.000480165152112022,1
1772056473525391616,0.02257675118744373,1,0.05985528975725174,1,0.03779623657464981,1,0.0002463695709593594,1,-0.0002492367930244654,1,-0.0003938681911677122,1
1772056473535115520,0.02257013693451881,1,0.06155618652701378,1,0.03585107624530792,1,0.000235221756156534,1,-0.0003700840170495212,1,-0.0004900533822365105,1
1772056473544754176,0.02572524920105934,1,0.06422527879476547,1,0.04656674340367317,1,0.0003054881235584617,1,-0.0001515418261988088,1,-0.0006404132000170648,1
1772056473554299648,0.0292598269879818,1,0.06015357747673988,1,0.04342979937791824,1,4.427170642884448e-05,1,0.0001518092030892149,1,-0.0005276594310998917,1
1772056473563751680,0.02674501016736031,1,0.06395875662565231,1,0.03356299549341202,1,0.0003882465534843504,1,0.0004559972730930895,1,-0.0005119922570884228,1
1772056473573111808,0.0254823099821806,1,0.06311541050672531,1,0.03449581563472748,1,0.0001874945883173496,1,0.0003589245025068521,1,-0.0004876396560575813,1
1772056473582988288,0.02569545991718769,1,0.06250263750553131,1,0.04191746935248375,1,0.0004659344558604062,1,-5.615004920400679e-05,1,-0.0004735742695629597,1
1772056473593675008,0.02282002754509449,1,0.06294674426317215,1,0.04328294098377228,1,0.0004894448793493211,1,-0.0002677439770195633,1,-0.0005138232372701168,1
1772056473604258816,0.02039304748177528,1,0.06255925446748734,1,0.04105915129184723,1,0.0001556532370159402,1,-0.0001441968342987821,1,-0.0003437177219893783,1
1772056473614740224,0.0209802370518446,1,0.06540811806917191,1,0.04101629182696342,1,1.100328518077731e-05,1,3.808268957072869e-05,1,-0.0005717307794839144,1
1772056473625124608,0.02303130738437176,1,0.0644991546869278,1,0.04029505327343941,1,0.0002417525829514489,1,-0.0001299137366004288,1,-0.0006433631060644984,1
1772056473635408384,0.02434340491890907,1,0.05942103266716003,1,0.03955378383398056,1,0.0006433980306610465,1,0.0001189084141515195,1,-0.0004241358547005802,1
1772056473645592064,0.02680090628564358,1,0.06056014820933342,1,0.03970877081155777,1,0.0004665935412049294,1,0.0002281103515997529,1,-0.0004121021484024823,1
1772056473655675904,0.02811593934893608,1,0.06013062223792076,1,0.03624166548252106,1,0.0005714329890906811,1,0.0003050834638997912,1,-0.0005891014006920159,1
1772056473665662464,0.02738284505903721,1,0.06105761229991913,1,0.03714481368660927,1,0.0002172616368625313,1,0.0001126680290326476,1,-0.0005410108133219182,1
1772056473675551488,0.02424989640712738,1,0.06394518911838531,1,0.04152661189436913,1,2.598160790512338e-05,1,0.0002602352469693869,1,-0.0004154030757490546,1
1772056473685344512,0.02134299650788307,1,0.06089383736252785,1,0.03734588250517845,1,0.0003536977455951273,1,-2.584334288258106e-05,1,-0.0005014967173337936,1
1772056473695043584,0.0220089890062809,1,0.06115089729428291,1,0.03267958760261536,1,0.0007452901918441057,1,-0.0001966283016372472,1,-0.0006462937453761697,1
1772056473704646912,0.02344050258398056,1,0.06067397817969322,1,0.03669766336679459,1,0.0001646516320761293,1,-0.0001266974431928247,1,-0.0006469504442065954,1
1772056473714159616,0.02392806485295296,1,0.05806688219308853,1,0.03926739096641541,1,0.0004306028131395578,1,-0.0001755889825290069,1,-0.0005127901677042246,1
1772056473723591936,0.02295713126659393,1,0.06034623086452484,1,0.037827979773283,1,0.0008648398797959089,1,-0.0004228533944115043,1,-0.0004140637756790966,1
1772056473732932608,0.02461248263716698,1,0.06294778734445572,1,0.0359257273375988,1,0.0007868500542826951,1,-0.0001191523188026622,1,-0.0002370779402554035,1
1772056473743242240,0.0223072711378336,1,0.06222217157483101,1,0.03682047501206398,1,0.0009440863505005836,1,-0.0001236436364706606,1,-0.0005638045258820057,1
1772056473753902336,0.02073074132204056,1,0.06107040122151375,1,0.03898600861430168,1,0.0008249146630987525,1,-0.0001939796493388712,1,-0.0005156883271411061,1
1772056473764460544,0.01927606016397476,1,0.06384745985269547,1,0.03838660940527916,1,0.0006959975580684841,1,-9.139505709754303e-05,1,-0.0006152214482426643,1
1772056473774915584,0.02141749858856201,1,0.06340354681015015,1,0.03782132640480995,1,0.0006485133781097829,1,-4.696323594544083e-05,1,-0.0006496651330962777,1
1772056473785269248,0.02299628965556622,1,0.06295926123857498,1,0.03767814859747887,1,0.0007486878312192857,1,-0.0004405525978654623,1,-0.0007195469224825501,1
1772056473795521536,0.02399903163313866,1,0.06276076287031174,1,0.03984373062849045,1,0.000641896273009479,1,-0.0004143711703363806,1,-0.0006415848038159311,1
1772056473805673216,0.02492779679596424,1,0.06125521659851074,1,0.04357985407114029,1,0.0007679075351916254,1,-0.0006874441169202328,1,-0.0005162988672964275,1
1772056473815736832,0.02342718653380871,1,0.0625450611114502,1,0.04344016313552856,1,0.0004155319184064865,1,-0.000683374295476824,1,-0.0005707118543796241,1
1772056473825706496,0.02434653230011463,1,0.06141224503517151,1,0.04152604565024376,1,0.0002790372527670115,1,-0.0004019899643026292,1,-0.0005955780507065356,1
1772056473835579136,0.02414108626544476,1,0.06389676034450531,1,0.03991757333278656,1,0.0003340738476254046,1,-4.535612242761999e-05,1,-0.0004664654552470893,1
1772056473845356032,0.02585626766085625,1,0.06319520622491837,1,0.04082072526216507,1,0.0001987357973121107,1,-0.0003087810473516583,1,-0.0005314527661539614,1
1772056473855036928,0.0245168786495924,1,0.06232500448822975,1,0.04012782499194145,1,0.000149609797517769,1,-0.0002997979463543743,1,-0.000563558132853359,1
1772056473864624128,0.02609234675765038,1,0.0613822303712368,1,0.03901708498597145,1,0.0004242530558258295,1,-0.0005200136220082641,1,-7.496171747334301e-05,1
1772056473874118144,0.0261965673416853,1,0.06169727817177773,1,0.04163873195648193,1,0.0004909130511805415,1,-7.619727693963796e-05,1,-0.0001504233223386109,1
1772056473883520512,0.02526599168777466,1,0.06285586953163147,1,0.042477797716856,1,0.0003245728730689734,1,-2.147589839296415e-05,1,-0.0001952066959347576,1
1772056473892831744,0.02772421762347221,1,0.06215473264455795,1,0.04214673116803169,1,0.001001015887595713,1,-0.0001503161911386997,1,-0.0002921187551692128,1
1772056473903579136,0.02606434933841228,1,0.06334575265645981,1,0.04101041704416275,1,0.0009178105974569917,1,3.92748843296431e-05,1,-0.0004094225878361613,1
1772056473914222592,0.02470159716904163,1,0.06402471661567688,1,0.04058893769979477,1,0.0006877893465571105,1,-0.0001814373972592875,1,-0.0001434911537216976,1
1772056473924763392,0.0273810550570488,1,0.0636870339512825,1,0.03968628123402596,1,0.0006228154525160789,1,-2.661805774550885e-05,1,-3.450156509643421e-05,1
1772056473935201024,0.02750249765813351,1,0.0635766014456749,1,0.03889430686831474,1,0.0003771035117097199,1,-0.0004366889188531786,1,-9.11247479962185e-06,1
1772056473945537024,0.02442139387130737,1,0.06382256001234055,1,0.03597565367817879,1,0.0002545005409047008,1,-0.0004396992735564709,1,-0.0001072447412298061,1
1772056473955771648,0.02445372380316257,1,0.06365452706813812,1,0.03878371044993401,1,0.0006795492372475564,1,-0.0004195913206785917,1,-0.0001321216986980289,1
1772056473965913344,0.02405154146254063,1,0.06299141049385071,1,0.0409279502928257,1,0.00101085810456425,1,-0.0002377949422225356,1,-0.0003940241294912994,1
1772056473975956224,0.04602272436022758,1,0.1065805554389954,1,0.03556666150689125,1,0.008769561536610126,1,-0.004299706313759089,1,-0.0003376115346327424,1
1772056473985902080,0.04066499322652817,1,0.09594766795635223,1,0.03146456554532051,1,0.01829416491091251,1,-0.009067511186003685,1,-0.0004822059127036482,1
1772056473995750912,0.03423621878027916,1,0.08115478605031967,1,0.03578165546059608,1,0.02765452116727829,1,-0.01370162982493639,1,-0.0006338348030112684,1
1772056474005503744,-0.006748698651790619,1,0.02773101814091206,1,0.0376981683075428,1,0.03789244964718819,1,-0.01883514970541,1,-0.01169003173708916,1
1772056474015160832,0.05061840265989304,1,0.09050814062356949,1,0.03743250295519829,1,0.04157803580164909,1,-0.02065913006663322,1,-0.01160917151719332,1
1772056474024725248,0.04815138503909111,1,0.08544269949197769,1,0.03725613281130791,1,0.04322359338402748,1,-0.021440664306283,1,-0.006906498223543167,1
1772056474034197248,0.03282665833830833,1,0.07232953608036041,1,0.0334058590233326,1,0.0457325242459774,1,-0.02235550433397293,1,-0.004145178478211164,1
1772056474043576064,0.02524802275002003,1,0.06731173396110535,1,0.03840282186865807,1,0.0458780862390995,1,-0.02213571406900883,1,-0.002488242462277412,1
1772056474053016320,-0.01216957718133926,1,-0.004298734478652477,1,0.06003205850720406,1,0.03865940123796463,1,-0.01832433044910431,1,-0.001367706689052284,1
1772056474063731200,-0.0004708903143182397,1,0.02423747628927231,1,0.0484137162566185,1,0.02339065447449684,1,-0.01058766897767782,1,-0.001105406670831144,1
1772056474074341888,0.01082544215023518,1,0.04106622561812401,1,0.04454220458865166,1,0.01439907494932413,1,-0.006185809150338173,1,-0.0008778325282037258,1
1772056474084850176,0.01077317912131548,1,0.07167802751064301,1,0.02429389208555222,1,0.01177133806049824,1,-0.003586703445762396,1,-0.001012285123579204,1
1772056474095256576,-0.005320493131875992,1,0.06725645810365677,1,0.003023431170731783,1,0.02414015866816044,1,-0.002459168434143066,1,-0.006142203696072102,1
1772056474105559808,0.02583494409918785,1,0.1001818180084229,1,0.01022996567189693,1,0.03658286854624748,1,-0.002115268725901842,1,-0.01265302114188671,1
1772056474115762688,0.006338508799672127,1,0.04991913586854935,1,0.01529459655284882,1,0.04919088631868362,1,-0.001681464374996722,1,-0.0103403814136982,1
1772056474125866752,0.03531016409397125,1,0.04094035923480988,1,0.04089821502566338,1,0.05269254371523857,1,-0.001610109466128051,1,-0.01994036883115768,1
1772056474135876864,0.02842224389314651,1,0.08828957378864288,1,0.02749508619308472,1,0.05304600670933723,1,-0.001496656564995646,1,-0.01836415752768517,1
1772056474145792768,0.02558866143226624,1,0.1181472614407539,1,0.0170382559299469,1,0.06051138043403625,1,-0.001745674759149551,1,-0.01336269453167915,1
1772056474155612416,0.02158679999411106,1,0.04243788868188858,1,0.04370765388011932,1,0.0732925608754158,1,-0.001242963946424425,1,-0.007395593449473381,1
1772056474165335040,0.01536272279918194,1,0.1031319797039032,1,0.03593228757381439,1,0.07434865832328796,1,-0.001468526083044708,1,-0.004072904121130705,1
1772056474174962688,0.02954231575131416,1,0.1289097964763641,1,-0.02723168209195137,1,0.09223833680152893,1,-0.002136831637471914,1,-0.00236572464928031,1
1772056474184496896,0.02556187473237514,1,0.05440237000584602,1,0.03775250166654587,1,0.09186269342899323,1,-0.001895055174827576,1,-0.001229457906447351,1
1772056474193936640,0.0340440459549427,1,0.1128245890140533,1,0.01717408001422882,1,0.09874740242958069,1,-0.002172840759158134,1,-0.0006744827260263264,1
1772056474203286272,0.1310313194990158,1,0.2443908303976059,1,-0.01758787035942078,1,0.1211805865168571,1,-0.002673706971108913,1,0.01719146035611629,1
1772056474213155328,0.01257861685007811,1,-0.00327761285007,1,0.03039754182100296,1,0.1272477656602859,1,-0.003097749082371593,1,0.02923142164945602,1
1772056474223840512,0.06712939590215683,1,0.1434058398008347,1,0.04029297083616257,1,0.1241366341710091,1,-0.00284673529677093,1,0.03083169087767601,1
1772056474234420224,0.06161028146743774,1,0.06840530037879944,1,0.05318108946084976,1,0.1274362951517105,1,-0.002217966597527266,1,0.06127545982599258,1
1772056474244897280,0.08020336925983429,1,-0.09571957588195801,1,0.09413570165634155,1,0.1134700775146484,1,-0.001456144265830517,1,0.06908056139945984,1
1772056474255275008,0.1049858629703522,1,0.02605405263602734,1,0.04583391174674034,1,0.09725671261548996,1,-0.0007034295122139156,1,0.09127969294786453,1
1772056474265549824,0.05240058153867722,1,-0.03761611506342888,1,0.05331619083881378,1,0.08896030485630035,1,-0.0001568164734635502,1,0.1015604957938194,1
1772056474275723264,0.03977946192026138,1,-0.01712238788604736,1,0.05267933011054993,1,0.08364018052816391,1,-0.0002082387218251824,1,0.1008788123726845,1
1772056474285799424,0.01893701404333115,1,-0.02498793974518776,1,0.03886411339044571,1,0.08009734749794006,1,-5.201334352022968e-05,1,0.09608513116836548,1
1772056474295776000,0.03395695611834526,1,-0.01122500281780958,1,0.007395618595182896,1,0.08492882549762726,1,-0.000118671428936068,1,0.09234747290611267,1
1772056474305654272,0.09784860163927078,1,-0.11591587215662,1,0.01502256840467453,1,0.09805482625961304,1,0.0001556246425025165,1,0.1077193394303322,1
1772056474315436800,0.1622763425111771,1,-0.152090311050415,1,0.06644744426012039,1,0.09958242624998093,1,0.001181306433863938,1,0.1320330053567886,1
1772056474325124608,0.1958689391613007,1,-0.05898628011345863,1,0.03067735396325588,1,0.09561770409345627,1,0.0007483633235096931,1,0.1354908347129822,1
1772056474334717184,0.2545932233333588,1,-0.008116323500871658,1,0.007902414537966251,1,0.1029179766774178,1,-0.0005470872274599969,1,0.1362672299146652,1
1772056474344223744,0.2941358685493469,1,-0.02775252796709538,1,0.01661838218569756,1,0.1155037730932236,1,0.0001532443275209516,1,0.144895538687706,1
1772056474353640448,0.3419800400733948,1,-0.07409808039665222,1,0.03889169916510582,1,0.1204216107726097,1,0.00233526760712266,1,0.1649334877729416,1
1772056474362963968,0.4131110608577728,1,-0.08351907134056091,1,0.05147363618016243,1,0.1191006526350975,1,0.004026229958981276,1,0.1856969743967056,1
1772056474373266176,0.5890026092529297,1,0.00606877077370882,1,0.06990184634923935,1,0.1123245060443878,1,0.001753943623043597,1,0.1917341649532318,1
1772056474383923456,0.6133237481117249,1,0.03445370495319366,1,0.08713306486606598,1,0.09960030764341354,1,0.004594552796334028,1,0.172233372926712,1
1772056474394478848,0.6809611916542053,1,0.1662110239267349,1,0.05118991062045097,1,0.0853559598326683,1,0.003171245334669948,1,0.1233673617243767,1
1772056474404930560,0.6438494920730591,1,0.1713720560073853,1,0.06230973452329636,1,0.0801478698849678,1,0.000514411018230021,1,0.07997219264507294,1
1772056474415280128,0.585031270980835,1,0.05924598127603531,1,0.04780902713537216,1,0.07168868184089661,1,-0.001058788504451513,1,0.05298981815576553,1
1772056474425527808,0.6154610514640808,1,0.01215495076030493,1,0.04423219710588455,1,0.06997328251600266,1,-0.00100359006319195,1,0.04035434126853943,1
1772056474435675392,0.5830395817756653,1,-0.01092125847935677,1,0.003646921366453171,1,0.07638498395681381,1,0.0009950599633157253,1,0.05228776857256889,1
1772056474445723392,0.7110989689826965,1,0.1033189818263054,1,-0.04447034746408463,1,0.09527149796485901,1,-0.0009362355340272188,1,0.07344498485326767,1
1772056474455687680,0.748410701751709,1,0.2901531755924225,1,-0.06951170414686203,1,0.129024475812912,1,-0.004353718366473913,1,0.05578086897730827,1
1772056474465556480,0.7047874331474304,1,0.2774054408073425,1,-0.08121186494827271,1,0.1646421104669571,1,-0.006819307804107666,1,0.01363126374781132,1
1772056474475329024,0.6093052625656128,1,0.2630177736282349,1,-0.09962420910596848,1,0.2094900012016296,1,-0.007322764024138451,1,-0.02005994133651257,1
1772056474485006336,0.4292092323303223,1,0.229854628443718,1,-0.0717424601316452,1,0.2494285702705383,1,-0.008913121186196804,1,-0.0253467783331871,1
1772056474494588928,0.2616847157478333,1,0.1695173978805542,1,-0.03681188449263573,1,0.2801162004470825,1,-0.005502191372215748,1,0.01092565804719925,1
1772056474504077568,0.2003804445266724,1,0.1583591252565384,1,-0.04880088195204735,1,0.3076115846633911,1,-0.002418833086267114,1,0.07973674684762955,1
1772056474513473792,0.3496315479278564,1,0.1539220809936523,1,-0.01463082060217857,1,0.3328159749507904,1,0.00300313183106482,1,0.12444057315588,1
1772056474522778368,0.5410914421081543,1,0.1952217072248459,1,-0.006341053638607264,1,0.3472464084625244,1,0.004726266954094172,1,0.1487391591072083,1
1772056474533524224,0.6443888545036316,1,0.1161709055304527,1,-0.00154251023195684,1,0.3613899648189545,1,0.00402316777035594,1,0.1563502997159958,1
1772056474544166144,0.7857749462127686,1,0.04087118059396744,1,0.07679328322410583,1,0.3512718379497528,1,0.01558240503072739,1,0.1469444930553436,1
1772056474554704384,0.9605382680892944,1,-0.001381801208481193,1,0.07011210173368454,1,0.3213944435119629,1,0.0395813100039959,1,0.1063319146633148,1
1772056474565141760,1.109746098518372,1,0.01371308974921703,1,-0.01826582476496696,1,0.2980265021324158,1,0.08049523830413818,1,0.04735283553600311,1
1772056474575477760,1.096995830535889,1,0.02569729462265968,1,-0.05291228741407394,1,0.2870075106620789,1,0.1377902925014496,1,-0.03111656755208969,1
1772056474585712640,0.9759573936462402,1,-0.0378979928791523,1,-0.0792340487241745,1,0.2760113477706909,1,0.2253381907939911,1,-0.1107526049017906,1
1772056474595847680,0.834364116191864,1,-0.1584100425243378,1,-0.0500614158809185,1,0.2571427822113037,1,0.3242347538471222,1,-0.177910327911377,1
1772056474605882880,0.7146748304367065,1,-0.3636637628078461,1,0.02087105251848698,1,0.2325694710016251,1,0.4108133912086487,1,-0.1972547471523285,1
1772056474615819264,0.6988419890403748,1,-0.4475935697555542,1,0.0694146528840065,1,0.1920289695262909,1,0.4100152850151062,1,-0.1609354168176651,1
1772056474625665792,0.7724791169166565,1,-0.4951573312282562,1,0.1138082146644592,1,0.1641408503055573,1,0.3885660171508789,1,-0.1153005436062813,1
1772056474635417856,0.9461714029312134,1,-0.4402761161327362,1,0.1288745105266571,1,0.148822084069252,1,0.3654967546463013,1,-0.08678202331066132,1
1772056474645074176,1.120435833930969,1,-0.3200995326042175,1,0.06493399292230606,1,0.1454381793737411,1,0.349324643611908,1,-0.09970949590206146,1
1772056474654636544,1.161666631698608,1,-0.2211605161428452,1,0.0001812698319554329,1,0.1435505896806717,1,0.3549521565437317,1,-0.1680077016353607,1
1772056474664105216,1.013592600822449,1,-0.264582484960556,1,-0.09106777608394623,1,0.1368671953678131,1,0.3724642395973206,1,-0.2522099018096924,1
1772056474673480448,0.8769755959510803,1,-0.3773043751716614,1,-0.3187990486621857,1,0.1017594039440155,1,0.3810466527938843,1,-0.3025688529014587,1
1772056474682918400,0.7529677152633667,1,-0.4312724769115448,1,-0.5481941699981689,1,0.0240619033575058,1,0.3297719359397888,1,-0.3226050734519958,1
1772056474693633536,0.6375117301940918,1,-0.4292255043983459,1,-0.6472597122192383,1,-0.07333052903413773,1,0.22977614402771,1,-0.3093005418777466,1
1772056474704243968,0.560524046421051,1,-0.3269301354885101,1,-0.6118130087852478,1,-0.1607732772827148,1,0.09836403280496597,1,-0.2832925021648407,1
1772056474714753280,0.4671048521995544,1,-0.2442758232355118,1,-0.436126321554184,1,-0.2219599336385727,1,-0.01931415870785713,1,-0.2515571415424347,1
1772056474725159168,0.4703451693058014,1,-0.1486920118331909,1,-0.2634870409965515,1,-0.2554426193237305,1,-0.08154373615980148,1,-0.2193583995103836,1
1772056474735463680,0.5531004667282104,1,-0.06261026859283447,1,-0.1268470734357834,1,-0.2721894085407257,1,-0.101529449224472,1,-0.2066593915224075,1
1772056474745668096,0.6525183916091919,1,0.06147198379039764,1,0.01208663266152143,1,-0.2771090567111969,1,-0.08933715522289276,1,-0.2156047970056534,1
1772056474755772416,0.6719331741333008,1,0.1405095607042313,1,0.1535253822803497,1,-0.2593764960765839,1,-0.06338931620121002,1,-0.2447030544281006,1
1772056474765779200,0.6510869264602661,1,0.1311447024345398,1,0.2548468112945557,1,-0.228524923324585,1,-0.017984414473176,1,-0.2695508897304535,1
1772056474775695872,0.6551815867424011,1,0.1686806678771973,1,0.3204504251480103,1,-0.1872714906930923,1,0.02796218544244766,1,-0.2930946946144104,1
1772056474785516544,0.6958088874816895,1,0.1829853802919388,1,0.3240585029125214,1,-0.1385368406772614,1,0.06009379029273987,1,-0.3206314444541931,1
1772056474795240704,0.7483866810798645,1,0.1983985006809235,1,0.2584080398082733,1,-0.09624268114566803,1,0.05806943401694298,1,-0.358750194311142,1
1772056474804871680,0.7564302086830139,1,0.1887535005807877,1,0.1876034140586853,1,-0.06404159218072891,1,0.03563959896564484,1,-0.3962740004062653,1
1772056474814407424,0.7414195537567139,1,0.1741475015878677,1,0.1045676320791245,1,-0.04872139170765877,1,0.01125010102987289,1,-0.4388243556022644,1
1772056474823850496,0.6306563019752502,1,0.1498356908559799,1,0.09557195752859116,1,-0.05020421370863914,1,0.00369324698112905,1,-0.4901914596557617,1
1772056474833202176,0.4609081745147705,1,0.107188805937767,1,0.1132340431213379,1,-0.05473056808114052,1,0.01956623606383801,1,-0.5367761850357056,1
1772056474843072768,0.267663985490799,1,0.1426929235458374,1,0.113041453063488,1,-0.05896513164043427,1,0.02688231877982616,1,-0.5758333206176758,1
1772056474853756160,-0.04991710186004639,1,0.191269263625145,1,0.2001815438270569,1,-0.06934184581041336,1,0.02240419574081898,1,-0.6095168590545654,1
1772056474864336640,-0.4010754823684692,1,-0.03629249334335327,1,0.2732798159122467,1,-0.05581805482506752,1,0.01834708638489246,1,-0.6081498265266418,1
1772056474874813952,-0.5566474795341492,1,-0.110843189060688,1,0.2593113481998444,1,-0.03952039033174515,1,0.004557070322334766,1,-0.5461868047714233,1
1772056474885188096,-0.5552525520324707,1,-0.06975720822811127,1,0.2255414575338364,1,-0.02503395639359951,1,-0.03808806091547012,1,-0.4862399697303772,1
1772056474895467520,-0.4099003672599792,1,-0.02843242697417736,1,0.1326955407857895,1,-0.005612902343273163,1,-0.09406741708517075,1,-0.4418266117572784,1
1772056474905648640,-0.2406919002532959,1,0.09685068577528,1,-0.01826179400086403,1,0.002095275092869997,1,-0.1626027673482895,1,-0.4312557876110077,1
1772056474915728640,-0.2978646457195282,1,0.09015814214944839,1,-0.04828165471553802,1,-0.01639502122998238,1,-0.1907741129398346,1,-0.4539864957332611,1
1772056474925711616,-0.4894109070301056,1,0.07509072124958038,1,0.04754673689603806,1,-0.04228048026561737,1,-0.1311738193035126,1,-0.4640896618366241,1
1772056474935596544,-0.6839876174926758,1,0.1080939173698425,1,0.1229459047317505,1,-0.0518278032541275,1,-0.02125990763306618,1,-0.4679301977157593,1
1772056474945384960,-0.8339859247207642,1,0.08406957238912582,1,0.1092396229505539,1,-0.04448346793651581,1,0.06620687246322632,1,-0.4617941975593567,1
1772056474955077376,-0.8920122981071472,1,0.0395311526954174,1,0.02062343433499336,1,-0.02801899984478951,1,0.08109567314386368,1,-0.4189482033252716,1
1772056474964677376,-0.827236533164978,1,0.01196014601737261,1,-0.1196691691875458,1,-0.01380356773734093,1,0.02474486455321312,1,-0.3511348962783813,1
1772056474974182400,-0.6617696285247803,1,0.02921259962022305,1,-0.2231527119874954,1,-0.01478677801787853,1,-0.06190618872642517,1,-0.2865435481071472,1
1772056474983594240,-0.4460327625274658,1,0.1038307249546051,1,-0.2147865295410156,1,-0.02550660818815231,1,-0.1165221109986305,1,-0.2392583191394806,1
1772056474992914176,-0.2466306239366531,1,0.2002749443054199,1,-0.1507727056741714,1,-0.03962288051843643,1,-0.1064015328884125,1,-0.2327832877635956,1
1772056475003214592,-0.08157438784837723,1,0.2377211600542068,1,-0.1213958784937859,1,-0.05509123206138611,1,-0.05520682409405708,1,-0.2552635371685028,1
1772056475013872128,0.01224187575280666,1,0.2212645411491394,1,-0.1134917885065079,1,-0.07419546693563461,1,-0.01115981210023165,1,-0.2862770259380341,1
1772056475024425728,0.07414069771766663,1,0.141512006521225,1,-0.1324440091848373,1,-0.0909959152340889,1,-0.01152142509818077,1,-0.3093887865543365,1
1772056475034876672,0.08557017892599106,1,0.05953376740217209,1,-0.1299125105142593,1,-0.1034016609191895,1,-0.06209469959139824,1,-0.3207509815692902,1
1772056475045228800,-0.001103989779949188,1,-0.03019918315112591,1,-0.04511047899723053,1,-0.1045544147491455,1,-0.1119710505008698,1,-0.3192876577377319,1
1772056475055482112,-0.08712800592184067,1,-0.1021064296364784,1,0.04129510372877121,1,-0.09747687727212906,1,-0.1131288483738899,1,-0.3015133142471313,1
1772056475065635072,-0.1503117829561234,1,-0.09810006618499756,1,0.1154425293207169,1,-0.08608467876911163,1,-0.06252372264862061,1,-0.2799520492553711,1
1772056475075687680,-0.1516796201467514,1,-0.08003184944391251,1,0.1132450178265572,1,-0.067516028881073,1,0.01434084586799145,1,-0.2540315687656403,1
1772056475085641984,-0.0663977786898613,1,-0.05874563008546829,1,0.02269468083977699,1,-0.05310501903295517,1,0.06499932706356049,1,-0.2255111634731293,1
1772056475095499008,0.03074731677770615,1,0.02777425013482571,1,-0.04772373288869858,1,-0.04237979650497437,1,0.07363101840019226,1,-0.1997483521699905,1
1772056475105259264,0.09113738685846329,1,0.1005868837237358,1,-0.09020218253135681,1,-0.03373811766505241,1,0.07305984944105148,1,-0.185049831867218,1
1772056475114926080,0.1086907014250755,1,0.1588301509618759,1,-0.1351740658283234,1,-0.03171349689364433,1,0.08404725790023804,1,-0.1790788322687149,1
1772056475124497664,0.1111306250095367,1,0.1532183736562729,1,-0.188639760017395,1,-0.04050538316369057,1,0.1124148815870285,1,-0.1732918322086334,1
1772056475133975552,0.2007610201835632,1,0.1185706481337547,1,-0.2442977279424667,1,-0.06225842237472534,1,0.133493185043335,1,-0.1565737575292587,1
1772056475143361024,0.3522910475730896,1,0.1298929005861282,1,-0.1901754140853882,1,-0.09052569419145584,1,0.1312286108732224,1,-0.1437169015407562,1
1772056475152654080,0.4782994985580444,1,0.1906058192253113,1,-0.0296844057738781,1,-0.1018539294600487,1,0.1212179958820343,1,-0.1477158069610596,1
1772056475163401984,0.5563444495201111,1,0.2585982084274292,1,0.08789511770009995,1,-0.08613321930170059,1,0.1147131100296974,1,-0.1682160049676895,1
1772056475174044928,0.5207552909851074,1,0.2555683553218842,1,0.1185890734195709,1,-0.05753624811768532,1,0.1105004251003265,1,-0.1965949088335037,1
1772056475184585728,0.427412360906601,1,0.1688776910305023,1,0.06890785694122314,1,-0.03251641243696213,1,0.1159111708402634,1,-0.2013272196054459,1
1772056475195023616,0.4036794006824493,1,0.09653083980083466,1,-0.03936996683478355,1,-0.02558374404907227,1,0.1228692457079887,1,-0.1867385655641556,1
1772056475205358592,0.4300963878631592,1,0.05897124484181404,1,-0.1315621882677078,1,-0.03427445515990257,1,0.1172184199094772,1,-0.1694110631942749,1
1772056475215592704,0.4972904920578003,1,0.01394369639456272,1,-0.1741242259740829,1,-0.05275992676615715,1,0.1050344035029411,1,-0.1524797230958939,1
1772056475225726208,0.6547484397888184,1,0.04451801627874374,1,-0.2160214185714722,1,-0.07683506608009338,1,0.08399421721696854,1,-0.147741436958313,1
1772056475235761408,0.7573462724685669,1,0.08259879797697067,1,-0.2287122458219528,1,-0.1024375706911087,1,0.04338885471224785,1,-0.178490623831749,1
1772056475245702144,0.726125180721283,1,0.06931710243225098,1,-0.1874377876520157,1,-0.1220612078905106,1,0.01246548723429441,1,-0.222682774066925,1
1772056475255548672,0.6203458309173584,1,0.04902944713830948,1,-0.1553143113851547,1,-0.1322612017393112,1,0.002027318114414811,1,-0.2589417994022369,1
1772056475265299456,0.4804242849349976,1,-0.02818159386515617,1,-0.1020400822162628,1,-0.1450447589159012,1,0.0131463622674346,1,-0.2810890376567841,1
1772056475274954240,0.3612947463989258,1,-0.0216976236552,1,-0.01900774426758289,1,-0.1555896550416946,1,0.03381184116005898,1,-0.2930111885070801,1
1772056475284516352,0.2599342465400696,1,-0.04542716592550278,1,0.07605426013469696,1,-0.1540977358818054,1,0.05225911736488342,1,-0.2923159003257751,1
1772056475293984000,0.2652356028556824,1,-0.05362443625926971,1,0.1249887868762016,1,-0.1422966718673706,1,0.06112689152359962,1,-0.2753850519657135,1
1772056475303360512,0.3844960033893585,1,0.02343282662332058,1,0.1704082041978836,1,-0.1296067982912064,1,0.05594422295689583,1,-0.2646094560623169,1
1772056475312798464,0.5494974851608276,1,0.1439974009990692,1,0.2253345549106598,1,-0.1131841093301773,1,0.03980570659041405,1,-0.28580042719841,1
1772056475323513344,0.6197888851165771,1,0.2153857797384262,1,0.3067675828933716,1,-0.08650726824998856,1,0.01760317571461201,1,-0.3395198881626129,1
1772056475334124288,0.5393272042274475,1,0.2172775864601135,1,0.3756098747253418,1,-0.05028416216373444,1,0.01038008648902178,1,-0.4048592150211334,1
1772056475344632832,0.3275472223758698,1,0.1712644696235657,1,0.3868901133537292,1,-0.0108763799071312,1,0.02198146283626556,1,-0.4604581892490387,1
1772056475355039488,0.06841086596250534,1,0.08966585248708725,1,0.3386334478855133,1,0.02985068596899509,1,0.04157920926809311,1,-0.4901235699653625,1
1772056475365343488,-0.1165493354201317,1,-0.002285209950059652,1,0.1945876628160477,1,0.06659916043281555,1,0.05022948235273361,1,-0.4821202754974365,1
1772056475375546880,-0.2246830612421036,1,-0.02313785068690777,1,-0.02789737284183502,1,0.08346579968929291,1,0.02830967679619789,1,-0.4557203948497772,1
1772056475385650688,-0.3192797005176544,1,-0.06338050961494446,1,-0.2356596738100052,1,0.07299493998289108,1,-0.003214916214346886,1,-0.4203102290630341,1
1772056475395655680,-0.3223912119865417,1,-0.08437748998403549,1,-0.4188740849494934,1,0.03135570511221886,1,-0.01886284910142422,1,-0.3682701885700226,1
1772056475405566208,-0.1906484365463257,1,-0.03444584459066391,1,-0.5110393762588501,1,-0.03757136687636375,1,-0.02233709953725338,1,-0.3254770338535309,1
1772056475415387136,0.04383698850870132,1,0.0219452790915966,1,-0.4637556374073029,1,-0.1127434149384499,1,-0.02895610593259335,1,-0.306410014629364,1
1772056475425112576,0.2459695488214493,1,0.05686145648360252,1,-0.2352702617645264,1,-0.180118128657341,1,-0.05738314986228943,1,-0.3204229474067688,1
1772056475434743040,0.2766741514205933,1,0.1427163928747177,1,0.1658524870872498,1,-0.1965572088956833,1,-0.05515201389789581,1,-0.3565993309020996,1
1772056475444279808,0.2321246266365051,1,0.1213516667485237,1,0.4692713916301727,1,-0.1767453551292419,1,-0.01879467256367207,1,-0.4018443822860718,1
1772056475453723136,0.1646388471126556,1,0.09317734837532043,1,0.6222547888755798,1,-0.1308188140392303,1,0.001594529487192631,1,-0.4325653612613678,1
1772056475463073536,0.1072651371359825,1,0.04683206975460052,1,0.6113543510437012,1,-0.07592178136110306,1,-0.02722321450710297,1,-0.4370790123939514,1
1772056475472940800,0.06670348346233368,1,0.02715889737010002,1,0.5520179867744446,1,-0.03630125522613525,1,-0.0893077626824379,1,-0.4257629215717316,1
1772056475483619072,0.02023135870695114,1,0.07148853689432144,1,0.5746857523918152,1,-0.007246685680001974,1,-0.1275665163993835,1,-0.4134372472763062,1
1772056475494193152,0.0217538233846426,1,0.1626133918762207,1,0.5733824372291565,1,0.02524805068969727,1,-0.1086845248937607,1,-0.4130584001541138,1
1772056475504664576,0.06571205705404282,1,0.2067374736070633,1,0.4410459697246552,1,0.05467673763632774,1,-0.06849463284015656,1,-0.4309610426425934,1
1772056475515035136,0.05556844174861908,1,0.2210367023944855,1,0.2649371027946472,1,0.06483975052833557,1,-0.04628716036677361,1,-0.4578333497047424,1
1772056475525306368,-0.06926882266998291,1,0.2113276422023773,1,0.171880379319191,1,0.05669765546917915,1,-0.03678851202130318,1,-0.4785103499889374,1
1772056475535478016,-0.2973970174789429,1,0.1992539763450623,1,0.1985758095979691,1,0.04644069820642471,1,-0.01783845759928226,1,-0.4873707294464111,1
1772056475545551872,-0.5231713056564331,1,0.0852566584944725,1,0.2401305437088013,1,0.04683244973421097,1,0.01607112772762775,1,-0.4701310396194458,1
1772056475555527424,-0.5951492190361023,1,-0.06641785800457001,1,0.2019200772047043,1,0.05440228804945946,1,0.03382991999387741,1,-0.4200923442840576,1
1772056475565405440,-0.5251715183258057,1,-0.1281825304031372,1,0.1425515860319138,1,0.06921080499887466,1,0.01603151299059391,1,-0.3676565587520599,1
1772056475575186176,-0.3887905478477478,1,-0.1485588848590851,1,0.05054589360952377,1,0.09214895963668823,1,-0.01410741358995438,1,-0.333888053894043,1
1772056475584874240,-0.2551347613334656,1,-0.1367187947034836,1,-0.06816769391298294,1,0.1061616018414497,1,-0.03352276608347893,1,-0.329609215259552,1
1772056475594468096,-0.2106989324092865,1,-0.1451615691184998,1,-0.1607346683740616,1,0.1064828485250473,1,-0.02945186197757721,1,-0.3451259434223175,1
1772056475603966976,-0.2640867233276367,1,-0.1966045498847961,1,-0.1670899540185928,1,0.0866067111492157,1,0.01032266579568386,1,-0.3648359477519989,1
1772056475613373696,-0.3546548187732697,1,-0.2316123247146606,1,-0.07362854480743408,1,0.06121106445789337,1,0.08027853816747665,1,-0.3730198740959167,1
1772056475622688512,-0.3765087723731995,1,-0.2415406554937363,1,0.008649927563965321,1,0.05074974894523621,1,0.1416432410478592,1,-0.3644064366817474,1
1772056475632988672,-0.3660637438297272,1,-0.2417697310447693,1,0.06331408768892288,1,0.04868290200829506,1,0.1640317291021347,1,-0.3476045429706573,1
1772056475643649536,-0.3474359512329102,1,-0.2286023497581482,1,0.08585409075021744,1,0.05537169054150581,1,0.1593665778636932,1,-0.3317020535469055,1
1772056475654206464,-0.3066831529140472,1,-0.1879173070192337,1,0.005043704994022846,1,0.06090677529573441,1,0.1335103511810303,1,-0.3264682590961456,1
1772056475664659968,-0.3476331233978271,1,-0.2280706912279129,1,-0.03803133964538574,1,0.05012250691652298,1,0.09865322709083557,1,-0.329195648431778,1
1772056475675012096,-0.4116502404212952,1,-0.2433238476514816,1,0.01689930632710457,1,0.04402714967727661,1,0.0852213054895401,1,-0.3181706964969635,1
1772056475685269760,-0.4311625361442566,1,-0.2365789264440536,1,0.02646448463201523,1,0.05773786082863808,1,0.08246650546789169,1,-0.3084418475627899,1
1772056475695428864,-0.4532154500484467,1,-0.2905708849430084,1,-0.01835968159139156,1,0.0692131444811821,1,0.08187137544155121,1,-0.2909211814403534,1
1772056475705487360,-0.3898851871490479,1,-0.3098687529563904,1,-0.07606014609336853,1,0.06633252650499344,1,0.08506771922111511,1,-0.2565004825592041,1
1772056475715448832,-0.1908710151910782,1,-0.2423001378774643,1,-0.1383677124977112,1,0.05274913460016251,1,0.07423454523086548,1,-0.2257162779569626,1
1772056475725313280,0.07643716037273407,1,-0.1300536245107651,1,-0.1451385021209717,1,0.02773165889084339,1,0.04526051506400108,1,-0.2113820910453796,1
1772056475735081728,0.3088748157024384,1,0.01307622063905001,1,-0.0954778864979744,1,0.004240699578076601,1,0.007647942751646042,1,-0.2360629439353943,1
1772056475744756992,0.3922400176525116,1,0.08105628192424774,1,-0.06971822679042816,1,-0.006861669011414051,1,-0.02915010415017605,1,-0.2946959137916565,1
1772056475754339072,0.2610799074172974,1,0.03204220533370972,1,-0.05590789392590523,1,-0.02232133224606514,1,-0.05055691301822662,1,-0.3504071533679962,1
1772056475763827200,-0.003080056980252266,1,-0.04038609191775322,1,-0.03349307924509048,1,-0.03815002739429474,1,-0.05047755315899849,1,-0.378057599067688,1
1772056475773222912,-0.2535427212715149,1,-0.1444968283176422,1,-0.008210044354200363,1,-0.05626533925533295,1,-0.03127642720937729,1,-0.3642394840717316,1
1772056475782681088,-0.3506350815296173,1,-0.2109280824661255,1,0.04525063559412956,1,-0.08001430332660675,1,-0.009866748005151749,1,-0.3133415877819061,1
1772056475793428224,-0.2855740487575531,1,-0.2055191248655319,1,0.1987349689006805,1,-0.0936569944024086,1,0.003942630719393492,1,-0.2514564394950867,1
1772056475804071680,-0.05834248661994934,1,-0.08333353698253632,1,0.3484612107276917,1,-0.08232636004686356,1,0.01692267507314682,1,-0.2098451107740402,1
1772056475814612992,0.2094957530498505,1,0.03269720077514648,1,0.4477339088916779,1,-0.0515066459774971,1,0.02213214710354805,1,-0.2058590054512024,1
1772056475825052160,0.4340143799781799,1,0.1446719467639923,1,0.5161882638931274,1,-0.008412191644310951,1,0.02714977785944939,1,-0.2407313734292984,1
1772056475835388672,0.5387437343597412,1,0.1971376836299896,1,0.5201663970947266,1,0.04367566108703613,1,0.02971175312995911,1,-0.3077623546123505,1
1772056475845629696,0.4566696584224701,1,0.1050737202167511,1,0.4837154746055603,1,0.08607962727546692,1,0.03804315999150276,1,-0.3789890110492706,1
1772056475855770880,0.2236432433128357,1,-0.006924981251358986,1,0.4348843693733215,1,0.1245192363858223,1,0.06413112580776215,1,-0.4256271421909332,1
1772056475865814528,-0.04215030372142792,1,-0.1326172202825546,1,0.2973455488681793,1,0.1606398671865463,1,0.09217701107263565,1,-0.4393770098686218,1
1772056475875761152,-0.2017140686511993,1,-0.2407207936048508,1,0.06485877186059952,1,0.1767233163118362,1,0.09917713701725006,1,-0.4033813774585724,1
1772056475885611008,-0.2085428982973099,1,-0.2054971903562546,1,-0.1866079270839691,1,0.1584821343421936,1,0.07042114436626434,1,-0.3440535366535187,1
1772056475895363840,-0.1107936799526215,1,-0.08668201416730881,1,-0.3208941519260406,1,0.1130279153585434,1,0.02871589921414852,1,-0.2906944751739502,1
1772056475905023232,0.08427687734365463,1,0.09168105572462082,1,-0.3414827883243561,1,0.05836472287774086,1,-0.004736880771815777,1,-0.2562089562416077,1
1772056475914587904,0.2630497515201569,1,0.2838919758796692,1,-0.2615605592727661,1,0.008347542956471443,1,-0.03032221831381321,1,-0.2592771947383881,1
1772056475924059904,0.3426509201526642,1,0.3761373460292816,1,-0.1410494893789291,1,-0.02274763770401478,1,-0.04404452070593834,1,-0.2825088500976562,1
1772056475933438976,0.3561018705368042,1,0.4221239984035492,1,-0.04099482297897339,1,-0.04128634929656982,1,-0.05816979333758354,1,-0.3066792190074921,1
1772056475942877952,0.2828753590583801,1,0.4427536129951477,1,0.04994630068540573,1,-0.04810184985399246,1,-0.08452402800321579,1,-0.3310833871364594,1
1772056475953586176,0.1289185434579849,1,0.3914052546024323,1,0.1459183394908905,1,-0.03892016410827637,1,-0.1085217893123627,1,-0.3406389057636261,1
1772056475964189440,0.01179482694715261,1,0.3520642817020416,1,0.2518292963504791,1,-0.02415215969085693,1,-0.1057486981153488,1,-0.3274012804031372,1
1772056475974689280,-0.01490744575858116,1,0.4008912146091461,1,0.3846803903579712,1,0.005713650025427341,1,-0.07174999266862869,1,-0.3149412274360657,1
1772056475985085696,0.07058089226484299,1,0.4296926558017731,1,0.4018583595752716,1,0.05799431726336479,1,-0.02422415092587471,1,-0.3059453964233398,1
1772056475995382016,0.1936921030282974,1,0.5063511729240417,1,0.284628689289093,1,0.1090134233236313,1,0.0002378986682742834,1,-0.3147932291030884,1
1772056476005577984,0.1877920180559158,1,0.4553987681865692,1,0.1226816475391388,1,0.1511460840702057,1,0.01277492102235556,1,-0.3391985297203064,1
1772056476015673856,0.1432573348283768,1,0.3810374140739441,1,-0.1024821251630783,1,0.167957678437233,1,0.02492637373507023,1,-0.3545081913471222,1
1772056476025671168,0.08862418681383133,1,0.3142511546611786,1,-0.3289172947406769,1,0.1537267565727234,1,0.01830337755382061,1,-0.3721413314342499,1
1772056476035570944,-0.04234481975436211,1,0.1783261448144913,1,-0.4401105046272278,1,0.1086070835590363,1,-0.01368063129484653,1,-0.3839854896068573,1
1772056476045372672,-0.2232068628072739,1,0.08590156584978104,1,-0.3846737146377563,1,0.05808574706315994,1,-0.04837201163172722,1,-0.3714988827705383,1
1772056476055079424,-0.3556769192218781,1,0.009099684655666351,1,-0.2875536382198334,1,0.02556515112519264,1,-0.06815467774868011,1,-0.3372646570205688,1
1772056476064692224,-0.3429375290870667,1,-0.03907041624188423,1,-0.1905151754617691,1,-0.008886492811143398,1,-0.07587451487779617,1,-0.2932247817516327,1
1772056476074209280,-0.1958298087120056,1,0.00856044702231884,1,-0.05111973732709885,1,-0.03179100900888443,1,-0.08833134174346924,1,-0.265380322933197,1
1772056476083634176,0.05421825125813484,1,0.001849872525781393,1,0.0546206571161747,1,-0.03648240491747856,1,-0.1083128973841667,1,-0.254610538482666,1
1772056476092965376,0.3107831180095673,1,-0.03031429834663868,1,0.192423090338707,1,-0.04524599015712738,1,-0.1201583445072174,1,-0.271570235490799,1
1772056476102821120,0.4329843819141388,1,-0.01449614111334085,1,0.4212534129619598,1,-0.0277275126427412,1,-0.1014199778437614,1,-0.3406653106212616,1
1772056476113499136,0.4060964584350586,1,-0.09897744655609131,1,0.5341344475746155,1,0.0244474932551384,1,-0.06137308850884438,1,-0.4275273680686951,1
1772056476124072448,0.2564719021320343,1,-0.2453188300132751,1,0.5029796361923218,1,0.07758806645870209,1,-0.03437331318855286,1,-0.4934602975845337,1
1772056476134544128,0.0579146221280098,1,-0.3510496020317078,1,0.4431647956371307,1,0.1210824996232986,1,-0.01343548111617565,1,-0.5241431593894958,1
1772056476144912384,-0.01844969764351845,1,-0.4196594655513763,1,0.3049278855323792,1,0.1531461030244827,1,0.005883072968572378,1,-0.527169406414032,1
1772056476155180288,0.1206080913543701,1,-0.4560087919235229,1,0.1070424988865852,1,0.1509564518928528,1,0.004452595487236977,1,-0.5189588069915771,1
1772056476165346048,0.3700975775718689,1,-0.40831458568573,1,-0.01592691615223885,1,0.1239070743322372,1,-0.02720168046653271,1,-0.5397703647613525,1
1772056476175411200,0.5597401261329651,1,-0.4018383324146271,1,-0.03922978788614273,1,0.08594685047864914,1,-0.0788273885846138,1,-0.5977210402488708,1
1772056476185378048,0.5944314002990723,1,-0.4574543833732605,1,0.04632966592907906,1,0.04731025174260139,1,-0.1151869669556618,1,-0.6686063408851624,1
1772056476195250176,0.495617002248764,1,-0.5535279512405396,1,0.2033789604902267,1,0.01489557139575481,1,-0.1083849519491196,1,-0.7418026924133301,1
1772056476205025536,0.342976838350296,1,-0.6135998964309692,1,0.3491251468658447,1,-0.01374551746994257,1,-0.08297788351774216,1,-0.8209559321403503,1
1772056476214705152,0.1889353096485138,1,-0.747853696346283,1,0.4486997723579407,1,-0.02287042327225208,1,-0.09106069058179855,1,-0.8703043460845947,1
1772056476224288512,0.08265735954046249,1,-0.8390266299247742,1,0.5495750308036804,1,-0.03425798565149307,1,-0.1376895308494568,1,-0.8846156001091003,1
1772056476233778688,0.02172979712486267,1,-0.8417868614196777,1,0.70513516664505,1,-0.03393449261784554,1,-0.2159883975982666,1,-0.9066303968429565,1
1772056476243174656,-0.01015673018991947,1,-0.923166036605835,1,0.8657962083816528,1,-0.01840819604694843,1,-0.3049375116825104,1,-0.9205345511436462,1
1772056476252478464,0.06490707397460938,1,-0.9035587906837463,1,1.016247630119324,1,0.006296311039477587,1,-0.3905046880245209,1,-0.9212117791175842,1
1772056476262930688,0.208645224571228,1,-0.881755530834198,1,1.151963353157043,1,0.04811794683337212,1,-0.4434657096862793,1,-0.9308649301528931,1
1772056476273590016,0.3614473342895508,1,-0.7043253779411316,1,1.186472058296204,1,0.1066690906882286,1,-0.4423560202121735,1,-0.9760894179344177,1
1772056476284144128,0.2753605544567108,1,-0.6321446299552917,1,1.095959901809692,1,0.1739208400249481,1,-0.3892829716205597,1,-1.064692258834839,1
1772056476294596096,-0.02929790690541267,1,-0.7217210531234741,1,0.8673479557037354,1,0.2358057498931885,1,-0.2886219918727875,1,-1.134864568710327,1
1772056476304943616,-0.3870491981506348,1,-0.8887001872062683,1,0.5225375890731812,1,0.2692951261997223,1,-0.1676251888275146,1,-1.162288069725037,1
1772056476315191040,-0.5824633836746216,1,-1.153308987617493,1,0.07016995549201965,1,0.2543702721595764,1,-0.07517331093549728,1,-1.126975774765015,1
1772056476325336320,-0.514051079750061,1,-1.281847596168518,1,-0.3812528848648071,1,0.1818443089723587,1,-0.06840554624795914,1,-1.05345618724823,1
1772056476335380992,-0.2792216539382935,1,-1.291588187217712,1,-0.590862512588501,1,0.06855776160955429,1,-0.1521104574203491,1,-0.9911094903945923,1
1772056476345327872,-0.04624100029468536,1,-1.160294532775879,1,-0.4865671694278717,1,-0.03698524460196495,1,-0.2635371387004852,1,-0.9742136001586914,1
1772056476355175680,0.03097528032958508,1,-1.048852562904358,1,-0.2538357675075531,1,-0.1015719100832939,1,-0.3647031188011169,1,-1.012712717056274,1
1772056476364926720,-0.07280031591653824,1,-1.083086848258972,1,-0.02267426811158657,1,-0.1240788400173187,1,-0.4407900869846344,1,-1.044079542160034,1
1772056476374585088,-0.2480160892009735,1,-1.091398119926453,1,0.1522221267223358,1,-0.1245044022798538,1,-0.4799868166446686,1,-1.047006607055664,1
1772056476384169728,-0.4192844331264496,1,-1.118568658828735,1,0.2689745724201202,1,-0.1129554659128189,1,-0.4805262982845306,1,-1.032021760940552,1
1772056476393659136,-0.329945296049118,1,-1.133869767189026,1,0.1844079196453094,1,-0.09612353146076202,1,-0.4694496393203735,1,-0.9785710573196411,1
1772056476403056384,-0.04069744795560837,1,-1.056894659996033,1,0.06487683206796646,1,-0.1094251424074173,1,-0.4795546233654022,1,-0.9412881135940552,1
1772056476412513792,0.2223638296127319,1,-0.883563220500946,1,0.140946552157402,1,-0.1300737261772156,1,-0.4672076404094696,1,-0.9495558142662048,1
1772056476423254272,0.3990772366523743,1,-0.698614239692688,1,0.2567245066165924,1,-0.1342307478189468,1,-0.4119549095630646,1,-1.007611632347107,1
1772056476433888512,0.2950260043144226,1,-0.5887562036514282,1,0.392027735710144,1,-0.1071568801999092,1,-0.3434159159660339,1,-1.106165647506714,1
1772056476444419328,-0.1115077584981918,1,-0.6537487506866455,1,0.4774045944213867,1,-0.04650004208087921,1,-0.2489895820617676,1,-1.180302739143372,1
1772056476454848256,-0.4596159160137177,1,-0.7464326024055481,1,0.3259504735469818,1,0.02768941782414913,1,-0.1549471765756607,1,-1.186333417892456,1
1772056476465175808,-0.6028928160667419,1,-0.8490028977394104,1,-0.01704298332333565,1,0.06857073307037354,1,-0.1168173626065254,1,-1.140506267547607,1
1772056476475403008,-0.4893963634967804,1,-0.9295356869697571,1,-0.399148017168045,1,0.05636022612452507,1,-0.15763920545578,1,-1.063029408454895,1
1772056476485527808,-0.1984432935714722,1,-0.8199094533920288,1,-0.6473427414894104,1,-0.003765684086829424,1,-0.2658658623695374,1,-0.9967653155326843,1
1772056476495553024,0.04673030599951744,1,-0.6533305048942566,1,-0.5805308222770691,1,-0.08477284014225006,1,-0.3685056865215302,1,-0.9725499153137207,1
1772056476505480192,0.2005042731761932,1,-0.4524983465671539,1,-0.313046783208847,1,-0.1378399729728699,1,-0.4013224840164185,1,-0.9873229265213013,1
1772056476515309056,0.2446834892034531,1,-0.3396893739700317,1,-0.04987424612045288,1,-0.1484785825014114,1,-0.3560929298400879,1,-1.036194443702698,1
1772056476525042432,0.2224286496639252,1,-0.367952823638916,1,0.1455540060997009,1,-0.1312682330608368,1,-0.2698219418525696,1,-1.089629888534546,1
1772056476534678784,0.1846155673265457,1,-0.4519349336624146,1,0.2496821880340576,1,-0.08248843997716904,1,-0.1877568811178207,1,-1.131039977073669,1
1772056476544219136,0.1738427728414536,1,-0.5818986892700195,1,0.1769752502441406,1,-0.02196597307920456,1,-0.1479820609092712,1,-1.161296725273132,1
1772056476553666816,0.1410712748765945,1,-0.6931509971618652,1,-0.002303993329405785,1,0.02148409374058247,1,-0.1673722863197327,1,-1.174209594726562,1
1772056476563020544,-0.01909147948026657,1,-0.778718888759613,1,-0.1498742401599884,1,0.0393793098628521,1,-0.2104194015264511,1,-1.174727916717529,1
1772056476572436224,-0.1558061093091965,1,-0.8918039202690125,1,-0.2852523326873779,1,0.03319163247942924,1,-0.2387417554855347,1,-1.141526579856873,1
1772056476583147520,-0.1173197031021118,1,-0.951804518699646,1,-0.3982677161693573,1,0.001366296783089638,1,-0.2563866674900055,1,-1.087748765945435,1
1772056476593754112,0.07449544966220856,1,-0.918469250202179,1,-0.3889028131961823,1,-0.03846150636672974,1,-0.2523489594459534,1,-1.045968532562256,1
1772056476604258560,0.3646396994590759,1,-0.8310949802398682,1,-0.3710888624191284,1,-0.06531612575054169,1,-0.2274484783411026,1,-1.037155508995056,1
1772056476614660608,0.4503231048583984,1,-0.7192435264587402,1,-0.3269589841365814,1,-0.07594098895788193,1,-0.1783272475004196,1,-1.088310718536377,1
1772056476624961792,0.236469030380249,1,-0.7720361948013306,1,-0.3090814650058746,1,-0.0680001899600029,1,-0.08539985120296478,1,-1.151550054550171,1
1772056476635163136,0.03686198219656944,1,-0.9162779450416565,1,-0.5080612301826477,1,-0.05928068235516548,1,-0.003195543773472309,1,-1.165703415870667,1
1772056476645266432,-0.051111850887537,1,-0.9814761877059937,1,-0.7347492575645447,1,-0.07925499230623245,1,0.003666057251393795,1,-1.137369751930237,1
1772056476655274752,0.04755398631095886,1,-0.9632928967475891,1,-0.8745765686035156,1,-0.1250641494989395,1,-0.05508574098348618,1,-1.081238865852356,1
1772056476665185024,0.3799508810043335,1,-0.8222994804382324,1,-0.8882191777229309,1,-0.1857050508260727,1,-0.1556901633739471,1,-1.034501791000366,1
1772056476674999296,0.7681998610496521,1,-0.5958152413368225,1,-0.713836669921875,1,-0.2546790838241577,1,-0.2476952970027924,1,-1.027802109718323,1
1772056476684717824,0.9482480883598328,1,-0.3379385769367218,1,-0.3468204736709595,1,-0.3013563752174377,1,-0.2700972557067871,1,-1.099790334701538,1
1772056476694340864,0.8320464491844177,1,-0.1993907392024994,1,0.03714542463421822,1,-0.2974274456501007,1,-0.2077376395463943,1,-1.222517013549805,1
1772056476703869184,0.4603905081748962,1,-0.3155640959739685,1,0.2514720857143402,1,-0.2523882985115051,1,-0.1122194230556488,1,-1.327753067016602,1
1772056476713305344,0.1013992205262184,1,-0.4828671514987946,1,0.2736819982528687,1,-0.1885161697864532,1,-0.04078780114650726,1,-1.352279305458069,1
1772056476722647552,-0.1431779116392136,1,-0.5918695330619812,1,0.1629574000835419,1,-0.1205276623368263,1,-0.02808907814323902,1,-1.323141932487488,1
1772056476732662272,-0.2908284068107605,1,-0.6615161299705505,1,0.04053516685962677,1,-0.07350953668355942,1,-0.04130450263619423,1,-1.278371214866638,1
1772056476743341056,-0.2600346207618713,1,-0.7227431535720825,1,-0.1279459297657013,1,-0.05507919937372208,1,-0.0722077488899231,1,-1.2284255027771,1
1772056476753915648,-0.1154852509498596,1,-0.7063928842544556,1,-0.2136771678924561,1,-0.05622385442256927,1,-0.1198861449956894,1,-1.181445002555847,1
1772056476764387840,0.05094525218009949,1,-0.6684146523475647,1,-0.2055855840444565,1,-0.0622650608420372,1,-0.134323850274086,1,-1.158177375793457,1
1772056476774755840,0.2454866319894791,1,-0.5995002388954163,1,-0.1945826858282089,1,-0.07748505473136902,1,-0.09269979596138,1,-1.166093230247498,1
1772056476785023744,0.3305957019329071,1,-0.5505202412605286,1,-0.1452812999486923,1,-0.09886491298675537,1,-0.02884123474359512,1,-1.213718295097351,1
1772056476795190784,0.2845262885093689,1,-0.6098158955574036,1,-0.05647357553243637,1,-0.1119763851165771,1,0.02221428044140339,1,-1.258481979370117,1
1772056476805256704,0.2721984386444092,1,-0.6132398247718811,1,0.01766877062618732,1,-0.1199233457446098,1,0.02559541538357735,1,-1.281007766723633,1
1772056476815225088,0.3281205594539642,1,-0.5921942591667175,1,0.1167827174067497,1,-0.1233556494116783,1,-0.02688018977642059,1,-1.295171737670898,1
1772056476825094656,0.3894458115100861,1,-0.5635982155799866,1,0.2546565532684326,1,-0.1204729676246643,1,-0.08882554620504379,1,-1.312691569328308,1
1772056476834865664,0.4166162610054016,1,-0.5090427398681641,1,0.340625673532486,1,-0.1099150627851486,1,-0.1288279145956039,1,-1.349575996398926,1
1772056476844541696,0.290561854839325,1,-0.5673183798789978,1,0.3821845948696136,1,-0.09382830560207367,1,-0.1535424441099167,1,-1.390153169631958,1
1772056476854121728,0.03959100320935249,1,-0.6551604866981506,1,0.4368194937705994,1,-0.06903951615095139,1,-0.1583723425865173,1,-1.401876449584961,1
1772056476863607040,-0.1843854486942291,1,-0.7472792863845825,1,0.4217386841773987,1,-0.02402529120445251,1,-0.1319230198860168,1,-1.377871632575989,1
1772056476873000192,-0.2156422883272171,1,-0.8641868233680725,1,0.2526393532752991,1,0.007434126455336809,1,-0.08902266621589661,1,-1.329391479492188,1
1772056476882299392,-0.01561741717159748,1,-0.8575714826583862,1,0.07691970467567444,1,0.01681057177484035,1,-0.05718782544136047,1,-1.278623461723328,1
1772056476892751616,0.3382464647293091,1,-0.7361577749252319,1,-0.07522876560688019,1,0.01936584897339344,1,-0.0289812758564949,1,-1.249860048294067,1
1772056476903412992,0.6338306665420532,1,-0.5441294312477112,1,-0.2569114565849304,1,-0.0005898266099393368,1,-0.008088996633887291,1,-1.293662905693054,1
1772056476913969920,0.6121171712875366,1,-0.4816229641437531,1,-0.3432148993015289,1,-0.04452063143253326,1,0.006432082504034042,1,-1.379757165908813,1
1772056476924423680,0.3711861968040466,1,-0.4601171314716339,1,-0.3561383187770844,1,-0.09198764711618423,1,0.008753933012485504,1,-1.445744514465332,1
1772056476934780160,-0.04766907542943954,1,-0.4634453058242798,1,-0.2205281406641006,1,-0.1218424737453461,1,-0.002298357663676143,1,-1.481664538383484,1
1772056476945038336,-0.4572581946849823,1,-0.466125875711441,1,-0.04779698699712753,1,-0.1276839375495911,1,0.01212017424404621,1,-1.460759162902832,1
1772056476955196416,-0.7661407589912415,1,-0.4673535823822021,1,0.07521171867847443,1,-0.1185086965560913,1,0.04193573817610741,1,-1.407487630844116,1
1772056476965253120,-0.9204012155532837,1,-0.589017927646637,1,0.1368025839328766,1,-0.1056770458817482,1,0.08167083561420441,1,-1.316605091094971,1
1772056476975211776,-0.703612208366394,1,-0.6449214816093445,1,0.09349501132965088,1,-0.1110348254442215,1,0.09826137125492096,1,-1.196766138076782,1
1772056476985073920,-0.3025365769863129,1,-0.6426852941513062,1,0.1886182129383087,1,-0.1372317224740982,1,0.08541058003902435,1,-1.10374903678894,1
1772056476994838016,0.07611048221588135,1,-0.5531044006347656,1,0.4265843629837036,1,-0.1518591046333313,1,0.09254543483257294,1,-1.069708108901978,1
1772056477004509696,0.3137364089488983,1,-0.398872584104538,1,0.5819792151451111,1,-0.1181954443454742,1,0.1200831457972527,1,-1.10965096950531,1
1772056477014084864,0.1708530485630035,1,-0.5149137377738953,1,0.611750602722168,1,-0.07036902755498886,1,0.1688413918018341,1,-1.188950419425964,1
1772056477023567360,-0.1924388706684113,1,-0.666348397731781,1,0.5447726845741272,1,-0.03416143357753754,1,0.240670457482338,1,-1.233036041259766,1
1772056477032955392,-0.578707754611969,1,-0.7452524900436401,1,0.4464606046676636,1,-0.01187130901962519,1,0.2942956984043121,1,-1.224572062492371,1
1772056477042406912,-0.8564985990524292,1,-0.8493846654891968,1,0.334933876991272,1,-0.002204058459028602,1,0.3159091174602509,1,-1.160129070281982,1
1772056477053149184,-0.8686856031417847,1,-0.8862400650978088,1,0.2165585458278656,1,-0.02121280319988728,1,0.2900867462158203,1,-1.05492103099823,1
1772056477063788544,-0.6980423331260681,1,-0.78254234790802,1,0.2785331904888153,1,-0.05482133850455284,1,0.2166415750980377,1,-0.9641316533088684,1
1772056477074325504,-0.5470437407493591,1,-0.7169656753540039,1,0.5494386553764343,1,-0.08456898480653763,1,0.1356828808784485,1,-0.917123019695282,1
1772056477084760064,-0.5057140588760376,1,-0.668339729309082,1,0.9468712210655212,1,-0.06711597740650177,1,0.07477499544620514,1,-0.8854833841323853,1
1772056477095092736,-0.5382972955703735,1,-0.6590774059295654,1,1.323792457580566,1,0.01208027079701424,1,0.07471100986003876,1,-0.8429546356201172,1
1772056477105326336,-0.5166309475898743,1,-0.5729448199272156,1,1.493464708328247,1,0.1370383352041245,1,0.1551138907670975,1,-0.8111209273338318,1
1772056477115467520,-0.4118161499500275,1,-0.4986843466758728,1,1.358736157417297,1,0.2668923437595367,1,0.2822918891906738,1,-0.7988904118537903,1
1772056477125509376,-0.3024152815341949,1,-0.415777325630188,1,1.024726390838623,1,0.3617759943008423,1,0.394338458776474,1,-0.8193383812904358,1
1772056477135452672,-0.2150087058544159,1,-0.4380048811435699,1,0.6059195399284363,1,0.4079824686050415,1,0.4528980255126953,1,-0.8413330912590027,1
1772056477145299456,-0.1466889381408691,1,-0.4047684967517853,1,0.2452361285686493,1,0.3947282731533051,1,0.4302644431591034,1,-0.8622027039527893,1
1772056477155050752,-0.198564276099205,1,-0.399425595998764,1,0.06900565326213837,1,0.3429988920688629,1,0.3588963449001312,1,-0.8810474872589111,1
1772056477164706560,-0.2933455407619476,1,-0.3954246044158936,1,0.04846992343664169,1,0.2657471001148224,1,0.2933987379074097,1,-0.8826678395271301,1
1772056477174269440,-0.413738876581192,1,-0.2749705016613007,1,0.1579676270484924,1,0.1925782263278961,1,0.2537017166614532,1,-0.8759759068489075,1
1772056477183740160,-0.5794030427932739,1,-0.2620510160923004,1,0.2721588015556335,1,0.1405001431703568,1,0.2438750267028809,1,-0.8522415161132812,1
1772056477193118720,-0.628246009349823,1,-0.2510841190814972,1,0.3568356037139893,1,0.0865255668759346,1,0.2395789921283722,1,-0.7958794236183167,1
1772056477202710016,-0.6303179264068604,1,-0.1457720845937729,1,0.6108538508415222,1,0.05874601379036903,1,0.2406829297542572,1,-0.7287072539329529,1
1772056477213417984,-0.5482277870178223,1,0.004110965877771378,1,0.9184891581535339,1,0.06894195079803467,1,0.2931885719299316,1,-0.6758618354797363,1
1772056477224022016,-0.342625766992569,1,0.1948999315500259,1,1.068005681037903,1,0.1300363838672638,1,0.3383764028549194,1,-0.6657626628875732,1
1772056477234522624,-0.1870068311691284,1,0.3113631308078766,1,1.006889820098877,1,0.2304839044809341,1,0.331704318523407,1,-0.6509734392166138,1
1772056477244923392,-0.04351859539747238,1,0.4333451688289642,1,0.7745145559310913,1,0.3259015083312988,1,0.3075587749481201,1,-0.638288140296936,1
1772056477255224064,0.1002919748425484,1,0.5322495698928833,1,0.4145678579807281,1,0.4005454182624817,1,0.3016105592250824,1,-0.6367672085762024,1
1772056477265423616,0.3084387183189392,1,0.5329723358154297,1,-0.09581826627254486,1,0.4201844036579132,1,0.3029278218746185,1,-0.63331538438797,1
1772056477275523328,0.5947233438491821,1,0.5276681780815125,1,-0.614052951335907,1,0.3592599034309387,1,0.2591498196125031,1,-0.6419563293457031,1
1772056477285525248,0.7495626211166382,1,0.6052802801132202,1,-0.8586386442184448,1,0.2460363954305649,1,0.1733806729316711,1,-0.6888713836669922,1
1772056477295430144,0.5616348385810852,1,0.734529972076416,1,-0.8436539769172668,1,0.1471771746873856,1,0.1021420583128929,1,-0.7712712287902832,1
1772056477305236992,0.138557642698288,1,0.7490339875221252,1,-0.8227024674415588,1,0.0740162655711174,1,0.05212392657995224,1,-0.8445166349411011,1
1772056477314950144,-0.3633149862289429,1,0.8409346342086792,1,-0.8132388591766357,1,0.01730567775666714,1,-0.01483436208218336,1,-0.8578993082046509,1
1772056477324567040,-0.8879363536834717,1,0.9421601891517639,1,-0.7301762700080872,1,-0.02615747042000294,1,-0.08428440243005753,1,-0.8106449246406555,1
1772056477334090752,-1.255246520042419,1,1.048797130584717,1,-0.6295538544654846,1,-0.06132467091083527,1,-0.1100175157189369,1,-0.7040215134620667,1
1772056477343520512,-1.377749681472778,1,1.157556176185608,1,-0.5928844213485718,1,-0.08272773027420044,1,-0.1009675711393356,1,-0.5819082260131836,1
1772056477352878592,-1.429340600967407,1,1.117694139480591,1,-0.59603351354599,1,-0.09489046782255173,1,-0.05465874075889587,1,-0.4632896482944489,1
1772056477362899712,-1.342286109924316,1,0.9432701468467712,1,-0.6780719757080078,1,-0.1218229979276657,1,0.03484731540083885,1,-0.3365419507026672,1
1772056477373575424,-1.061621427536011,1,0.8285893201828003,1,-0.7580568790435791,1,-0.166131466627121,1,0.1122521162033081,1,-0.2176901698112488,1
1772056477384147712,-0.6780311465263367,1,0.7369938492774963,1,-0.7633808255195618,1,-0.1970829963684082,1,0.1450867205858231,1,-0.1295639872550964,1
1772056477394615296,-0.1627960801124573,1,0.6789894104003906,1,-0.8433917760848999,1,-0.2146891951560974,1,0.1224035248160362,1,-0.07452084869146347,1
1772056477404978176,0.334546685218811,1,0.7167667150497437,1,-0.9757577776908875,1,-0.2267475873231888,1,0.03386250138282776,1,-0.07012099772691727,1
1772056477415242496,0.5545579791069031,1,0.7017188668251038,1,-1.090688943862915,1,-0.2504344284534454,1,-0.06069131568074226,1,-0.1245449110865593,1
1772056477425405696,0.5365141630172729,1,0.5161240696907043,1,-1.150283575057983,1,-0.3029697835445404,1,-0.1032331138849258,1,-0.19048672914505,1
1772056477435467264,0.3706745505332947,1,0.34242182970047,1,-0.9952108263969421,1,-0.379010409116745,1,-0.08784108608961105,1,-0.2274564206600189,1
1772056477445431552,0.1815950572490692,1,0.2701322138309479,1,-0.6303707361221313,1,-0.4223009645938873,1,-0.03792525827884674,1,-0.2363344877958298,1
1772056477455296512,0.05350010469555855,1,0.1373308748006821,1,-0.2313851565122604,1,-0.405267745256424,1,0.02456912212073803,1,-0.2114205956459045,1
1772056477465063936,0.1058915480971336,1,0.1053275167942047,1,0.02430244907736778,1,-0.3374716341495514,1,0.08927342295646667,1,-0.1745750308036804,1
1772056477474735872,0.2686400711536407,1,0.09560307860374451,1,0.05909683182835579,1,-0.241675466299057,1,0.1390948891639709,1,-0.1679076105356216,1
1772056477484311552,0.4695030152797699,1,0.0349523201584816,1,-0.06803086400032043,1,-0.1702206879854202,1,0.1828427165746689,1,-0.1918094903230667,1
1772056477493794560,0.7088146209716797,1,0.08048664778470993,1,-0.2327382266521454,1,-0.1436343938112259,1,0.2068292498588562,1,-0.2490449547767639,1
1772056477503183360,0.8426385521888733,1,0.1448092460632324,1,-0.3107241094112396,1,-0.1536483019590378,1,0.1850754469633102,1,-0.3527738749980927,1
1772056477512478464,0.7361053228378296,1,0.191177561879158,1,-0.2332021296024323,1,-0.1769783347845078,1,0.1130239516496658,1,-0.4750763177871704,1
1772056477522926080,0.4187129735946655,1,0.2617883086204529,1,-0.09250841289758682,1,-0.186828151345253,1,-0.002174847759306431,1,-0.5799846649169922,1
1772056477533581824,-0.1220675557851791,1,0.2670228481292725,1,0.04807354137301445,1,-0.1772049367427826,1,-0.1265151351690292,1,-0.6559499502182007,1
1772056477544132864,-0.7092882990837097,1,0.1384942680597305,1,0.1301082074642181,1,-0.1606575548648834,1,-0.2072584331035614,1,-0.6723747253417969,1
1772056477554580224,-1.113794088363647,1,0.02992050349712372,1,0.08846899121999741,1,-0.1512344032526016,1,-0.2527534365653992,1,-0.6226343512535095,1
1772056477564922880,-1.326850175857544,1,-0.01757776737213135,1,0.05724541842937469,1,-0.16644586622715,1,-0.2870069742202759,1,-0.554706871509552,1
1772056477575163904,-1.400238275527954,1,0.02145657874643803,1,0.1666021198034286,1,-0.1926101744174957,1,-0.3022007048130035,1,-0.49199378490448,1
1772056477585304064,-1.440757870674133,1,0.1184126436710358,1,0.3822495341300964,1,-0.2053547948598862,1,-0.2934033572673798,1,-0.4540517926216125,1
1772056477595344128,-1.608977556228638,1,0.1399388313293457,1,0.6622399687767029,1,-0.1928418576717377,1,-0.2541890442371368,1,-0.4385112524032593,1
1772056477605288704,-1.787925839424133,1,0.05699961632490158,1,0.8774715662002563,1,-0.1383862048387527,1,-0.1834433972835541,1,-0.3876522779464722,1
1772056477615135488,-1.790659189224243,1,-0.02327556721866131,1,0.8849720358848572,1,-0.06229878216981888,1,-0.1283942461013794,1,-0.3045782148838043,1
1772056477624885760,-1.671992301940918,1,-0.05621718987822533,1,0.8087436556816101,1,0.006931446027010679,1,-0.1186703592538834,1,-0.2271921336650848,1
1772056477634539264,-1.434086441993713,1,0.001231236383318901,1,0.7104096412658691,1,0.06340436637401581,1,-0.1162565723061562,1,-0.1650153994560242,1
1772056477644096768,-1.083023309707642,1,0.1713629364967346,1,0.5609440207481384,1,0.1002673953771591,1,-0.1133257448673248,1,-0.1490781754255295,1
1772056477653561600,-0.7533921599388123,1,0.2909890413284302,1,0.380609929561615,1,0.1320245563983917,1,-0.166408583521843,1,-0.1949886530637741,1
1772056477662932480,-0.6856481432914734,1,0.2850169539451599,1,0.150118887424469,1,0.1566099226474762,1,-0.2842018306255341,1,-0.246364414691925,1
1772056477672367104,-0.8029167056083679,1,0.09712699055671692,1,-0.04011106118559837,1,0.1489843875169754,1,-0.416310042142868,1,-0.2693575322628021,1
1772056477683107584,-0.9273139238357544,1,-0.01018447987735271,1,-0.07118837535381317,1,0.1076064258813858,1,-0.491788238286972,1,-0.2523757517337799,1
1772056477693743616,-0.8906055688858032,1,-0.006797179114073515,1,-0.01082983333617449,1,0.06010603904724121,1,-0.5041815638542175,1,-0.2261562496423721,1
1772056477704276480,-0.7250880002975464,1,-0.03516942635178566,1,0.1381796300411224,1,0.01332444604486227,1,-0.4920769929885864,1,-0.2144951671361923,1
1772056477714706688,-0.4722971618175507,1,0.01385670341551304,1,0.3742782175540924,1,-0.008055108599364758,1,-0.4942829012870789,1,-0.2176891565322876,1
1772056477725035264,-0.220758855342865,1,0.1179914847016335,1,0.6292696595191956,1,0.01833623833954334,1,-0.5253850817680359,1,-0.2463181614875793,1
1772056477735264256,-0.1345342993736267,1,0.1522181779146194,1,0.8512975573539734,1,0.07668724656105042,1,-0.5470696091651917,1,-0.3102119565010071,1
1772056477745391616,-0.2625901997089386,1,0.09100817143917084,1,1.007610440254211,1,0.1467405408620834,1,-0.5261757969856262,1,-0.4063478708267212,1
1772056477755426304,-0.6344218254089355,1,-0.006314130499958992,1,1.049682974815369,1,0.2323738187551498,1,-0.4825303256511688,1,-0.5078681707382202,1
1772056477765363456,-1.169287204742432,1,-0.2639430165290833,1,0.8747906684875488,1,0.3287477195262909,1,-0.4534425139427185,1,-0.5816724300384521,1
1772056477775203584,-1.631002426147461,1,-0.594765841960907,1,0.4567712843418121,1,0.3930984139442444,1,-0.495805561542511,1,-0.565110981464386,1
1772056477784947712,-1.863033652305603,1,-0.7269948124885559,1,0.01390596106648445,1,0.3922414183616638,1,-0.6201744079589844,1,-0.4634545147418976,1
1772056477794596608,-1.923213958740234,1,-0.6539812684059143,1,-0.1372447311878204,1,0.3436185121536255,1,-0.756693959236145,1,-0.3343026340007782,1
1772056477804150784,-1.83421790599823,1,-0.5072240233421326,1,0.03475851565599442,1,0.2887755930423737,1,-0.789207398891449,1,-0.2166618555784225,1
1772056477813611008,-1.651279330253601,1,-0.2377428710460663,1,0.2576009631156921,1,0.2808131575584412,1,-0.6990551948547363,1,-0.1445588767528534,1
1772056477822981120,-1.46839451789856,1,-0.2112949639558792,1,0.2476492822170258,1,0.3085505068302155,1,-0.5392980575561523,1,-0.1048286855220795,1
