Time,inertial-6286.188861:estLinearAccelX,inertial-6286.188861:estLinearAccelX:valid,inertial-6286.188861:estLinearAccelY,inertial-6286.188861:estLinearAccelY:valid,inertial-6286.188861:estLinearAccelZ,inertial-6286.188861:estLinearAccelZ:valid
1771618493465601280,-0.001893077278509736,1,0.005617950577288866,1,0.03897024318575859,1
1771618493475593472,-0.002447365550324321,1,0.00507093220949173,1,0.03985768929123878,1
1771618493485575680,-0.003090736689046025,1,0.004888684488832951,1,0.04163457080721855,1
1771618493495547904,-0.002202939242124557,1,0.005275256931781769,1,0.03956495597958565,1
1771618493505510400,-0.001058242400176823,1,0.007140146102756262,1,0.03978936374187469,1
1771618493515463168,-0.0009233272285200655,1,0.006294352933764458,1,0.03992071747779846,1
1771618493525405952,-0.001688639400526881,1,0.006157028954476118,1,0.03854516893625259,1
1771618493535339008,-0.002316102618351579,1,0.006444619037210941,1,0.04115364328026772,1
1771618493545262336,-0.0005656217690557241,1,0.007859193719923496,1,0.03925887867808342,1
1771618493555175936,-0.001391830272041261,1,0.004905884619802237,1,0.03947928920388222,1
1771618493565079552,-0.002348841167986393,1,0.00624751066789031,1,0.04155616089701653,1
1771618493574973696,-0.004992256872355938,1,0.007046972867101431,1,0.03977600112557411,1
1771618493584858368,-0.004264687653630972,1,0.005282217636704445,1,0.04105329141020775,1
1771618493594967040,-0.002584194764494896,1,0.002990358974784613,1,0.04024096950888634,1
1771618493605065472,-0.0005512827774509788,1,0.006549111567437649,1,0.04194252192974091,1
1771618493615154176,0.0004870474222116172,1,0.007383842021226883,1,0.041054867208004,1
1771618493625232640,0.0002240660251118243,1,0.01044454984366894,1,0.04172485694289207,1
1771618493635301376,-0.0009912804234772921,1,0.01032053679227829,1,0.04210783541202545,1
1771618493645359872,-0.001397196436300874,1,0.008570903912186623,1,0.04247047007083893,1
1771618493655408896,-0.001239865669049323,1,0.006781895644962788,1,0.04034269973635674,1
1771618493665447936,-0.001885772566311061,1,0.00713585689663887,1,0.04172364249825478,1
1771618493675476736,-0.002995614660903811,1,0.006006953306496143,1,0.03885123506188393,1
1771618493685496064,-0.00201547029428184,1,0.00804588757455349,1,0.03991352394223213,1
1771618493695505408,-0.00215411395765841,1,0.008883947506546974,1,0.04067922756075859,1
1771618493705504768,-0.001593282446265221,1,0.007471771910786629,1,0.04217337816953659,1
1771618493715494144,-0.002219625748693943,1,0.01017586793750525,1,0.04043277725577354,1
1771618493725473792,-0.000446996302343905,1,0.008865185081958771,1,0.04043096676468849,1
1771618493735443456,-0.001276408671401441,1,0.009399466216564178,1,0.0422273613512516,1
1771618493745403136,-0.002528874203562737,1,0.00823681429028511,1,0.03909799829125404,1
1771618493755353344,-0.001188923022709787,1,0.007240423932671547,1,0.03954773396253586,1
1771618493765293568,9.861908620223403e-05,1,0.004897641483694315,1,0.04108418151736259,1
1771618493775223552,-0.0006017391569912434,1,0.007989101111888885,1,0.04290586337447166,1
1771618493785144064,-0.0004369513771962374,1,0.006884858477860689,1,0.04343561083078384,1
1771618493795055872,0.0004524701507762074,1,0.0065495315939188,1,0.0422576330602169,1
1771618493804957696,0.0003130145778413862,1,0.006651747040450573,1,0.04113186895847321,1
1771618493814849536,8.226071804529056e-05,1,0.005984697956591845,1,0.04070908203721046,1
1771618493824731648,-0.001444212277419865,1,0.00842643715441227,1,0.03945241868495941,1
1771618493834839040,-0.001151518546976149,1,0.008684092201292515,1,0.04098261520266533,1
1771618493844936448,-0.001974041806533933,1,0.00697450852021575,1,0.04079250991344452,1
1771618493855024128,-0.002447417704388499,1,0.00704204011708498,1,0.04227841645479202,1
1771618493865101568,-0.001168762100860476,1,0.005558639299124479,1,0.04015346989035606,1
1771618493875169280,-0.0004358893784228712,1,0.007542381063103676,1,0.04120821505784988,1
1771618493885226752,-0.000750084116589278,1,0.005592720117419958,1,0.04167931154370308,1
1771618493895274496,-0.0009966351790353656,1,0.005346055142581463,1,0.04141554236412048,1
1771618493905312768,-0.001495014410465956,1,0.006528044119477272,1,0.04057063534855843,1
1771618493915340800,-0.001822527730837464,1,0.008836088702082634,1,0.04216203838586807,1
1771618493925358848,-0.001641431939788163,1,0.009945283643901348,1,0.04128922522068024,1
1771618493935367424,-0.001510225585661829,1,0.009019113145768642,1,0.04225287586450577,1
1771618493945366016,-0.002300411462783813,1,0.008731149137020111,1,0.04325255006551743,1
1771618493955354368,0.0008225010242313147,1,0.007825677283108234,1,0.04215967655181885,1
1771618493965333248,-0.0008780589560046792,1,0.007121977861970663,1,0.03993697091937065,1
1771618493975302144,-0.002522008027881384,1,0.009311171248555183,1,0.03924244269728661,1
1771618493985260800,-0.002221802715212107,1,0.009780284948647022,1,0.0393049530684948,1
1771618493995209984,-0.001942060887813568,1,0.0101103475317359,1,0.03963788226246834,1
1771618494005149184,-0.001190892304293811,1,0.009072812274098396,1,0.04245338588953018,1
1771618494015078400,0.0005275177536532283,1,0.008937778882682323,1,0.04219552874565125,1
1771618494024997888,0.0004298784479033202,1,0.01056849863380194,1,0.04146087542176247,1
1771618494034907392,-0.0003748091985471547,1,0.01044282130897045,1,0.03930375352501869,1
1771618494044807168,0.0009406014578416944,1,0.008369817398488522,1,0.03743231669068336,1
1771618494054696960,0.001119120395742357,1,0.007602527737617493,1,0.03916533663868904,1
1771618494064814080,-0.0009227393311448395,1,0.005817653145641088,1,0.03943399339914322,1
1771618494074920960,-0.0001832548587117344,1,0.00676158769056201,1,0.04144908115267754,1
1771618494085018112,-0.0003692100290209055,1,0.006802843883633614,1,0.04344850033521652,1
1771618494095105280,0.00151804753113538,1,0.006330707110464573,1,0.04086651280522346,1
1771618494105182720,0.001990809803828597,1,0.008535533212125301,1,0.04165019094944,1
1771618494115250176,9.76988158072345e-05,1,0.008662977255880833,1,0.04287457093596458,1
1771618494125307392,0.001843438250944018,1,0.01036363746970892,1,0.0441523939371109,1
1771618494135354880,-0.001373401843011379,1,0.005619731731712818,1,0.04282178357243538,1
1771618494145392384,-0.000138368020998314,1,0.005556853953748941,1,0.04438076913356781,1
1771618494155419904,-0.001616014516912401,1,0.005615960340946913,1,0.04202034696936607,1
1771618494165437696,-0.004734102170914412,1,0.003891478991135955,1,0.04447949677705765,1
1771618494175445504,-0.003051596228033304,1,0.002591390395537019,1,0.04303381592035294,1
1771618494185443584,-0.003734642872586846,1,0.002572249388322234,1,0.04200001060962677,1
1771618494195431936,0.0004297422710806131,1,0.008045493625104427,1,0.04167640581727028,1
1771618494205410304,0.0007154329214245081,1,0.009463545866310596,1,0.0424874871969223,1
1771618494215378688,0.0007419027388095856,1,0.009825168177485466,1,0.04178117215633392,1
1771618494225337600,0.0006126068765297532,1,0.0080675408244133,1,0.04143476113677025,1
1771618494235286528,-0.001085527590475976,1,0.005195114761590958,1,0.04187330976128578,1
1771618494245225216,-0.002046843059360981,1,0.006891028955578804,1,0.04201419278979301,1
1771618494255154688,-0.003973080776631832,1,0.00594382407143712,1,0.04053983464837074,1
1771618494265073920,-0.002802089089527726,1,0.007932853884994984,1,0.03984778001904488,1
1771618494274983424,-0.001293405774049461,1,0.006902349647134542,1,0.03950250521302223,1
1771618494284882944,-0.0009722585091367364,1,0.009605882689356804,1,0.03956622257828712,1
1771618494294772992,-0.0005743240471929312,1,0.009519302286207676,1,0.03895415738224983,1
1771618494304890624,-0.0009533059783279896,1,0.01025734003633261,1,0.04087887331843376,1
1771618494314998272,-0.0008552345680072904,1,0.007160020526498556,1,0.0402832105755806,1
1771618494325095680,-0.0002009420131798834,1,0.006894409190863371,1,0.03883473202586174,1
1771618494335183360,-0.001090406207367778,1,0.005174762103706598,1,0.04039917886257172,1
1771618494345261056,-0.002231177408248186,1,0.006498146802186966,1,0.04243194311857224,1
1771618494355328768,-0.003810151945799589,1,0.006346593610942364,1,0.04044123366475105,1
1771618494365386496,-0.001653980580158532,1,0.006488685496151447,1,0.04481442272663116,1
1771618494375434496,-0.001249670749530196,1,0.004882864654064178,1,0.04150816053152084,1
1771618494385472512,-0.001099751330912113,1,0.00676362682133913,1,0.04210872203111649,1
1771618494395500288,-0.002510800724849105,1,0.007195331621915102,1,0.03932589292526245,1
1771618494405518592,-0.001836870913393795,1,0.007702644914388657,1,0.03925326094031334,1
1771618494415526656,0.0001881851640064269,1,0.005762164480984211,1,0.04208453372120857,1
1771618494425524736,0.001262139761820436,1,0.008120754733681679,1,0.04195355251431465,1
1771618494435512832,-0.0006140666082501411,1,0.006541017908602953,1,0.04039070755243301,1
1771618494445490944,-0.001402631169185042,1,0.006726069841533899,1,0.04076943546533585,1
1771618494455460352,-0.00272024143487215,1,0.006855871062725782,1,0.03858117014169693,1
1771618494465419520,-0.002814769512042403,1,0.005321110133081675,1,0.0402110256254673,1
1771618494475368960,-0.002751951338723302,1,0.00571140693500638,1,0.04093716666102409,1
1771618494485308672,-0.004727156367152929,1,0.004887768067419529,1,0.04067306965589523,1
1771618494495238656,-0.001474696793593466,1,0.006086589302867651,1,0.04291541501879692,1
1771618494505158656,-0.002529427176341414,1,0.007384715601801872,1,0.04244066402316093,1
1771618494515068672,-0.0007257008110173047,1,0.01033050008118153,1,0.04072514548897743,1
1771618494524968960,-0.001943117007613182,1,0.01072809658944607,1,0.04090932384133339,1
1771618494534859264,8.340097701875493e-05,1,0.009096733294427395,1,0.04071824997663498,1
1771618494544975872,-0.002684649312868714,1,0.007856735028326511,1,0.039769247174263,1
1771618494555082496,-0.003092557657510042,1,0.004647243767976761,1,0.03694126754999161,1
1771618494565179392,-0.000113921138108708,1,0.006151633337140083,1,0.04188314452767372,1
1771618494575266048,-0.001130866003222764,1,0.005813580937683582,1,0.04087163135409355,1
1771618494585342976,-0.0004017658939119428,1,0.008587639778852463,1,0.04048176854848862,1
1771618494595409920,-0.001071801758371294,1,0.004626848269253969,1,0.04131545126438141,1
1771618494605466880,0.000476637069368735,1,0.005983246024698019,1,0.04408295080065727,1
1771618494615513856,-0.0009722059476189315,1,0.006749699357897043,1,0.041150763630867,1
1771618494625551104,-0.002065777778625488,1,0.006082592066377401,1,0.04116810858249664,1
1771618494635578368,-0.003422241657972336,1,0.006710502319037914,1,0.0409344770014286,1
1771618494645595648,-0.00343624223023653,1,0.006342193111777306,1,0.04169301316142082,1
1771618494655603200,-0.0002219481975771487,1,0.00514147849753499,1,0.04307422041893005,1
1771618494665600512,-0.001493269694037735,1,0.00474931625649333,1,0.04292955249547958,1
1771618494675588096,-0.001094158506020904,1,0.005065465345978737,1,0.0446036085486412,1
1771618494685565696,-0.0009384443983435631,1,0.006016988307237625,1,0.04219891503453255,1
1771618494695533824,-0.001155802281573415,1,0.008754201233386993,1,0.04273959621787071,1
1771618494705492224,-0.00136989017482847,1,0.007611324079334736,1,0.03983977064490318,1
1771618494715440896,-0.001150499214418232,1,0.008693942800164223,1,0.04182516038417816,1
1771618494725379840,-0.001836802926845849,1,0.008185706101357937,1,0.04197795689105988,1
1771618494735309056,-0.00294629717245698,1,0.008261422626674175,1,0.04298527911305428,1
1771618494745228288,-0.003276154166087508,1,0.006852250546216965,1,0.04088169708848,1
1771618494755137280,-0.003870406886562705,1,0.004812946077436209,1,0.03884214535355568,1
1771618494765037056,-0.002993884263560176,1,0.005623599980026484,1,0.03934499993920326,1
1771618494774926848,-0.003024284029379487,1,0.007492662407457829,1,0.04101474210619926,1
1771618494785042944,0.0001759701408445835,1,0.007606581784784794,1,0.04190410673618317,1
1771618494795149312,-0.0001574732887092978,1,0.005912287160754204,1,0.03976406902074814,1
1771618494805245696,0.002373610623180866,1,0.008484601974487305,1,0.03988516703248024,1
1771618494815332352,-0.0007185481954365969,1,0.005389242433011532,1,0.04293086379766464,1
1771618494825408768,0.0002671614638529718,1,0.006445398554205894,1,0.04402636364102364,1
1771618494835475456,-0.0009641711949370801,1,0.007318167947232723,1,0.04399632662534714,1
1771618494845531904,-0.001392765785567462,1,0.007177740335464478,1,0.04335326328873634,1
1771618494855578880,-0.0002513558720238507,1,0.00891818106174469,1,0.0429212786257267,1
1771618494865616128,0.0003909938386641443,1,0.008630860596895218,1,0.04074026271700859,1
1771618494875643392,0.0001417764724465087,1,0.006462977733463049,1,0.04315239563584328,1
1771618494885660416,-0.002841465873643756,1,0.006711879279464483,1,0.04288915544748306,1
1771618494895667968,-0.004411323927342892,1,0.009654487483203411,1,0.04190229997038841,1
1771618494905665536,-0.002976818010210991,1,0.007803164888173342,1,0.04143782705068588,1
1771618494915653120,-0.001408941228874028,1,0.003575087059289217,1,0.04195785149931908,1
1771618494925630720,-0.002227325225248933,1,0.004130191635340452,1,0.03995644673705101,1
1771618494935598848,-0.001640099566429853,1,0.006410009693354368,1,0.04139470309019089,1
1771618494945556992,-0.001418032916262746,1,0.006845914293080568,1,0.04254335910081863,1
1771618494955505152,-0.0005159811698831618,1,0.005930546671152115,1,0.04204689338803291,1
1771618494965443328,0.0009173926082439721,1,0.004972454626113176,1,0.04366251081228256,1
1771618494975372032,-0.0008343580411747098,1,0.008016189560294151,1,0.04140060022473335,1
1771618494985290752,5.619972216663882e-05,1,0.007111644838005304,1,0.04035478830337524,1
1771618494995199488,0.002235674299299717,1,0.007160119246691465,1,0.04159358888864517,1
1771618495005098496,0.0009526792564429343,1,0.005897060502320528,1,0.04399575293064117,1
1771618495014987520,-7.332401582971215e-05,1,0.007586505264043808,1,0.04166449978947639,1
1771618495025103872,0.002078469609841704,1,0.006189103703945875,1,0.04321905970573425,1
1771618495035209728,0.001526265754364431,1,0.008632206358015537,1,0.04092055931687355,1
1771618495045305856,-0.001090623787604272,1,0.007187040522694588,1,0.04217046871781349,1
1771618495055391744,7.490554708056152e-05,1,0.008213985711336136,1,0.04067694768309593,1
1771618495065468160,0.0006492060492746532,1,0.006923650857061148,1,0.04029043018817902,1
1771618495075534592,-0.0004193116328679025,1,0.008225094527006149,1,0.04151345044374466,1
1771618495085591040,-0.002343554049730301,1,0.006253748666495085,1,0.04159677028656006,1
1771618495095637504,4.154205089434981e-05,1,0.007324509788304567,1,0.04074809700250626,1
1771618495105673984,-0.001687980373390019,1,0.006553916726261377,1,0.03829319775104523,1
1771618495115700736,-0.0001555182680021971,1,0.007682876195758581,1,0.04010680317878723,1
1771618495125717248,-0.0007368301739916205,1,0.00806761346757412,1,0.04246355593204498,1
1771618495135724032,-0.0006929286755621433,1,0.008780764415860176,1,0.04433227330446243,1
1771618495145720832,-0.00149922410491854,1,0.005976756103336811,1,0.04393906518816948,1
1771618495155707648,-0.0004361891187727451,1,0.00639900891110301,1,0.04465773329138756,1
1771618495165685504,0.0005031502805650234,1,0.006135521456599236,1,0.04266665503382683,1
1771618495175653376,-0.0009230787982232869,1,0.008496560156345367,1,0.04215424135327339,1
1771618495185611264,0.0006803025025874376,1,0.006093163974583149,1,0.04338092356920242,1
1771618495195559168,0.001621320261619985,1,0.005500670522451401,1,0.04507748037576675,1
1771618495205497344,-0.0009534935234114528,1,0.006093191914260387,1,0.04443071782588959,1
1771618495215425536,-0.002371026203036308,1,0.006114807911217213,1,0.04296604916453362,1
1771618495225344000,-0.001104607013985515,1,0.007231676019728184,1,0.04046329855918884,1
1771618495235252736,-0.001359148183837533,1,0.0059387581422925,1,0.04255453869700432,1
1771618495245151488,-0.001017541158944368,1,0.006015754770487547,1,0.04293676093220711,1
1771618495255040768,-4.529108991846442e-05,1,0.006769678555428982,1,0.04134349524974823,1
1771618495265155072,0.0008234839770011604,1,0.007817984558641911,1,0.04148053005337715,1
1771618495275259136,0.0002352849260205403,1,0.008399443700909615,1,0.04115746542811394,1
1771618495285353472,0.0009746821597218513,1,0.009963548742234707,1,0.03991617634892464,1
1771618495295437568,-0.0008490646723657846,1,0.009079315699636936,1,0.04015150666236877,1
1771618495305511936,-0.001065179705619812,1,0.008612994104623795,1,0.04057219624519348,1
1771618495315576064,0.00131350290030241,1,0.006450439337641001,1,0.04244611412286758,1
1771618495325630976,0.001007755054160953,1,0.005842665676027536,1,0.04069653153419495,1
1771618495335675648,-0.00117888068780303,1,0.005397154483944178,1,0.04194461926817894,1
1771618495345710848,0.0001590778701938689,1,0.006863920949399471,1,0.04328792914748192,1
1771618495355736064,0.001053362851962447,1,0.007002270314842463,1,0.04202701151371002,1
1771618495365751296,0.0009348722524009645,1,0.007173537276685238,1,0.04221443459391594,1
1771618495375756288,0.0004905739333480597,1,0.007640971336513758,1,0.04138895124197006,1
1771618495385751552,0.001096653053537011,1,0.007294656708836555,1,0.03841734677553177,1
1771618495395736832,0.001162651693448424,1,0.006201933603733778,1,0.03679431974887848,1
1771618495405712384,-0.001959811197593808,1,0.005906403064727783,1,0.04152265563607216,1
1771618495415677696,-0.003103066934272647,1,0.006338080856949091,1,0.0406276136636734,1
1771618495425633536,-0.002654304727911949,1,0.005111997947096825,1,0.04004700481891632,1
1771618495435579648,-0.0020623286254704,1,0.006704398430883884,1,0.04218024387955666,1
1771618495445516032,-0.001383981318213046,1,0.007231055293232203,1,0.04091381281614304,1
1771618495455442432,-0.0004410850233398378,1,0.008191695436835289,1,0.03931577131152153,1
1771618495465358592,0.0004113067116122693,1,0.008895071223378181,1,0.038227878510952,1
1771618495475265024,-0.0001464592351112515,1,0.009581982158124447,1,0.03825464472174644,1
1771618495485161728,0.0005277382442727685,1,0.01057120785117149,1,0.0387597382068634,1
1771618495495048704,-0.0007025602390058339,1,0.008664524182677269,1,0.04097440838813782,1
1771618495505160704,-0.001115713617764413,1,0.006366332992911339,1,0.04328342899680138,1
1771618495515262720,-0.001078161294572055,1,0.003769896691665053,1,0.04209205135703087,1
1771618495525355008,-0.001480169361457229,1,0.006169548723846674,1,0.0399804525077343,1
1771618495535437312,-0.001603988348506391,1,0.00650338688865304,1,0.03985526412725449,1
1771618495545509632,-0.001277703908272088,1,0.00696361530572176,1,0.04049885272979736,1
1771618495555572480,7.378635928034782e-05,1,0.00866664107888937,1,0.0414811335504055,1
1771618495565625344,-0.0009941476164385676,1,0.006885988637804985,1,0.04285391792654991,1
1771618495575667968,-0.0008355177124030888,1,0.006715251132845879,1,0.04014325886964798,1
1771618495585700608,-0.003501766594126821,1,0.004508796148002148,1,0.04183623194694519,1
1771618495595723520,-0.001019576680846512,1,0.001031468389555812,1,0.04134996607899666,1
1771618495605736448,-0.0001719806750770658,1,0.003102403832599521,1,0.04350944980978966,1
1771618495615739136,-0.001768040936440229,1,0.004082126542925835,1,0.04005808383226395,1
1771618495625732096,0.001662276685237885,1,0.006713636219501495,1,0.04167728126049042,1
1771618495635714816,0.001007222686894238,1,0.007026760373264551,1,0.04159750789403915,1
1771618495645688064,0.001782444422133267,1,0.006787943188101053,1,0.04205130413174629,1
1771618495655651328,0.0008547065663151443,1,0.008072922006249428,1,0.03984707221388817,1
1771618495665604352,-0.0007515150355175138,1,0.004211306106299162,1,0.03996625915169716,1
1771618495675547648,-0.001643125782720745,1,0.006203462369740009,1,0.0422583743929863,1
1771618495685480960,-0.001398981083184481,1,0.006207536906003952,1,0.04033970087766647,1
1771618495695404544,5.208161019254476e-05,1,0.007249011658132076,1,0.03960984945297241,1
1771618495705318144,0.0002007844159379601,1,0.009075138717889786,1,0.04015108197927475,1
1771618495715222016,0.0004098756180610508,1,0.006158080417662859,1,0.0429009236395359,1
1771618495725115648,-0.0001367940858472139,1,0.00570050161331892,1,0.04465772584080696,1
1771618495734999808,0.0009545893990434706,1,0.005945444107055664,1,0.04183899238705635,1
1771618495745110272,0.0005049873725511134,1,0.006818478461354971,1,0.04303567484021187,1
1771618495755211008,-0.001076829852536321,1,0.009691666811704636,1,0.04157502204179764,1
1771618495765301760,-0.0003892664681188762,1,0.008448529988527298,1,0.04185239970684052,1
1771618495775382272,-0.003739611245691776,1,0.00823651161044836,1,0.04167124629020691,1
1771618495785453056,-0.002619908656924963,1,0.008891117759048939,1,0.04150693491101265,1
1771618495795513856,-0.002276113722473383,1,0.009503061883151531,1,0.04196329414844513,1
1771618495805564672,-0.00165810901671648,1,0.009299523197114468,1,0.040101308375597,1
1771618495815605760,0.0008937546517699957,1,0.009680313989520073,1,0.03762799873948097,1
1771618495825636864,0.0006152691203169525,1,0.01022141613066196,1,0.03988852351903915,1
1771618495835657984,-5.023946141591296e-05,1,0.007861774414777756,1,0.0398760549724102,1
1771618495845669632,-0.001138517400249839,1,0.006203470751643181,1,0.04331689327955246,1
1771618495855671552,-0.00180359254591167,1,0.005517748650163412,1,0.04432045668363571,1
1771618495865663488,-0.003321404103189707,1,0.006941868457943201,1,0.04216334968805313,1
1771618495875645440,-0.001703805988654494,1,0.007876687683165073,1,0.04106807336211205,1
1771618495885617408,2.367432171013206e-05,1,0.007416169159114361,1,0.04146318137645721,1
1771618495895579904,-0.0003893245011568069,1,0.009000282734632492,1,0.04214615002274513,1
1771618495905532672,0.0005296081071719527,1,0.008250072598457336,1,0.04120055213570595,1
1771618495915475712,-0.0005071406485512853,1,0.008552270941436291,1,0.03990680724382401,1
1771618495925408768,-0.0003388409677427262,1,0.006400143261998892,1,0.03981555625796318,1
1771618495935331840,-0.001811785972677171,1,0.006545395590364933,1,0.0385226309299469,1
1771618495945245184,-0.001997882267460227,1,0.005838650278747082,1,0.03889322280883789,1
1771618495955148800,-0.002489465288817883,1,0.007331688422709703,1,0.03857256844639778,1
1771618495965042688,-0.00255780597217381,1,0.007600812241435051,1,0.04125641286373138,1
1771618495974926592,-0.002607878530398011,1,0.00771984551101923,1,0.04176353290677071,1
1771618495985035264,-0.0008181261364370584,1,0.008604166097939014,1,0.04057367146015167,1
1771618495995133440,0.0004109228029847145,1,0.008284488692879677,1,0.03972621634602547,1
1771618496005221888,0.0008311305427923799,1,0.008493575267493725,1,0.04107372835278511,1
1771618496015300352,-0.0009900956647470593,1,0.00627477653324604,1,0.04209214821457863,1
1771618496025368832,-0.001969317905604839,1,0.005685077048838139,1,0.04132899269461632,1
1771618496035427584,-0.0002017247607000172,1,0.006071276962757111,1,0.04003967344760895,1
1771618496045476608,0.0002086400927510113,1,0.007418625056743622,1,0.04167350381612778,1
1771618496055515904,-0.001990361837670207,1,0.005236767698079348,1,0.04323355853557587,1
1771618496065545216,-0.002435075119137764,1,0.008925635367631912,1,0.04095909371972084,1
1771618496075564288,-0.0002427655999781564,1,0.006443050689995289,1,0.04188496991991997,1
1771618496085573888,-0.001244660699740052,1,0.006849815137684345,1,0.04476581141352654,1
1771618496095573504,7.790440577082336e-05,1,0.00578974885866046,1,0.04317526891827583,1
1771618496105563136,0.0005204267217777669,1,0.006261563859879971,1,0.04237328469753265,1
1771618496115542784,0.0008515928639099002,1,0.007957254536449909,1,0.0417029932141304,1
1771618496125512960,-0.0006349204923026264,1,0.004374232143163681,1,0.04088478907942772,1
1771618496135473152,-0.002336663892492652,1,0.00344385695643723,1,0.0406283438205719,1
1771618496145423104,-0.002420430071651936,1,0.004355051089078188,1,0.04097876697778702,1
1771618496155363584,-0.002552500460296869,1,0.005721500609070063,1,0.0409683994948864,1
1771618496165294336,-0.001208817469887435,1,0.007857805117964745,1,0.0412343367934227,1
1771618496175215104,-0.001182955224066973,1,0.007779709994792938,1,0.04233285412192345,1
1771618496185125632,-0.00267606507986784,1,0.009583796374499798,1,0.0430300161242485,1
1771618496195026944,-0.002447070321068168,1,0.006745945196598768,1,0.04278406128287315,1
1771618496204918016,-0.0001611631596460938,1,0.006479016505181789,1,0.04429388046264648,1
1771618496214799360,0.001816622447222471,1,0.00662824185565114,1,0.04506708309054375,1
1771618496224907520,-0.0002207704674219713,1,0.005406995303928852,1,0.04086040332913399,1
1771618496235005952,-0.0003183185472153127,1,0.0061228321865201,1,0.04274193570017815,1
1771618496245094400,0.0004711093497462571,1,0.007090596482157707,1,0.04125687479972839,1
1771618496255172864,-0.0008934545330703259,1,0.006502789445221424,1,0.0415162481367588,1
1771618496265241600,-0.003264503786340356,1,0.006544919218868017,1,0.04294297099113464,1
1771618496275300096,-0.003089266130700707,1,0.006248404271900654,1,0.04135648533701897,1
1771618496285349120,-0.001289299107156694,1,0.007703946437686682,1,0.04022597149014473,1
1771618496295387904,-0.0002854414342436939,1,0.00956843513995409,1,0.04049959033727646,1
1771618496305416704,0.0004705296887550503,1,0.00714165298268199,1,0.04201072826981544,1
1771618496315435264,0.001185152330435812,1,0.007203910499811172,1,0.04161788523197174,1
1771618496325444096,-0.0008241452742367983,1,0.008385345339775085,1,0.04230338707566261,1
1771618496335442944,-0.001905074459500611,1,0.004877544473856688,1,0.03946854546666145,1
1771618496345431808,-0.0001735060941427946,1,0.00631343200802803,1,0.04127085208892822,1
1771618496355410944,-3.101088805124164e-05,1,0.005930014420300722,1,0.03983414173126221,1
1771618496365380096,-0.001277783303521574,1,0.007522730156779289,1,0.03910965844988823,1
1771618496375339264,-0.001747248927131295,1,0.007512529846280813,1,0.03789271786808968,1
1771618496385288704,-0.0005637689027935266,1,0.006641349755227566,1,0.0418047271668911,1
1771618496395227904,-0.0003472447278909385,1,0.00619692774489522,1,0.04153755307197571,1
1771618496405157376,0.0002130254724761471,1,0.005780098028481007,1,0.04151123762130737,1
1771618496415076608,-0.0005257976590655744,1,0.006615748163312674,1,0.04067126289010048,1
1771618496424986624,-0.001376447966322303,1,0.00700859259814024,1,0.04068852961063385,1
1771618496434886400,-0.0008895172504708171,1,0.00676439655944705,1,0.04252194985747337,1
1771618496444776448,-0.0003889260697178543,1,0.005930793005973101,1,0.03987647593021393,1
1771618496454656512,-0.001317706191912293,1,0.005929455626755953,1,0.03919398784637451,1
1771618496464763648,-0.001987029099836946,1,0.004749157931655645,1,0.03891482204198837,1
1771618496474861056,-0.001665180898271501,1,0.006941315717995167,1,0.03941071406006813,1
1771618496484948480,-0.002814501523971558,1,0.006897653453052044,1,0.04004339873790741,1
1771618496495025920,-0.003039302071556449,1,0.006010552868247032,1,0.0395178496837616,1
1771618496505093632,-0.0008613434038124979,1,0.006072825752198696,1,0.04077718779444695,1
1771618496515151104,-0.001223027822561562,1,0.006586852483451366,1,0.04283816367387772,1
1771618496525199104,0.0002377199125476182,1,0.007504249457269907,1,0.04140981286764145,1
1771618496535237632,-0.0004713127273134887,1,0.008496657945215702,1,0.03823979943990707,1
1771618496545265920,-0.0003313502529636025,1,0.004384832922369242,1,0.0376097671687603,1
1771618496555284736,-0.0006103412597440183,1,0.004903275519609451,1,0.04079484194517136,1
1771618496565293568,-0.002332006813958287,1,0.004143176600337029,1,0.0406513623893261,1
1771618496575292160,-0.001810118206776679,1,0.005511382129043341,1,0.03911566361784935,1
1771618496585281280,-0.001328535261563957,1,0.007504829205572605,1,0.03944818675518036,1
1771618496595260416,0.001855719485320151,1,0.006781330332159996,1,0.04115325957536697,1
1771618496605229568,-0.001308077946305275,1,0.008895044215023518,1,0.04214024543762207,1
1771618496615188736,-0.002048588590696454,1,0.008992347866296768,1,0.04143445566296577,1
1771618496625138176,-0.001221933169290423,1,0.007786769419908524,1,0.04078212752938271,1
1771618496635077632,-0.001000028103590012,1,0.005222332198172808,1,0.04072699695825577,1
1771618496645007360,-0.002007425064221025,1,0.005005729384720325,1,0.04248246550559998,1
1771618496654927104,-0.001828192500397563,1,0.005891092587262392,1,0.04156136512756348,1
1771618496664837376,-0.001335902139544487,1,0.006841018795967102,1,0.03883080929517746,1
1771618496674737920,-0.0001167139562312514,1,0.007448259275406599,1,0.04218065366148949,1
1771618496684628480,-0.001216676086187363,1,0.00434754928573966,1,0.04253742471337318,1
1771618496694745600,-0.002403941471129656,1,0.005374577362090349,1,0.041792131960392,1
1771618496704852736,-0.00206930167041719,1,0.004211064893752337,1,0.04175182059407234,1
1771618496714950144,0.0009143019560724497,1,0.007668121252208948,1,0.04241799563169479,1
1771618496725037312,0.002361151156947017,1,0.006679446436464787,1,0.04342041909694672,1
1771618496735115008,2.962096186820418e-05,1,0.005325672682374716,1,0.04307834431529045,1
1771618496745182720,-0.001272507011890411,1,0.006613069213926792,1,0.04449951648712158,1
1771618496755240192,0.0008634011610411108,1,0.006807274650782347,1,0.04228056594729424,1
1771618496765288192,0.0001838170865084976,1,0.007585349958389997,1,0.04373636841773987,1
1771618496775326208,0.0004954861360602081,1,0.007044472731649876,1,0.04191811755299568,1
1771618496785353984,-0.001196904107928276,1,0.005352847743779421,1,0.04093189164996147,1
1771618496795372032,-0.001902553020045161,1,0.003924822900444269,1,0.04283406585454941,1
1771618496805379840,-0.0006973062409088016,1,0.004913789220154285,1,0.04260575771331787,1
1771618496815378176,-0.001769464346580207,1,0.00674176961183548,1,0.0428648367524147,1
1771618496825366528,-0.003297757124528289,1,0.006058256607502699,1,0.0429610013961792,1
1771618496835344896,-0.004660469014197588,1,0.005315652117133141,1,0.0458279550075531,1
1771618496845313280,-0.005005341954529285,1,0.006134908180683851,1,0.04351167380809784,1
1771618496855271936,-0.003193759359419346,1,0.006422323640435934,1,0.04432467743754387,1
1771618496865220352,-0.001567156170494854,1,0.006524663884192705,1,0.04427889361977577,1
1771618496875159296,-0.0006118122837506235,1,0.006991423666477203,1,0.04208808392286301,1
1771618496885088256,-0.000151358253788203,1,0.007673010695725679,1,0.04093622043728828,1
1771618496895008768,-0.001047712052240968,1,0.005956654436886311,1,0.04193489253520966,1
1771618496904919296,8.573410741519183e-05,1,0.007872999645769596,1,0.04459811747074127,1
1771618496914820352,-0.001744169276207685,1,0.007232978474348783,1,0.04094475880265236,1
1771618496924711424,-0.001004173653200269,1,0.005717791616916656,1,0.04153959453105927,1
1771618496934828288,-0.001509798225015402,1,0.005525628570467234,1,0.04282352700829506,1
1771618496944935168,-0.0004953669849783182,1,0.005060283467173576,1,0.04342867061495781,1
1771618496955032320,2.041153493337333e-05,1,0.00816706009209156,1,0.04071258008480072,1
1771618496965119488,0.001101632602512836,1,0.007153866812586784,1,0.03926097601652145,1
1771618496975196672,0.0004467288381420076,1,0.004720391239970922,1,0.04025011137127876,1
1771618496985263872,0.0001905578974401578,1,0.003194635501131415,1,0.04115018248558044,1
1771618496995321344,-0.0002505265874788165,1,0.001388018601574004,1,0.04211964085698128,1
1771618497005368576,-0.0004425140214152634,1,0.002991493791341782,1,0.04164716973900795,1
1771618497015406080,-0.001649627811275423,1,0.004138123244047165,1,0.04168737679719925,1
1771618497025433600,-0.001358375884592533,1,0.007200172636657953,1,0.03898279368877411,1
1771618497035450880,0.0001531166053609923,1,0.009442860260605812,1,0.04023092612624168,1
1771618497045458432,-0.001737690647132695,1,0.007270586211234331,1,0.03981681540608406,1
1771618497055456000,0.0006173913134261966,1,0.005942074581980705,1,0.03983942419290543,1
1771618497065443840,0.002371196635067463,1,0.008651042357087135,1,0.04167034476995468,1
1771618497075422720,0.0032292774412781,1,0.00685870973393321,1,0.04146694764494896,1
1771618497085391872,0.0007080950890667737,1,0.004946647211909294,1,0.04168646037578583,1
1771618497095351040,-0.0004495642497204244,1,0.00520690530538559,1,0.0421970896422863,1
1771618497105300736,0.0003741960390470922,1,0.006088579073548317,1,0.04248882457613945,1
1771618497115240448,-0.001723695080727339,1,0.007222865708172321,1,0.04334129020571709,1
1771618497125170176,-5.611474625766277e-05,1,0.009727210737764835,1,0.0447763055562973,1
1771618497135090176,0.001179869985207915,1,0.009915967471897602,1,0.04223709180951118,1
1771618497145000192,0.0006281763780862093,1,0.007163394708186388,1,0.04358192160725594,1
1771618497154900480,0.0004198068636469543,1,0.004199142567813396,1,0.0432242639362812,1
1771618497164791040,0.001910308026708663,1,0.004427701234817505,1,0.04232559353113174,1
1771618497174907904,-0.0002053076023003086,1,0.006736473646014929,1,0.0425381101667881,1
1771618497185014272,-0.001863167388364673,1,0.005942436400800943,1,0.04296799004077911,1
1771618497195110912,0.001393695711158216,1,0.007582147605717182,1,0.04328438639640808,1
1771618497205197824,0.003825823310762644,1,0.008060010150074959,1,0.04351216182112694,1
1771618497215274496,0.002482142299413681,1,0.007016401272267103,1,0.04182910919189453,1
1771618497225341184,-0.002430095570161939,1,0.005331327673047781,1,0.04210329055786133,1
1771618497235398144,-0.003529742360115051,1,0.0009462371235713363,1,0.04214907437562943,1
1771618497245444864,-0.002355072880163789,1,0.002143678721040487,1,0.0422547347843647,1
1771618497255481856,0.001330048660747707,1,0.004813941661268473,1,0.04033670574426651,1
1771618497265508608,0.0003631353029049933,1,0.008286939933896065,1,0.03879335895180702,1
1771618497275525888,0.003419826971367002,1,0.01074771862477064,1,0.04022841900587082,1
1771618497285532928,0.001411280711181462,1,0.00855566281825304,1,0.04129207879304886,1
1771618497295529984,0.0004599629028234631,1,0.006436190567910671,1,0.04323397949337959,1
1771618497305517568,-0.002102882135659456,1,0.003417567117139697,1,0.04116061702370644,1
1771618497315495424,-0.002930607181042433,1,0.002438075607642531,1,0.03991306200623512,1
1771618497325463296,-0.004290200769901276,1,0.002607322065159678,1,0.04037173092365265,1
1771618497335421440,-0.004680694080889225,1,0.003858171403408051,1,0.04094510897994041,1
1771618497345369344,-0.003152521792799234,1,0.004290895070880651,1,0.04080838337540627,1
1771618497355308032,-0.0009856126271188259,1,0.007405811455100775,1,0.04105332866311073,1
1771618497365236480,-0.0003732441691681743,1,0.007071516010910273,1,0.04013883695006371,1
1771618497375155200,0.00152453884948045,1,0.009784799069166183,1,0.0401543527841568,1
1771618497385063680,0.003951389342546463,1,0.01030072756111622,1,0.04124720394611359,1
1771618497394962688,0.001857800874859095,1,0.006779283285140991,1,0.04194020479917526,1
1771618497404851968,-0.002962835365906358,1,0.007321047596633434,1,0.04108275100588799,1
1771618497414968320,-0.0007174562197178602,1,0.002436692360788584,1,0.04292244836688042,1
1771618497425074688,-0.00307147391140461,1,0.003089512698352337,1,0.04092118516564369,1
1771618497435170816,-0.003221427788957953,1,0.006064243149012327,1,0.04084057360887527,1
1771618497445257216,-0.001844910555519164,1,0.007825739681720734,1,0.04118850827217102,1
1771618497455333632,-0.0002252343547297642,1,0.005268299020826817,1,0.04597725719213486,1
1771618497465400320,0.001270559732802212,1,0.005682115908712149,1,0.04549762979149818,1
1771618497475457024,0.0003180706116836518,1,0.008153039962053299,1,0.04213836416602135,1
1771618497485503488,-0.001024019438773394,1,0.007035293616354465,1,0.04244250059127808,1
1771618497495539968,-0.001042557647451758,1,0.004156223032623529,1,0.04167933762073517,1
1771618497505566976,-0.0007600507233291864,1,0.004913624376058578,1,0.04166604578495026,1
1771618497515584000,-0.002546347677707672,1,0.004268727730959654,1,0.04261965304613113,1
1771618497525590784,-0.000707047525793314,1,0.00360717112198472,1,0.04110418632626534,1
1771618497535588096,-0.001166970003396273,1,0.004751438274979591,1,0.04489629343152046,1
1771618497545575424,0.001625961856916547,1,0.004131393507122993,1,0.04207630082964897,1
1771618497555552768,0.0009098463924601674,1,0.0067609753459692,1,0.04149451851844788,1
1771618497565520128,-0.0004484192468225956,1,0.007105350494384766,1,0.04094363376498222,1
1771618497575477760,0.0001460312632843852,1,0.004799519199877977,1,0.04526147246360779,1
1771618497585425152,-0.000390510045690462,1,0.006519264075905085,1,0.04287984594702721,1
1771618497595363072,-0.001650301041081548,1,0.005769961513578892,1,0.04020124673843384,1
1771618497605291776,-0.0004185072029940784,1,0.005141013767570257,1,0.03944925591349602,1
1771618497615210496,-0.0008879377273842692,1,0.005425325129181147,1,0.0405474565923214,1
1771618497625119232,0.001467959024012089,1,0.006475760601460934,1,0.03793861344456673,1
1771618497635018240,0.002918313257396221,1,0.005945623386651278,1,0.0385141521692276,1
1771618497644907264,0.002683532424271107,1,0.007738039828836918,1,0.04102276265621185,1
1771618497655021824,0.002505548065528274,1,0.008787925355136395,1,0.04051147028803825,1
1771618497665126400,-3.782572093768977e-05,1,0.006725611165165901,1,0.03982222452759743,1
1771618497675220736,-0.001200204249471426,1,0.007070457562804222,1,0.03857869654893875,1
1771618497685305344,-0.001979585038498044,1,0.006939589511603117,1,0.04099486023187637,1
1771618497695379712,-0.001972260652109981,1,0.007439934648573399,1,0.04272134602069855,1
1771618497705444096,-0.0003806258318945765,1,0.006596930790692568,1,0.04344466328620911,1
1771618497715498496,0.001389513723552227,1,0.007247352506965399,1,0.04367059469223022,1
1771618497725542912,0.002284922869876027,1,0.005731391720473766,1,0.04351349174976349,1
1771618497735577344,0.002848313888534904,1,0.006950443144887686,1,0.04381126165390015,1
1771618497745601792,0.0003323057317174971,1,0.006755886599421501,1,0.04272885993123055,1
1771618497755616256,-0.001151274889707565,1,0.006538568995893002,1,0.04220792278647423,1
1771618497765621504,-0.001289810752496123,1,0.008280648849904537,1,0.03813448548316956,1
1771618497775617280,-0.0005678980378434062,1,0.00698128342628479,1,0.04054349660873413,1
1771618497785603072,-0.00233971350826323,1,0.007205725647509098,1,0.0401310995221138,1
1771618497795578880,-0.004513575229793787,1,0.008145347237586975,1,0.03693673759698868,1
1771618497805544704,-0.004686691798269749,1,0.005210557021200657,1,0.0388670414686203,1
1771618497815501056,-0.006229254882782698,1,0.0001466008252464235,1,0.04209048673510551,1
1771618497825447680,-0.003838018281385303,1,0.007428399287164211,1,0.03970246016979218,1
1771618497835384320,-0.004642974119633436,1,0.004889669362455606,1,0.04350258782505989,1
1771618497845310976,-0.0002897832600865513,1,0.008537281304597855,1,0.04296165704727173,1
1771618497855227904,0.0003914366825483739,1,0.01060399413108826,1,0.0427471362054348,1
1771618497865135360,-0.001797403558157384,1,0.008712283335626125,1,0.04057003185153008,1
1771618497875033088,0.0002122352016158402,1,0.007356041111052036,1,0.04198076203465462,1
1771618497884921088,-0.001200893195345998,1,0.006567009724676609,1,0.03984742984175682,1
1771618497895033600,-0.003272213041782379,1,0.005770518910139799,1,0.04232131689786911,1
1771618497905136128,-0.002295243088155985,1,0.005236170720309019,1,0.04376082494854927,1
1771618497915228416,-0.002073665615171194,1,0.006181076169013977,1,0.04375741630792618,1
1771618497925310976,-0.001761386170983315,1,0.005871140863746405,1,0.04324859008193016,1
1771618497935383296,-0.001815365976653993,1,0.004643129650503397,1,0.04246201366186142,1
1771618497945446144,-0.001741947955451906,1,0.002582384971901774,1,0.04174214974045753,1
1771618497955499008,-0.002834005979821086,1,0.00570409931242466,1,0.04266038537025452,1
1771618497965541376,-0.0008392134332098067,1,0.005706268362700939,1,0.04116704314947128,1
1771618497975574016,0.0002073726354865357,1,0.008438277989625931,1,0.04080844670534134,1
1771618497985596672,-0.0006506218342110515,1,0.00748891057446599,1,0.03942615538835526,1
1771618497995609600,0.0002124635502696037,1,0.00470947939902544,1,0.04299033060669899,1
1771618498005612544,-0.0005401406669989228,1,0.007199293002486229,1,0.0420202724635601,1
1771618498015605504,-0.0004689400957431644,1,0.006861111614853144,1,0.04348112270236015,1
1771618498025588480,-0.001519446144811809,1,0.006752819288522005,1,0.04219057038426399,1
1771618498035561472,-0.001763793639838696,1,0.007814629934728146,1,0.0410582534968853,1
1771618498045525248,-0.001096760388463736,1,0.007401355542242527,1,0.04246791452169418,1
1771618498055479552,0.001567151746712625,1,0.004191523417830467,1,0.04373298957943916,1
1771618498065423872,0.002177860355004668,1,0.005717173684388399,1,0.04308431968092918,1
1771618498075358208,0.0004191458283457905,1,0.004299607593566179,1,0.04276784509420395,1
1771618498085282560,4.453788278624415e-05,1,0.005207577254623175,1,0.0424029640853405,1
1771618498095197184,0.000179067938006483,1,0.007336021866649389,1,0.04202420637011528,1
1771618498105102080,0.002826575888320804,1,0.005001174286007881,1,0.04146909713745117,1
1771618498114997248,0.003330656560137868,1,0.007316767238080502,1,0.0407787561416626,1
1771618498124882176,0.0006915346602909267,1,0.00805890467017889,1,0.03909195959568024,1
1771618498134994688,0.001023771706968546,1,0.006009158678352833,1,0.03981959074735641,1
1771618498145097216,0.0003261609235778451,1,0.001604361226782203,1,0.03915105015039444,1
1771618498155189504,-0.0009513297700323164,1,0.007514265831559896,1,0.041367307305336,1
1771618498165271808,-0.002618767321109772,1,0.004161301534622908,1,0.03863846510648727,1
1771618498175344384,-0.001369285397231579,1,0.00548458518460393,1,0.04187919944524765,1
1771618498185406976,-0.003010672284290195,1,0.003637904999777675,1,0.03694203495979309,1
1771618498195459584,-0.001710173557512462,1,0.005741647910326719,1,0.04281383380293846,1
1771618498205502208,-0.0008064913563430309,1,0.008607761934399605,1,0.03775747120380402,1
1771618498215535360,-1.942443486768752e-05,1,0.006057871505618095,1,0.03847702592611313,1
1771618498225558272,-7.034462760202587e-05,1,0.005756854545325041,1,0.04116093367338181,1
1771618498235571200,-0.000681465957313776,1,0.003174601588398218,1,0.04337326809763908,1
1771618498245574144,-0.001459367922507226,1,0.005554131232202053,1,0.04462511092424393,1
1771618498255567104,0.001299859257414937,1,0.007667311001569033,1,0.040708027780056,1
1771618498265550336,0.0005972851067781448,1,0.00862791296094656,1,0.04052799195051193,1
1771618498275523584,0.0002782560768537223,1,0.00874803215265274,1,0.04082723334431648,1
1771618498285486848,0.001342618954367936,1,0.006603185087442398,1,0.04260869324207306,1
1771618498295440640,0.004572669044137001,1,0.005108723416924477,1,0.04432831704616547,1
1771618498305384448,0.001770816277712584,1,0.003401002148166299,1,0.0439397320151329,1
1771618498315318272,-0.001850523753091693,1,0.003198161721229553,1,0.04301784187555313,1
1771618498325242112,-0.0009406557073816657,1,0.004517037887126207,1,0.03964634984731674,1
1771618498335156224,0.000973611488007009,1,0.004501220304518938,1,0.04121134057641029,1
1771618498345060096,0.0006061523454263806,1,0.006967470981180668,1,0.04206352680921555,1
1771618498354954752,0.0003064290503971279,1,0.004078587051481009,1,0.04134873300790787,1
1771618498364839168,-0.0003847321204375476,1,0.004253573715686798,1,0.04253419116139412,1
1771618498374949632,-0.0004875738814007491,1,0.005169765092432499,1,0.04215990379452705,1
1771618498385050112,-0.0006713722250424325,1,0.008137160912156105,1,0.04098735004663467,1
1771618498395140352,-0.0004983917460776865,1,0.00667212251573801,1,0.03897681459784508,1
1771618498405220864,-0.000427622813731432,1,0.008688335306942463,1,0.04094148054718971,1
1771618498415291392,-0.001815232215449214,1,0.006162639707326889,1,0.04160289466381073,1
1771618498425351680,-0.002253155456855893,1,0.006152755580842495,1,0.04255824163556099,1
1771618498435402496,7.555732736364007e-05,1,0.005932528059929609,1,0.0373033806681633,1
1771618498445443840,0.001872606808319688,1,0.005788132548332214,1,0.04004627466201782,1
1771618498455474944,-6.092851981520653e-05,1,0.005160328466445208,1,0.03931165114045143,1
1771618498465496064,0.002679174998775125,1,0.007990747690200806,1,0.04051082208752632,1
1771618498475507200,0.002429577521979809,1,0.004385426174849272,1,0.04038164764642715,1
1771618498485508352,-0.001679423730820417,1,0.007015591487288475,1,0.04212190210819244,1
1771618498495500032,-0.002212397987022996,1,0.006058288272470236,1,0.03972887620329857,1
1771618498505481728,0.0002561311703175306,1,0.006795770488679409,1,0.03709503263235092,1
1771618498515453184,-0.003446051152423024,1,0.005140287335962057,1,0.04216223582625389,1
1771618498525415168,-0.003284674370661378,1,0.003949573263525963,1,0.03920602053403854,1
1771618498535367168,-0.001515826676040888,1,0.00405833451077342,1,0.04145384952425957,1
1771618498545309184,-0.004134520888328552,1,0.003550804918631911,1,0.04296109080314636,1
1771618498555241472,-0.003415891202166677,1,0.004510325379669666,1,0.04261045530438423,1
1771618498565164032,-0.003010479034855962,1,0.004289041273295879,1,0.04086687415838242,1
1771618498575076608,-0.005201512016355991,1,0.003410884877666831,1,0.04242987930774689,1
1771618498584979456,0.001524601364508271,1,0.004212285857647657,1,0.04219422489404678,1
1771618498594872320,0.00310113956220448,1,0.006841360591351986,1,0.04247865825891495,1
1771618498604755456,0.003560624085366726,1,0.01231608260422945,1,0.04406577348709106,1
1771618498614863872,0.006363632157444954,1,0.01202663872390985,1,0.04100144654512405,1
1771618498624962304,0.007440471556037664,1,0.01163202337920666,1,0.04085551574826241,1
1771618498635051008,-0.004004764370620251,1,0.007489793468266726,1,0.03696120157837868,1
1771618498645129472,-0.004522360861301422,1,0.008104262873530388,1,0.04019345715641975,1
1771618498655197952,-0.007327333558350801,1,-0.0004730056971311569,1,0.03935687988996506,1
1771618498665256704,-0.008743437007069588,1,-0.0008539167465642095,1,0.04223712161183357,1
1771618498675305728,-0.003167284652590752,1,0.004598148632794619,1,0.03838052600622177,1
1771618498685344768,-0.0006041431333869696,1,0.004896036349236965,1,0.03710545226931572,1
1771618498695373312,0.001995644299313426,1,0.008976275101304054,1,0.04113655164837837,1
1771618498705392896,0.005026803351938725,1,0.007727529387921095,1,0.03816404193639755,1
1771618498715402752,0.0007538205245509744,1,0.0085307527333498,1,0.04279623180627823,1
1771618498725402624,-0.0014294603606686,1,0.004513333551585674,1,0.04073883965611458,1
1771618498735392512,-0.001447046175599098,1,0.002352372743189335,1,0.04058356583118439,1
1771618498745372928,0.001369072939269245,1,0.003051359439268708,1,0.04198747873306274,1
1771618498755343360,0.002054292242974043,1,0.007921642623841763,1,0.04073312133550644,1
1771618498765303808,0.005552606657147408,1,0.009001207537949085,1,0.03989313542842865,1
1771618498775254272,0.007692390121519566,1,0.009104546159505844,1,0.04119202122092247,1
1771618498785195008,0.005312253721058369,1,0.01412547472864389,1,0.04038800299167633,1
1771618498795125504,0.00272642495110631,1,0.01294601894915104,1,0.03927499055862427,1
1771618498805046528,-0.003436740022152662,1,0.002520461101084948,1,0.04084892943501472,1
1771618498814958080,-0.007030766922980547,1,-0.005549541208893061,1,0.04206542670726776,1
1771618498824859392,-0.008241062983870506,1,0.0004509963910095394,1,0.04342731088399887,1
1771618498834750976,-0.006199105177074671,1,0.005567308515310287,1,0.04039562121033669,1
1771618498844632576,-0.000901058956515044,1,0.005542593076825142,1,0.04196842387318611,1
1771618498854739712,0.0006710179150104523,1,0.006694827228784561,1,0.04084652289748192,1
1771618498864837376,0.0004444064106792212,1,0.00805362593382597,1,0.0404144786298275,1
1771618498874925056,0.0001781331666279584,1,0.008073185570538044,1,0.04135945066809654,1
1771618498885002752,0.0007225579465739429,1,0.004802386742085218,1,0.04039353504776955,1
1771618498895070208,0.003759634215384722,1,0.007659198250621557,1,0.04380236566066742,1
1771618498905127936,0.005017577670514584,1,0.008577211759984493,1,0.04097397997975349,1
1771618498915175936,0.004631238523870707,1,0.01086222194135189,1,0.04017530754208565,1
1771618498925213952,0.002764062490314245,1,0.008314988575875759,1,0.0375148169696331,1
1771618498935242240,-0.002814643085002899,1,0.001407825853675604,1,0.03847460821270943,1
1771618498945260544,-0.005979205016046762,1,-0.0009851977229118347,1,0.03879836201667786,1
1771618498955268864,-0.008978288620710373,1,-0.002212411956861615,1,0.03752295300364494,1
1771618498965267712,-0.003778303507715464,1,0.001672074082307518,1,0.03950856253504753,1
1771618498975256576,-0.001634697197005153,1,0.003832051530480385,1,0.0377119779586792,1
1771618498985235200,0.00190991535782814,1,0.007151860743761063,1,0.03982691466808319,1
1771618498995204096,0.004034954588860273,1,0.005352543666958809,1,0.04135254770517349,1
1771618499005163008,0.002264313865453005,1,0.007357493042945862,1,0.04110089689493179,1
1771618499015111936,0.000343420309945941,1,0.005580995697528124,1,0.04172851145267487,1
1771618499025051136,-0.001766873989254236,1,0.004782162606716156,1,0.04101095721125603,1
1771618499034980096,-0.00139079091604799,1,0.002176710870116949,1,0.04380230978131294,1
1771618499044900352,-0.001011771732009947,1,0.005010444205254316,1,0.04115258902311325,1
1771618499054810624,-0.002890440868213773,1,0.006405510008335114,1,0.0441817082464695,1
1771618499064710912,0.000152735025039874,1,0.005203210283070803,1,0.041191466152668,1
1771618499074601728,0.001176775083877146,1,0.00840778648853302,1,0.04353915154933929,1
1771618499084719104,-0.000859149091411382,1,0.00921238586306572,1,0.04262463003396988,1
1771618499094826240,0.0007767242495901883,1,0.009275457821786404,1,0.03887486457824707,1
1771618499104923904,-0.0009528908412903547,1,0.01119409408420324,1,0.0406314879655838,1
1771618499115011328,-0.002845349488779902,1,0.009662359021604061,1,0.04254830256104469,1
1771618499125089024,-0.002037040656432509,1,0.005720250308513641,1,0.04466720297932625,1
1771618499135156992,-0.0003820598358288407,1,0.005947625264525414,1,0.04237969964742661,1
1771618499145214720,-2.159473660867661e-05,1,0.00501997210085392,1,0.04145307838916779,1
1771618499155262464,0.001931240665726364,1,0.004301487933844328,1,0.04126753285527229,1
1771618499165300224,0.003380713518708944,1,0.00809955783188343,1,0.04020702093839645,1
1771618499175327744,0.002422332530841231,1,0.004665594547986984,1,0.04037189483642578,1
1771618499185345536,0.001913913991302252,1,0.005295033566653728,1,0.04170824587345123,1
1771618499195353344,0.000771696213632822,1,0.005994667764753103,1,0.0413237102329731,1
1771618499205351680,-0.0007304209284484386,1,0.007029145024716854,1,0.03868681564927101,1
1771618499215340032,-0.00017212048987858,1,0.002763885771855712,1,0.04037952795624733,1
1771618499225318144,-0.002380895894020796,1,0.001406194176524878,1,0.04115915298461914,1
1771618499235286784,-0.005435759667307138,1,0.004839361645281315,1,0.03990210220217705,1
1771618499245245696,-0.003139169188216329,1,0.001072415267117321,1,0.04231606051325798,1
1771618499255195392,-0.001824077451601624,1,0.004552094265818596,1,0.04330898821353912,1
1771618499265135104,-0.001421696739271283,1,0.007457468658685684,1,0.03972413018345833,1
1771618499275064576,0.0007452493300661445,1,0.0102343475446105,1,0.03781390935182571,1
1771618499284984832,-0.0008356568869203329,1,0.008001711219549179,1,0.04011081531643867,1
1771618499294894848,-0.0009708931902423501,1,0.007460448425263166,1,0.04139280691742897,1
1771618499304795392,-0.001094492617994547,1,0.003860687371343374,1,0.04245252907276154,1
1771618499314686464,-0.002313863486051559,1,0.006728470791131258,1,0.03994373977184296,1
1771618499324803328,-0.003380292560905218,1,0.005997263826429844,1,0.04034684225916862,1
1771618499334910464,0.001403500325977802,1,0.004811172839254141,1,0.04031893238425255,1
1771618499345007360,0.0008146530017256737,1,0.006087599787861109,1,0.04146989062428474,1
1771618499355094784,-0.002293273573741317,1,0.007185714785009623,1,0.04396217316389084,1
1771618499365172480,-0.002794442931190133,1,0.005317243747413158,1,0.04276915267109871,1
1771618499375240192,-0.00257897493429482,1,0.003553886199370027,1,0.04317489638924599,1
1771618499385297664,-0.002227466320618987,1,0.004046997521072626,1,0.04225551337003708,1
1771618499395345408,-0.002756335074082017,1,0.006856658030301332,1,0.04390575736761093,1
1771618499405383168,-0.002327465452253819,1,0.004028891213238239,1,0.04249294102191925,1
1771618499415411200,-0.001940512796863914,1,0.004891702905297279,1,0.04151124507188797,1
1771618499425429504,0.0006829375633969903,1,0.004557955544441938,1,0.04266160726547241,1
1771618499435437824,0.0001160177635028958,1,0.006458793301135302,1,0.04396292567253113,1
1771618499445436416,9.641947690397501e-05,1,0.004792948719114065,1,0.04058151319622993,1
1771618499455425024,0.002070823917165399,1,0.00838484987616539,1,0.04116135090589523,1
1771618499465403648,8.404160325881094e-05,1,0.007907521910965443,1,0.04062536358833313,1
1771618499475372800,-0.00328618404455483,1,0.009354390203952789,1,0.04077133163809776,1
1771618499485331968,-0.003007203340530396,1,0.006685565691441298,1,0.03872896358370781,1
1771618499495281152,-0.003117924090474844,1,0.008358917199075222,1,0.04285790771245956,1
1771618499505220352,-0.001829594140872359,1,0.005580412223935127,1,0.04093225672841072,1
1771618499515150080,0.001149050425738096,1,0.009326438419520855,1,0.04197164252400398,1
1771618499525070080,0.0001132986362790689,1,0.007109530735760927,1,0.04138562455773354,1
1771618499534980352,0.003989769611507654,1,0.01191823091357946,1,0.04055365547537804,1
1771618499544880640,0.001431375043466687,1,0.007030576467514038,1,0.04173409193754196,1
1771618499554770944,-0.0004752138920594007,1,0.003097027074545622,1,0.04323409125208855,1
1771618499564887552,-0.002246764954179525,1,0.007379041519016027,1,0.04385018721222878,1
1771618499574994176,-0.0005446387222036719,1,0.0009836514946073294,1,0.04238720238208771,1
1771618499585091072,0.001762908417731524,1,0.007022582460194826,1,0.0434323325753212,1
1771618499595177728,0.002364055719226599,1,0.007037164643406868,1,0.04196891188621521,1
1771618499605254656,0.002797187538817525,1,0.009965081699192524,1,0.04063256457448006,1
1771618499615321856,0.0007701799040660262,1,0.007597967516630888,1,0.03935924172401428,1
1771618499625379328,0.00155716494191438,1,0.00684345094487071,1,0.04038868471980095,1
1771618499635426304,-0.001475980738177896,1,0.003002441022545099,1,0.04090456292033195,1
1771618499645463552,-0.00326445628888905,1,0.004759895615279675,1,0.0392908863723278,1
1771618499655490816,-0.003540337551385164,1,0.001991861034184694,1,0.04078808054327965,1
1771618499665508608,0.001000429969280958,1,0.0058615542948246,1,0.04177005961537361,1
1771618499675516416,-0.0004672030336223543,1,0.004701119381934404,1,0.03937830030918121,1
1771618499685513728,0.002879071980714798,1,0.008636630140244961,1,0.04100308194756508,1
1771618499695501056,0.00171496847178787,1,0.007666915189474821,1,0.03919028490781784,1
1771618499705478656,0.00230512348935008,1,0.01096635870635509,1,0.03749993443489075,1
1771618499715446272,0.000334193289745599,1,0.006117093842476606,1,0.03940500691533089,1
1771618499725403904,-0.0001619598333491012,1,0.006678013131022453,1,0.0415797121822834,1
1771618499735352064,-0.004494238179177046,1,0.005506959278136492,1,0.04169420152902603,1
1771618499745290240,-0.004890589043498039,1,0.004288425203412771,1,0.04243825376033783,1
1771618499755218432,-0.003529914189130068,1,0.004570563323795795,1,0.04321198537945747,1
1771618499765136640,-0.001725394977256656,1,0.005594559945166111,1,0.03978341072797775,1
1771618499775045120,-0.003276227042078972,1,0.008432384580373764,1,0.04165163263678551,1
1771618499784943616,0.0003863133024424314,1,0.007316952105611563,1,0.04226842150092125,1
1771618499794832128,-0.002391648711636662,1,0.008162831887602806,1,0.04081011936068535,1
1771618499804948480,-0.001294683665037155,1,0.005271311849355698,1,0.03963305428624153,1
1771618499815054848,-0.002032341202721,1,0.005841672886162996,1,0.04008812457323074,1
1771618499825151232,-0.003621788695454597,1,0.00441970769315958,1,0.0419294573366642,1
1771618499835237888,-0.001632812200114131,1,0.003427458694204688,1,0.0412931889295578,1
1771618499845314560,-0.002070259302854538,1,0.00526454346254468,1,0.04016890376806259,1
1771618499855380992,0.0005319816409610212,1,0.008787317201495171,1,0.04283921793103218,1
1771618499865437440,0.0007018189644441009,1,0.009052879177033901,1,0.03966199979186058,1
1771618499875484672,-0.001035164226777852,1,0.01026750542223454,1,0.04093948379158974,1
1771618499885521664,-0.001863083569332957,1,0.008265509270131588,1,0.03982731699943542,1
1771618499895548928,-0.002656230935826898,1,0.01025237515568733,1,0.0424211323261261,1
1771618499905566208,-0.005114031955599785,1,0.006398340221494436,1,0.04028632864356041,1
1771618499915573504,-0.002359687350690365,1,0.006308309268206358,1,0.03850539028644562,1
1771618499925571328,-0.002711598528549075,1,0.007451185956597328,1,0.04181170463562012,1
1771618499935559168,0.001008787658065557,1,0.006743754260241985,1,0.04450229182839394,1
1771618499945537024,-9.614415466785431e-05,1,0.009553722105920315,1,0.04308751598000526,1
1771618499955504896,-0.0004124299739487469,1,0.01019769161939621,1,0.0397496335208416,1
1771618499965463040,-0.0009385981829836965,1,0.006887867581099272,1,0.04122054204344749,1
1771618499975411200,-0.001288766274228692,1,0.005168914794921875,1,0.04185189679265022,1
1771618499985349632,-0.001874933601357043,1,0.003419030690565705,1,0.03958917409181595,1
1771618499995278080,-0.003596567083150148,1,0.005438717547804117,1,0.03952135145664215,1
1771618500005196800,-0.003502618055790663,1,0.003157259663566947,1,0.03943170607089996,1
1771618500015105792,-0.0005237075965851545,1,0.004384404513984919,1,0.03971395269036293,1
1771618500025005824,-0.0006404867745004594,1,0.00458133639767766,1,0.04155590757727623,1
1771618500034896128,0.0001208145258715376,1,0.002702283207327127,1,0.04044583812355995,1
1771618500045010688,0.0009331076871603727,1,0.005952794570475817,1,0.04043609276413918,1
1771618500055115264,-0.001535073271952569,1,0.003740181913599372,1,0.04074077680706978,1
1771618500065209856,-0.001644517993554473,1,0.005243396386504173,1,0.04124215617775917,1
1771618500075294208,-0.001151843345724046,1,0.00646274397149682,1,0.03982807323336601,1
1771618500085369088,0.0003281034296378493,1,0.006137608550488949,1,0.04071095585823059,1
1771618500095434240,0.0002977695257868618,1,0.007338898722082376,1,0.03865761682391167,1
1771618500105489152,0.0001375498832203448,1,0.007579460740089417,1,0.03903229907155037,1
1771618500115534592,0.001680878922343254,1,0.008203247562050819,1,0.04069459810853004,1
1771618500125570048,0.001335566630586982,1,0.009143787436187267,1,0.03902756050229073,1
1771618500135595264,0.002326878951862454,1,0.005940830335021019,1,0.04045030474662781,1
1771618500145611008,-0.0003693111357279122,1,0.004085871856659651,1,0.04241231456398964,1
1771618500155616768,0.0004687777836807072,1,0.005158465355634689,1,0.04191425815224648,1
1771618500165612288,-0.0008176154806278646,1,0.007055586669594049,1,0.04088183119893074,1
1771618500175598336,-0.001030532992444932,1,0.00631079263985157,1,0.04006418958306313,1
1771618500185575680,-0.001096379826776683,1,0.005904309451580048,1,0.0410497821867466,1
1771618500195543296,-0.0009385159355588257,1,0.004859499633312225,1,0.04173786193132401,1
1771618500205500928,-0.001064847921952605,1,0.007558770012110472,1,0.04224983230233192,1
1771618500215448576,-0.0008782570366747677,1,0.007357136812061071,1,0.04208248481154442,1
1771618500225386240,0.0006912221433594823,1,0.00703531363978982,1,0.04253052175045013,1
1771618500235314688,-0.0001693913945928216,1,0.006615777499973774,1,0.04336284846067429,1
1771618500245232896,-0.001334314118139446,1,0.004728951491415501,1,0.04151041805744171,1
1771618500255141632,0.0006477911956608295,1,0.003038415918126702,1,0.04179554805159569,1
1771618500265040384,-0.0004271133220754564,1,0.003977120853960514,1,0.04168295487761497,1
1771618500274929408,0.0006750946631655097,1,0.005049787927418947,1,0.0414460152387619,1
1771618500285043712,0.0003910167433787137,1,0.004895917139947414,1,0.03953623026609421,1
1771618500295147776,-0.001062395516782999,1,0.005455132573843002,1,0.03824760392308235,1
1771618500305242368,-0.001037766691297293,1,0.005743329878896475,1,0.04025134071707726,1
1771618500315327232,-0.00110198964830488,1,0.005976913962513208,1,0.04119636863470078,1
1771618500325401856,-0.0001108074211515486,1,0.004384267143905163,1,0.04208999872207642,1
1771618500335466752,-0.002164090517908335,1,0.00403102720156312,1,0.03861234337091446,1
1771618500345521664,2.355215838178992e-05,1,0.006666250992566347,1,0.04148703068494797,1
1771618500355566336,-6.10918941674754e-05,1,0.004056581296026707,1,0.04167458787560463,1
1771618500365601792,0.0005724444054067135,1,0.004729441832751036,1,0.04176240414381027,1
1771618500375627008,0.0009944718331098557,1,0.007386805023998022,1,0.04256652668118477,1
1771618500385642752,-0.0001772340619936585,1,0.006096033845096827,1,0.0428398922085762,1
1771618500395648768,-0.0001318442227784544,1,0.007984642870724201,1,0.04444107040762901,1
1771618500405644544,-1.544624683447182e-05,1,0.00594073161482811,1,0.03932569921016693,1
1771618500415630592,-0.0006906927446834743,1,0.007531370967626572,1,0.04152246564626694,1
1771618500425606656,-0.003022049553692341,1,0.004559878725558519,1,0.04127694293856621,1
1771618500435572736,-0.002777435351163149,1,0.004158760420978069,1,0.04021277278661728,1
1771618500445528832,-0.003950854763388634,1,0.002868653275072575,1,0.0410473458468914,1
1771618500455475712,-0.00426932517439127,1,0.00320457830093801,1,0.04052243754267693,1
1771618500465412608,-0.002069487236440182,1,0.005366896279156208,1,0.03887235000729561,1
1771618500475340032,-0.001740892301313579,1,0.004754569381475449,1,0.03700222820043564,1
1771618500485257984,2.849777229130268e-05,1,0.006419656332582235,1,0.03932970017194748,1
1771618500495165952,-0.0009548749076202512,1,0.005336516536772251,1,0.04314856231212616,1
1771618500505064192,-0.00224771979264915,1,0.006804678589105606,1,0.03997458890080452,1
1771618500514952704,-0.003802865277975798,1,0.00572717422619462,1,0.03962774947285652,1
1771618500525064704,-0.002177758142352104,1,0.003583474084734917,1,0.03794852644205093,1
1771618500535166976,-0.001669320394285023,1,0.004879236221313477,1,0.03829300403594971,1
1771618500545259264,-0.001164035638794303,1,0.005723382346332073,1,0.03945999220013618,1
1771618500555341824,-0.002449022838845849,1,0.005397995468229055,1,0.04102228581905365,1
1771618500565414400,-0.003714572405442595,1,0.005394080188125372,1,0.04175002872943878,1
1771618500575476736,-0.00255934614688158,1,0.003789546666666865,1,0.04073813185095787,1
1771618500585529088,-0.001062068273313344,1,0.005151813849806786,1,0.04262133687734604,1
1771618500595571968,0.000867945549543947,1,0.007690675556659698,1,0.0414106696844101,1
1771618500605604608,0.002225836273282766,1,0.007432576734572649,1,0.04107777401804924,1
1771618500615627520,0.002076979959383607,1,0.00728328712284565,1,0.04634031280875206,1
1771618500625640448,0.001758209313265979,1,0.003985113464295864,1,0.044154092669487,1
1771618500635643392,-0.0002174177789129317,1,0.006131703499704599,1,0.04293057322502136,1
1771618500645637632,-0.0008240697789005935,1,0.005014596506953239,1,0.04248758032917976,1
1771618500655622144,-0.001004396937787533,1,0.006590052042156458,1,0.04273442924022675,1
1771618500665596672,-0.00159056659322232,1,0.005643501877784729,1,0.04068334773182869,1
1771618500675561472,-0.003613899229094386,1,0.004273721482604742,1,0.03858781605958939,1
1771618500685516288,-0.001268262742087245,1,0.005039914511144161,1,0.04219459369778633,1
1771618500695461120,-0.001876223017461598,1,0.003793633310124278,1,0.04145760089159012,1
1771618500705396480,-0.001342775300145149,1,0.005561217200011015,1,0.04136843234300613,1
1771618500715321856,-0.000814535073004663,1,0.005336982198059559,1,0.04065722599625587,1
1771618500725237248,-0.0007663996075280011,1,0.006784723605960608,1,0.04189212247729301,1
1771618500735142912,-0.0006138341850601137,1,0.003987950272858143,1,0.04237215593457222,1
1771618500745038848,-0.001144256209954619,1,0.0003276828792877495,1,0.04246915876865387,1
1771618500754925056,-0.0008637747378088534,1,0.001120138331316411,1,0.04348254576325417,1
1771618500765035264,9.648634295444936e-05,1,0.002547098556533456,1,0.03979289159178734,1
1771618500775136000,-0.0003714516351465136,1,0.004675033036619425,1,0.04098105430603027,1
1771618500785226752,0.002056194469332695,1,0.00683307833969593,1,0.04431652277708054,1
1771618500795307264,0.0005097148823551834,1,0.007344408426433802,1,0.04359069839119911,1
1771618500805378048,-0.001088783144950867,1,0.005440601147711277,1,0.04443810880184174,1
1771618500815438848,-0.0009124237112700939,1,0.005324045196175575,1,0.04291299730539322,1
1771618500825489920,-0.002897431841120124,1,0.007007129024714231,1,0.03984719887375832,1
1771618500835530752,-0.003103920025750995,1,0.005158392712473869,1,0.03928454592823982,1
1771618500845562112,-0.002531986683607101,1,0.006344283930957317,1,0.04061850160360336,1
1771618500855583744,-0.002662066137418151,1,0.003682216862216592,1,0.03908435627818108,1
1771618500865595392,-0.003032841021195054,1,0.004398990422487259,1,0.04091800004243851,1
1771618500875597056,-0.001055189175531268,1,0.007367010693997145,1,0.04045460745692253,1
1771618500885588992,0.0004311754310037941,1,0.007036446593701839,1,0.03918896242976189,1
1771618500895570944,0.0009784995345398784,1,0.007910158485174179,1,0.04019397869706154,1
1771618500905542912,0.001519456971436739,1,0.005993396509438753,1,0.03998567909002304,1
1771618500915505152,0.001097842934541404,1,0.005948016885668039,1,0.04243141412734985,1
1771618500925457408,-0.00212872913107276,1,0.004906817339360714,1,0.03987854719161987,1
1771618500935399680,0.0005482925334945321,1,0.003720901207998395,1,0.04313362389802933,1
1771618500945332480,0.0003754894132725894,1,0.004501902963966131,1,0.04284177720546722,1
1771618500955255296,-0.001152858138084412,1,0.005421122070401907,1,0.04035879299044609,1
1771618500965168128,0.0006558687891811132,1,0.005891578271985054,1,0.03983629122376442,1
1771618500975071232,0.003376317210495472,1,0.007862205617129803,1,0.04189667850732803,1
1771618500984964352,0.004008423537015915,1,0.01026967912912369,1,0.04233155027031898,1
1771618500994847744,0.003521406557410955,1,0.01031575445085764,1,0.04002758115530014,1
1771618501004956160,0.002598887775093317,1,0.0114982733502984,1,0.03851401433348656,1
1771618501015054592,0.0007092674495652318,1,0.007329914718866348,1,0.03959323093295097,1
1771618501025143296,-0.004707233048975468,1,0.003871736815199256,1,0.03859142959117889,1
1771618501035221760,-0.004484850447624922,1,0.00277311634272337,1,0.04137653857469559,1
1771618501045290752,-0.005172020755708218,1,0.003175143152475357,1,0.04360648617148399,1
1771618501055349760,-0.001824566512368619,1,0.003596316557377577,1,0.04304319247603416,1
1771618501065398528,0.001432397519238293,1,0.006621970795094967,1,0.04019896313548088,1
1771618501075437568,-6.326597213046625e-05,1,0.009187621995806694,1,0.03969274088740349,1
1771618501085466368,0.001736272941343486,1,0.009475814178586006,1,0.03864498063921928,1
1771618501095485696,-0.0002898531965911388,1,0.007300086319446564,1,0.04174583032727242,1
1771618501105495040,-0.001158893690444529,1,0.005504420958459377,1,0.04222628846764565,1
1771618501115494144,-0.001906745252199471,1,0.003264419734477997,1,0.04005454480648041,1
1771618501125483520,-0.003158458042889833,1,0.002147011458873749,1,0.04172228649258614,1
1771618501135462656,-0.003645153483375907,1,0.001327594043686986,1,0.04071883112192154,1
1771618501145432320,-0.005635349545627832,1,0.002678107004612684,1,0.04214253649115562,1
1771618501155393280,-0.002096696989610791,1,0.004798233043402433,1,0.04112441837787628,1
1771618501165344256,0.0003300678799860179,1,0.008478947915136814,1,0.04154485836625099,1
1771618501175284992,0.004047449212521315,1,0.01054409984499216,1,0.04031219705939293,1
1771618501185216256,0.004603798035532236,1,0.01182238943874836,1,0.03906822204589844,1
1771618501195137536,0.0008201626478694379,1,0.009452820755541325,1,0.03980390727519989,1
1771618501205048576,0.0006947150686755776,1,0.006207845639437437,1,0.04198576137423515,1
1771618501214950144,-0.002051061019301414,1,0.003937705419957638,1,0.04246502369642258,1
1771618501224841984,-0.002730012405663729,1,0.004851334728300571,1,0.04029359295964241,1
1771618501234723840,-0.001486105611547828,1,0.0075871292501688,1,0.04177791997790337,1
1771618501244831232,0.0001319012953899801,1,0.009839784353971481,1,0.03945937007665634,1
1771618501254928384,0.0009106745710596442,1,0.01125284004956484,1,0.0403149239718914,1
1771618501265015808,0.0009461466688662767,1,0.007928671315312386,1,0.04145149141550064,1
1771618501275092992,-0.001688007148914039,1,0.007331645581871271,1,0.04076457023620605,1
1771618501285160192,-0.003977202344685793,1,0.004849668126553297,1,0.04110613465309143,1
1771618501295217664,-0.005204328335821629,1,0.005102336406707764,1,0.03878526017069817,1
1771618501305265408,-0.005608913023024797,1,0.004942881409078836,1,0.04029951989650726,1
1771618501315303424,-0.002676898147910833,1,0.002161370823159814,1,0.04330956563353539,1
1771618501325331200,-0.001535348827019334,1,0.00317056686617434,1,0.0415145605802536,1
1771618501335349504,-0.002093273913487792,1,0.004197153728455305,1,0.03929023817181587,1
1771618501345357824,-0.0008064727880991995,1,0.003709039185196161,1,0.0404936783015728,1
1771618501355356160,0.00135960488114506,1,0.005123920273035765,1,0.0416937954723835,1
1771618501365344768,0.0008568131597712636,1,0.006478218827396631,1,0.0391068160533905,1
1771618501375323392,-0.002703174483031034,1,0.00511784665286541,1,0.04017480835318565,1
1771618501385292288,-0.001568330568261445,1,0.002287702634930611,1,0.03948616608977318,1
1771618501395251200,-0.002935938071459532,1,0.002234339714050293,1,0.03925604745745659,1
1771618501405200128,-0.001961129251867533,1,0.002437455346807837,1,0.04097472131252289,1
1771618501415139584,0.001166468253359199,1,0.005214677192270756,1,0.04122868180274963,1
1771618501425069312,0.0004439610347617418,1,0.00777879636734724,1,0.03964197635650635,1
1771618501434989056,0.0001742986787576228,1,0.00945192389190197,1,0.0406515970826149,1
1771618501444899072,-2.811235026456416e-05,1,0.009075352922081947,1,0.0438375361263752,1
1771618501454799360,-0.002196529181674123,1,0.00613684393465519,1,0.04090462252497673,1
1771618501464690688,-0.004852642305195332,1,0.004581069108098745,1,0.03887248411774635,1
1771618501474807552,-0.004412638954818249,1,0.00535410363227129,1,0.03911444172263145,1
1771618501484914944,-0.00413436396047473,1,0.007763891015201807,1,0.03840036690235138,1
1771618501495012096,-0.001715973718091846,1,0.006417409516870975,1,0.03931831195950508,1
1771618501505099520,-0.001231872942298651,1,0.006256281863898039,1,0.04057819396257401,1
1771618501515176960,-0.001245622872374952,1,0.006902098190039396,1,0.04238130524754524,1
1771618501525244160,-0.002119259908795357,1,0.005336028058081865,1,0.04198016971349716,1
1771618501535301632,-0.003132512327283621,1,0.004824369214475155,1,0.04021709784865379,1
1771618501545348864,-0.004322584718465805,1,0.006195025518536568,1,0.04062213003635406,1
1771618501555386368,-0.002049266127869487,1,0.003969329409301281,1,0.04209210351109505,1
1771618501565413632,-0.001158456434495747,1,0.006121936719864607,1,0.04080415517091751,1
1771618501575431424,-0.001463832217268646,1,0.007441180758178234,1,0.04003166034817696,1
1771618501585439488,-0.002991255605593324,1,0.008749677799642086,1,0.03706807643175125,1
1771618501595437824,-0.001160045503638685,1,0.007508344482630491,1,0.03678323701024055,1
1771618501605426176,-0.0008936778758652508,1,0.006386554799973965,1,0.03956816345453262,1
1771618501615404544,-0.005195014178752899,1,0.003581229131668806,1,0.03978117555379868,1
1771618501625372928,-0.003961863927543163,1,0.005735693033784628,1,0.03991667926311493,1
1771618501635331584,-0.001658188179135323,1,0.003715514438226819,1,0.04043909907341003,1
1771618501645280256,-0.001118557527661324,1,0.002462217817083001,1,0.04213191568851471,1
1771618501655218944,-0.0007324040634557605,1,0.006567791569977999,1,0.04460104182362556,1
1771618501665147904,0.0004593857447616756,1,0.008229722268879414,1,0.04089784622192383,1
1771618501675066880,0.002539436798542738,1,0.007225753739476204,1,0.03990047052502632,1
1771618501684976384,0.001190999639220536,1,0.006020694505423307,1,0.03843656182289124,1
1771618501694876160,2.16563930734992e-05,1,0.003743710927665234,1,0.04014190286397934,1
1771618501704765696,-0.0009284759871661663,1,0.002799998270347714,1,0.04028384760022163,1
1771618501714882816,-0.001834064139984548,1,0.005070678889751434,1,0.04079454392194748,1
1771618501724989696,-0.0005021890974603593,1,0.005595155525952578,1,0.03812340274453163,1
1771618501735086848,-0.002818096894770861,1,0.007983991876244545,1,0.03971698880195618,1
1771618501745173760,-0.001429081661626697,1,0.006840517278760672,1,0.04154714941978455,1
1771618501755250944,-0.002134834649041295,1,0.004985027946531773,1,0.04325422644615173,1
1771618501765318144,-0.000713367247954011,1,0.006437866948544979,1,0.04399099946022034,1
1771618501775375104,-0.001547997468151152,1,0.00676202354952693,1,0.04175577685236931,1
1771618501785422592,-0.0017289062961936,1,0.006610861048102379,1,0.04060856625437737,1
1771618501795460096,-0.001975561026483774,1,0.00544658349826932,1,0.03879052773118019,1
1771618501805487104,-0.001787570770829916,1,0.004770608618855476,1,0.03901050612330437,1
1771618501815504384,-0.001170207979157567,1,0.003612390253692865,1,0.04228749126195908,1
1771618501825511680,-0.0008979202248156071,1,0.005378033500164747,1,0.0429263673722744,1
1771618501835509248,-0.0004021319327875972,1,0.007448110263794661,1,0.0428256168961525,1
1771618501845496576,-0.00195033336058259,1,0.009158915840089321,1,0.04028099775314331,1
1771618501855474432,-0.000978336320258677,1,0.009359817020595074,1,0.04119273275136948,1
1771618501865442304,-0.0008075819350779057,1,0.007323759142309427,1,0.03946324437856674,1
1771618501875400192,-0.002771950326859951,1,0.004698284436017275,1,0.03989636152982712,1
1771618501885348096,-0.0006570590776391327,1,0.004662971012294292,1,0.04065576568245888,1
1771618501895286272,0.0006990019464865327,1,0.007534506730735302,1,0.03533230349421501,1
1771618501905214208,-0.0002441543329041451,1,0.009317927062511444,1,0.03835248947143555,1
1771618501915132928,0.0008045824361033738,1,0.006505782250314951,1,0.03875526413321495,1
1771618501925041408,0.001153727993369102,1,0.005477230530232191,1,0.04205020517110825,1
1771618501934940928,0.0001669856137596071,1,0.004491036757826805,1,0.03980797156691551,1
1771618501944830720,0.0005928535247221589,1,0.003001730423420668,1,0.03734050691127777,1
1771618501954947584,0.0005933303036727011,1,0.004743664525449276,1,0.03777724504470825,1
1771618501965054208,-0.0007174374186433852,1,0.005217529833316803,1,0.03649085015058517,1
1771618501975151104,-0.001274489681236446,1,0.005091480445116758,1,0.0395778976380825,1
1771618501985237760,-0.0003492051619105041,1,0.005395092535763979,1,0.04208322986960411,1
1771618501995314688,-3.268469299655408e-05,1,0.004464061930775642,1,0.04341870173811913,1
1771618502005381632,-0.001142225693911314,1,0.004364706110209227,1,0.04282025620341301,1
1771618502015438336,-0.002840349217876792,1,0.003489119466394186,1,0.03938556835055351,1
1771618502025485568,-0.001753222546540201,1,0.004100530408322811,1,0.04155736416578293,1
1771618502035523072,0.0002012885524891317,1,0.003310847096145153,1,0.04001983255147934,1
1771618502045550336,-0.0005648516234941781,1,0.005610204301774502,1,0.04220401123166084,1
1771618502055567872,-0.002272657118737698,1,0.004602995701134205,1,0.04081038758158684,1
1771618502065575168,-0.00562372338026762,1,0.003156736027449369,1,0.04158345609903336,1
1771618502075572992,-0.005143741611391306,1,0.005115873645991087,1,0.04263652488589287,1
1771618502085560832,-0.001139189582318068,1,0.002811169251799583,1,0.04020493850111961,1
1771618502095538432,-0.001870046951808035,1,0.005417027045041323,1,0.04420199617743492,1
1771618502105506304,0.000730131461750716,1,0.005355623085051775,1,0.04153946042060852,1
1771618502115464192,0.0007702668663114309,1,0.002797768451273441,1,0.04253694415092468,1
1771618502125412096,-0.001496532815508544,1,0.003806902794167399,1,0.04084304347634315,1
1771618502135350784,-0.001675826264545321,1,0.00422007916495204,1,0.03902224823832512,1
1771618502145279232,-0.001034573651850224,1,0.007421071175485849,1,0.04233458265662193,1
1771618502155197952,-0.003791668219491839,1,0.006893170531839132,1,0.03999843075871468,1
1771618502165106432,-0.003059791401028633,1,0.003961998037993908,1,0.04322035238146782,1
1771618502175005440,-0.002567276824265718,1,0.002770350314676762,1,0.03968601301312447,1
1771618502184894720,-0.002572824014350772,1,0.008080943487584591,1,0.04031388089060783,1
1771618502195011072,-0.001155797042883933,1,0.006998209748417139,1,0.0390520952641964,1
1771618502205117440,0.0003983103088103235,1,0.005242814775556326,1,0.04054919630289078,1
1771618502215213824,0.0001234528026543558,1,0.006549405865371227,1,0.0422138012945652,1
1771618502225300736,-0.001465245615690947,1,0.003531795926392078,1,0.04150320217013359,1
1771618502235377408,0.0002800943329930305,1,0.003807371947914362,1,0.04110703989863396,1
1771618502245444096,0.001628395402804017,1,0.004761578515172005,1,0.03994077816605568,1
1771618502255500800,0.001274855574592948,1,0.005616365000605583,1,0.04245762899518013,1
1771618502265547520,0.003306014696136117,1,0.006341186352074146,1,0.03905283287167549,1
1771618502275584512,0.001176142250187695,1,0.006487457081675529,1,0.04028370231389999,1
1771618502285611520,-0.001648494508117437,1,0.006938929203897715,1,0.0407121405005455,1
1771618502295628544,-0.002721392083913088,1,0.004999757744371891,1,0.03952853009104729,1
1771618502305635840,-0.001625190023332834,1,0.007873186841607094,1,0.03970377147197723,1
1771618502315632896,-0.0008750316919758916,1,0.006467914674431086,1,0.03624590486288071,1
1771618502325619968,0.0009502489701844752,1,0.007840266451239586,1,0.03822535648941994,1
1771618502335597056,0.0007894318550825119,1,0.008120936341583729,1,0.03834803402423859,1
1771618502345564416,-0.001238168217241764,1,0.007909556850790977,1,0.03849384561181068,1
1771618502355522048,-0.001379147870466113,1,0.006555588915944099,1,0.04040312767028809,1
1771618502365469696,-0.002011296804994345,1,0.004400903824716806,1,0.03852510452270508,1
1771618502375407360,-0.001346751349046826,1,0.004503634758293629,1,0.03911562636494637,1
1771618502385335552,-0.004518882371485233,1,0.0007630741456523538,1,0.03944921121001244,1
1771618502395253760,-0.005507731810212135,1,0.00285187759436667,1,0.03967370837926865,1
1771618502405161728,-0.004801086615771055,1,0.00492684543132782,1,0.03865407034754753,1
1771618502415060224,-0.001794021809473634,1,0.004940362181514502,1,0.03891110420227051,1
1771618502424948992,0.0003016179543919861,1,0.004181113559752703,1,0.03798076510429382,1
1771618502435065088,0.0006111671100370586,1,0.005216866265982389,1,0.0435028038918972,1
1771618502445171456,-0.0007774859550409019,1,0.008580372668802738,1,0.04127864167094231,1
1771618502455267840,-0.001474834163673222,1,0.006073146592825651,1,0.04183494299650192,1
1771618502465354240,-0.003098953049629927,1,0.005135033745318651,1,0.04313857108354568,1
1771618502475430656,-0.001890735817141831,1,0.003744108136743307,1,0.04233638942241669,1
1771618502485497344,-0.001098800916224718,1,0.002803006442263722,1,0.04163021221756935,1
1771618502495554048,-0.001117875217460096,1,0.005375445354729891,1,0.04122211784124374,1
1771618502505601024,-0.0009436328546144068,1,0.004880934022367001,1,0.04251490533351898,1
1771618502515638016,-0.002883225912228227,1,0.005426514428108931,1,0.04065699875354767,1
1771618502525665280,-0.0005733803263865411,1,0.00667807599529624,1,0.04247035831212997,1
1771618502535682560,-0.0005431976751424372,1,0.007191203068941832,1,0.04309235885739326,1
1771618502545690112,0.0001894262968562543,1,0.007066937629133463,1,0.04149596765637398,1
1771618502555687680,0.001628627767786384,1,0.007508045062422752,1,0.04434405267238617,1
1771618502565676032,0.0004539974324870855,1,0.006533600389957428,1,0.04289773106575012,1
1771618502575654400,-8.59599094837904e-06,1,0.006694947369396687,1,0.04458177834749222,1
1771618502585622784,-0.001440302468836308,1,0.007812995463609695,1,0.04550847411155701,1
1771618502595581696,-0.001701242988929152,1,0.003975253086537123,1,0.04456648975610733,1
1771618502605530880,0.0002591469674371183,1,0.005443431902676821,1,0.0432673767209053,1
1771618502615470080,-0.0005962344002909958,1,0.004640316590666771,1,0.04214589297771454,1
1771618502625399296,-0.0006296145729720592,1,0.005189079325646162,1,0.04088327288627625,1
1771618502635318784,-0.0008167869527824223,1,0.004156048409640789,1,0.04076196625828743,1
1771618502645228544,-0.001989202341064811,1,0.004458710551261902,1,0.0428931899368763,1
1771618502655128832,-0.002033618045970798,1,0.003782390151172876,1,0.04353846237063408,1
1771618502665019648,-0.001414025900885463,1,0.003113789018243551,1,0.04304865747690201,1
1771618502675133952,-0.001932013197802007,1,0.004589401185512543,1,0.04420236498117447,1
1771618502685238016,-0.0006278249202296138,1,0.004520720802247524,1,0.04215632006525993,1
1771618502695332608,-0.0007416646694764495,1,0.005709460005164146,1,0.04195825010538101,1
1771618502705416960,0.001243809703737497,1,0.005800667218863964,1,0.0405145026743412,1
1771618502715491584,0.0004888733965344727,1,0.005368504673242569,1,0.04006490856409073,1
1771618502725556480,-0.0007916527101770043,1,0.008242613635957241,1,0.04167956858873367,1
1771618502735611136,-0.0001164420391432941,1,0.006415167357772589,1,0.04070376604795456,1
1771618502745655808,-0.003597660688683391,1,0.002689947141334414,1,0.04232686758041382,1
1771618502755690496,-0.001178970676846802,1,0.00463653402402997,1,0.04178313538432121,1
1771618502765715200,-0.0003821685968432575,1,0.005776087753474712,1,0.04212836921215057,1
1771618502775730176,0.0005601688753813505,1,0.004338074941188097,1,0.04192923381924629,1
1771618502785734912,0.002055944642052054,1,0.006994384340941906,1,0.04241320490837097,1
1771618502795729920,0.001550180371850729,1,0.006519917864352465,1,0.0406886488199234,1
1771618502805714944,-0.0005193135002627969,1,0.007320200093090534,1,0.03899300470948219,1
1771618502815689984,-0.002627026522532105,1,0.005456970073282719,1,0.03961903229355812,1
1771618502825656064,-0.0003405213356018066,1,0.004271725192666054,1,0.03922920301556587,1
1771618502835612416,0.000138588307891041,1,0.004976549651473761,1,0.04022115468978882,1
1771618502845558784,0.001747739152051508,1,0.00439759436994791,1,0.04164429381489754,1
1771618502855494912,0.001738960039801896,1,0.005475281737744808,1,0.04030851647257805,1
1771618502865421824,-0.001368266530334949,1,0.004293807782232761,1,0.03768898546695709,1
1771618502875338496,-0.002789474790915847,1,0.003346648765727878,1,0.03900401294231415,1
1771618502885245696,-0.00240126415155828,1,0.003552255453541875,1,0.04099155217409134,1
1771618502895142912,-0.003208038862794638,1,0.001470296527259052,1,0.0369374006986618,1
1771618502905030144,-0.00459382077679038,1,0.00312792370095849,1,0.04017753526568413,1
1771618502915142144,-0.006365192588418722,1,-0.0007560588419437408,1,0.03687673434615135,1
1771618502925244416,-0.003601158270612359,1,0.005763096269220114,1,0.03916724398732185,1
1771618502935336448,-0.002175924833863974,1,0.00558925187215209,1,0.03905379399657249,1
1771618502945418752,0.002562422771006823,1,0.006945990491658449,1,0.04323437437415123,1
1771618502955490816,0.0008309142431244254,1,0.007282009348273277,1,0.03785782679915428,1
1771618502965552896,-0.001606217818334699,1,0.007115810643881559,1,0.03626339137554169,1
1771618502975605248,-0.003260718658566475,1,0.004392261616885662,1,0.03627730533480644,1
1771618502985647104,-0.004505248740315437,1,-0.0006153230788186193,1,0.03863076120615005,1
1771618502995679488,-0.003245366271585226,1,0.0006491538370028138,1,0.0406646728515625,1
1771618503005702144,-0.0006169804837554693,1,0.00251470971852541,1,0.04284475743770599,1
1771618503015714816,0.002012262586504221,1,0.003696662373840809,1,0.04310506954789162,1
1771618503025717504,0.002652570605278015,1,0.005421099718660116,1,0.04191411286592484,1
1771618503035710464,-0.0008777771727181971,1,0.005213981494307518,1,0.0385197214782238,1
1771618503045693440,-0.0008237984147854149,1,0.0070699960924685,1,0.04076582565903664,1
1771618503055666688,-0.001060856506228447,1,0.00481715053319931,1,0.03979802876710892,1
1771618503065629952,-0.00668621389195323,1,0.001923403353430331,1,0.04067980125546455,1
1771618503075583488,-0.005300594959408045,1,0.001338146394118667,1,0.04079784452915192,1
1771618503085527040,-0.005028067622333765,1,0.001525686820968986,1,0.04029775410890579,1
1771618503095460608,-0.002648852299898863,1,0.003879999043419957,1,0.04246293753385544,1
1771618503105385728,-0.0006794069777242839,1,0.004771211184561253,1,0.0403568409383297,1
1771618503115301120,0.002188650891184807,1,0.007969717495143414,1,0.04342955723404884,1
1771618503125206784,0.0006171202985569835,1,0.005732190795242786,1,0.04463305696845055,1
1771618503135102464,-0.001850512227974832,1,0.005010580644011497,1,0.04468820616602898,1
1771618503144987904,-0.001574522699229419,1,0.003171163843944669,1,0.04231147840619087,1
1771618503155098368,-0.003402744885534048,1,0.00125947711057961,1,0.04229523986577988,1
1771618503165198848,-0.003183352993801236,1,0.001380071509629488,1,0.04091202840209007,1
1771618503175289088,-0.0001687576004769653,1,0.003135221777483821,1,0.04025769606232643,1
1771618503185369600,0.0008258334710262716,1,0.005518011283129454,1,0.04211592301726341,1
1771618503195439872,0.002454015891999006,1,0.004300174303352833,1,0.04108994081616402,1
1771618503205500928,0.0007114721811376512,1,0.003603041637688875,1,0.03985648974776268,1
1771618503215551488,0.001995781669393182,1,0.003839013166725636,1,0.04179104417562485,1
1771618503225592320,-0.0009743928094394505,1,0.005535069387406111,1,0.04316774755716324,1
1771618503235623168,-0.0009666061378084123,1,0.006714350078254938,1,0.04393043741583824,1
1771618503245644544,-0.0006091942777857184,1,0.006545542273670435,1,0.04292823001742363,1
1771618503255655936,0.0003235704498365521,1,0.004672533832490444,1,0.04128846153616905,1
1771618503265657344,-0.001791139831766486,1,0.007244204171001911,1,0.04050493985414505,1
1771618503275648512,-0.002270380733534694,1,0.003422029316425323,1,0.04158148914575577,1
1771618503285629696,-0.001634372514672577,1,0.004372709896415472,1,0.04111237451434135,1
1771618503295601152,-0.002184854354709387,1,0.00818007905036211,1,0.04205277189612389,1
1771618503305562624,-0.003920866176486015,1,0.006776786409318447,1,0.04011508077383041,1
1771618503315514624,-0.002737082308158278,1,0.005621608346700668,1,0.03772372379899025,1
1771618503325456896,-0.00120138144120574,1,0.006004579830914736,1,0.03950392082333565,1
1771618503335390208,-0.001855018897913396,1,0.008091175928711891,1,0.04053507000207901,1
1771618503345313536,0.0008217256981879473,1,0.009327656589448452,1,0.04002293571829796,1
1771618503355227392,0.0001942266535479575,1,0.006479559000581503,1,0.04147147014737129,1
1771618503365131520,0.0001819289027480409,1,0.006795952562242746,1,0.04202066734433174,1
1771618503375025920,0.001677398569881916,1,0.004994782619178295,1,0.03943579271435738,1
1771618503384910336,-0.001023329212330282,1,0.002391361864283681,1,0.03953735157847404,1
1771618503395020544,-0.001009485451504588,1,0.002755875932052732,1,0.04074166342616081,1
1771618503405120768,-0.001641453127376735,1,0.00569483544677496,1,0.04033824428915977,1
1771618503415211264,-0.000660249381326139,1,0.005401764996349812,1,0.04256767407059669,1
1771618503425291776,-0.0006934007396921515,1,0.00609968788921833,1,0.04142695292830467,1
1771618503435362304,-0.001274086185730994,1,0.006352145690470934,1,0.04400242120027542,1
1771618503445422848,-0.000358796096406877,1,0.006584951188415289,1,0.04218466207385063,1
1771618503455473408,-0.001413042773492634,1,0.005662029143422842,1,0.04091896489262581,1
1771618503465513984,-0.004714769776910543,1,0.003358622780069709,1,0.04182593524456024,1
1771618503475544320,-0.004455781541764736,1,0.00424627773463726,1,0.04351053014397621,1
1771618503485565184,-0.003384238108992577,1,0.005724859889596701,1,0.04283998534083366,1
1771618503495575808,-0.001004492165520787,1,0.005221762228757143,1,0.03988701850175858,1
1771618503505576448,-0.001578791649080813,1,0.006345161236822605,1,0.04093547910451889,1
1771618503515566848,-0.001671610283665359,1,0.003365297103300691,1,0.0423838198184967,1
1771618503525547520,-0.001801067148335278,1,0.004500042647123337,1,0.04319462925195694,1
1771618503535518208,-0.001566752442158759,1,0.001272781984880567,1,0.04254544898867607,1
1771618503545478912,-0.000307753449305892,1,0.003781774546951056,1,0.04104439541697502,1
1771618503555429888,-0.000866150890942663,1,0.004777403548359871,1,0.03940457105636597,1
1771618503565370880,-0.0009972318075597286,1,0.003935213666409254,1,0.04141059890389442,1
1771618503575302144,-0.002237549284473062,1,0.004592154175043106,1,0.0401868112385273,1
1771618503585223424,-0.001373013015836477,1,0.00341799994930625,1,0.04040291905403137,1
1771618503595134976,-0.002567098708823323,1,0.006107400637120008,1,0.04210928454995155,1
1771618503605037056,-0.002862901194021106,1,0.0059370007365942,1,0.04382731392979622,1
1771618503614929408,-0.002016294514760375,1,0.005806953646242619,1,0.04448748752474785,1
1771618503624812032,-0.002921947976574302,1,0.005110572092235088,1,0.04253732040524483,1
1771618503634920448,-0.002472573891282082,1,0.004656110424548388,1,0.04220269992947578,1
1771618503645018624,-0.001070239115506411,1,0.007080561015754938,1,0.0420243963599205,1
1771618503655107072,-0.001655444037169218,1,0.003987636882811785,1,0.04058915749192238,1
1771618503665185536,-0.002871103119105101,1,0.005010921042412519,1,0.04050396755337715,1
1771618503675254272,-0.003098346060141921,1,0.004010058473795652,1,0.03961022570729256,1
1771618503685312768,-0.001444832421839237,1,0.004530959762632847,1,0.04195938259363174,1
1771618503695361792,-0.0002250182733405381,1,0.003797542303800583,1,0.04138240963220596,1
1771618503705401088,-0.0005229441449046135,1,0.005542183294892311,1,0.04307481646537781,1
1771618503715430400,0.000305536697851494,1,0.00523826340213418,1,0.04175255447626114,1
1771618503725449728,0.002776660490781069,1,0.009476332925260067,1,0.04226738959550858,1
1771618503735458816,0.001887206686660647,1,0.008643674664199352,1,0.04025423526763916,1
1771618503745458176,-0.001216852804645896,1,0.009420071728527546,1,0.04083976522088051,1
1771618503755447552,-0.001516962423920631,1,0.006503571756184101,1,0.04056563600897789,1
1771618503765427200,-0.002121556550264359,1,0.006040444597601891,1,0.0416029654443264,1
1771618503775396864,-0.003776404075324535,1,0.0029554960783571,1,0.04405219480395317,1
1771618503785356544,-0.003546434687450528,1,0.003714093472808599,1,0.04244915023446083,1
1771618503795306752,-0.002954644616693258,1,0.002269607037305832,1,0.04188558459281921,1
1771618503805247488,-0.003642389085143805,1,0.00525366747751832,1,0.04140584170818329,1
1771618503815177984,-3.299338277429342e-05,1,0.007767076604068279,1,0.03974229469895363,1
1771618503825098752,0.003259932622313499,1,0.0009695393964648247,1,0.04214897751808167,1
1771618503835009536,0.001567142549902201,1,0.001939192647114396,1,0.04235284775495529,1
1771618503844911104,-0.003282673191279173,1,0.002248272066935897,1,0.03972733020782471,1
1771618503854803200,-0.004316036123782396,1,-0.0007584685226902366,1,0.04017907008528709,1
1771618503864685568,-0.004546492826193571,1,0.003669976722449064,1,0.04091139882802963,1
1771618503874792960,-0.00163912505377084,1,0.009862056002020836,1,0.03922553732991219,1
1771618503884890368,-0.0001675329403951764,1,0.009262509644031525,1,0.04067590087652206,1
1771618503894978048,0.0007643699645996094,1,0.009383213706314564,1,0.0392642505466938,1
1771618503905055232,-0.001479349681176245,1,0.008490236476063728,1,0.04003133997321129,1
1771618503915122688,-0.0008177358540706336,1,0.004212025087326765,1,0.03831836581230164,1
1771618503925180160,-0.0009552254341542721,1,0.005246477667242289,1,0.03992695361375809,1
1771618503935228160,-0.002280024811625481,1,0.003156130202114582,1,0.04165961593389511,1
1771618503945266176,-0.00209174701012671,1,0.0034471380058676,1,0.04143716394901276,1
1771618503955293952,-0.003103300230577588,1,0.005805080756545067,1,0.04207970574498177,1
1771618503965312256,-0.003848961321637034,1,0.004415125586092472,1,0.041917834430933,1
1771618503975320320,-0.0008679931052029133,1,0.005744598805904388,1,0.04191236197948456,1
1771618503985318656,-0.0004450660781003535,1,0.004373246803879738,1,0.04167196154594421,1
1771618503995307008,0.0004435009905137122,1,0.00649647181853652,1,0.04033073037862778,1
1771618504005285120,0.002826561452820897,1,0.005030408035963774,1,0.04042921587824821,1
1771618504015253760,0.001008249120786786,1,0.006619652267545462,1,0.04161747917532921,1
1771618504025212672,-0.0006227625999599695,1,0.004073887132108212,1,0.04157004505395889,1
1771618504035161600,0.001731680240482092,1,0.006796420086175203,1,0.03924724087119102,1
1771618504045101312,0.001235014293342829,1,0.007209870498627424,1,0.03776254132390022,1
1771618504055031296,-0.001909827813506126,1,0.008669216185808182,1,0.04154073446989059,1
1771618504064951296,-0.002130156615749002,1,0.008826064877212048,1,0.04416748136281967,1
1771618504074861312,-0.002287033712491393,1,0.00579573679715395,1,0.04214414954185486,1
1771618504084761856,-0.0009469104697927833,1,0.00366007094271481,1,0.04368255659937859,1
1771618504094652672,0.0008323626243509352,1,0.006886214483529329,1,0.04511906951665878,1
1771618504104769792,-0.001831700908951461,1,0.005152428522706032,1,0.04233020544052124,1
1771618504114877184,-0.002587028313428164,1,0.003418237203732133,1,0.04201984032988548,1
1771618504124974336,-0.001056878594681621,1,0.005292682442814112,1,0.04465846717357635,1
1771618504135061504,-0.0006404157029464841,1,0.004799238871783018,1,0.04351548850536346,1
1771618504145138432,0.0002199316077167168,1,0.002414094982668757,1,0.04213668406009674,1
1771618504155205632,-0.0005577942356467247,1,0.004526193719357252,1,0.04011823982000351,1
1771618504165262848,-0.0008835039334371686,1,0.001762793632224202,1,0.04034154489636421,1
1771618504175309824,-0.002271634060889482,1,0.005170488730072975,1,0.04030714556574821,1
1771618504185346816,-0.005647110752761364,1,0.00809536874294281,1,0.04211136698722839,1
1771618504195374592,-0.003052552463486791,1,0.004172606393694878,1,0.0420709103345871,1
1771618504205392128,-0.001731916563585401,1,0.002516692504286766,1,0.04064547643065453,1
1771618504215399936,-0.002718669595196843,1,0.005771256517618895,1,0.03812820836901665,1
1771618504225397760,-0.001276536495424807,1,0.005196830723434687,1,0.03763484954833984,1
1771618504235385344,-0.000588429975323379,1,0.006366285029798746,1,0.03679350391030312,1
1771618504245362944,0.000226897158427164,1,0.006371037568897009,1,0.03961288928985596,1
1771618504255331072,-0.0005907953600399196,1,0.00425531342625618,1,0.04105249419808388,1
1771618504265289472,-0.001729769399389625,1,0.004585674032568932,1,0.04096647351980209,1
1771618504275237888,-0.003032669657841325,1,0.003549949964508414,1,0.04166492447257042,1
1771618504285176064,-0.001589133986271918,1,0.002101336140185595,1,0.04084894061088562,1
1771618504295104768,-0.002120476448908448,1,0.002798971720039845,1,0.04185212031006813,1
1771618504305024512,-0.001065897755324841,1,0.003924359567463398,1,0.04253954440355301,1
1771618504314934272,-0.0002666008367668837,1,0.005956082139164209,1,0.043067816644907,1
1771618504324834304,0.001005659345537424,1,0.002464849967509508,1,0.04392421990633011,1
1771618504334724352,-0.0003351458581164479,1,0.003386159893125296,1,0.04495136812329292,1
1771618504344841216,-0.0005555800162255764,1,0.004711916670203209,1,0.04410155490040779,1
1771618504354948096,-0.002497550332918763,1,0.004647181369364262,1,0.04235740378499031,1
1771618504365044736,-0.001279800548218191,1,0.005719844251871109,1,0.04103650152683258,1
1771618504375131648,-0.002000555396080017,1,0.005834526848047972,1,0.04149288311600685,1
1771618504385208576,-0.001713839243166149,1,0.007675058674067259,1,0.04105618596076965,1
1771618504395275520,-0.001949338358826935,1,0.006032569333910942,1,0.04155441746115685,1
1771618504405332736,-0.001457653008401394,1,0.005531350616365671,1,0.040655467659235,1
1771618504415380224,-0.002968228654935956,1,0.004929046612232924,1,0.04174657911062241,1
1771618504425417472,-0.002882534172385931,1,0.005976557265967131,1,0.04285145923495293,1
1771618504435444992,-0.002233029110357165,1,0.005489140748977661,1,0.04561620950698853,1
1771618504445462528,-0.004068774171173573,1,0.004866480827331543,1,0.04399454966187477,1
1771618504455469824,-0.003138653002679348,1,0.005079993978142738,1,0.04089754447340965,1
1771618504465467648,-0.0006792272906750441,1,0.006201617419719696,1,0.04079347848892212,1
1771618504475455488,-0.0006463042227551341,1,0.006279102526605129,1,0.04094652086496353,1
1771618504485433344,-0.0009901062585413456,1,0.006983271799981594,1,0.04095758125185966,1
1771618504495401216,-0.0003180904313921928,1,0.005664333701133728,1,0.03896103054285049,1
1771618504505359360,0.0008504732977598906,1,0.006727554369717836,1,0.03863958269357681,1
1771618504515307520,0.0006515849381685257,1,0.004353809170424938,1,0.04036513343453407,1
1771618504525245696,-7.765515329083428e-05,1,0.006508748512715101,1,0.04159225896000862,1
1771618504535174400,-0.00141088617965579,1,0.005938685033470392,1,0.04217603430151939,1
1771618504545093120,-0.003256844356656075,1,0.003952565602958202,1,0.04364775121212006,1
1771618504555001856,-0.002580128842964768,1,0.004720370285212994,1,0.04384985566139221,1
1771618504564900608,-0.003114434657618403,1,0.006585352588444948,1,0.04170064628124237,1
1771618504574789888,-0.001582925557158887,1,0.007628448773175478,1,0.04152873158454895,1
1771618504584906752,-0.0007911259890533984,1,0.008110808208584785,1,0.04282985255122185,1
1771618504595013120,-0.0008982279687188566,1,0.007475545629858971,1,0.04275050386786461,1
1771618504605109760,-0.001845506951212883,1,0.007807817310094833,1,0.04164378345012665,1
1771618504615196160,-0.0007229375187307596,1,0.006424250081181526,1,0.0398869700729847,1
1771618504625273088,-0.0009650189895182848,1,0.00725829740986228,1,0.04126046970486641,1
1771618504635340032,-0.001923765172250569,1,0.007002828177064657,1,0.04110134765505791,1
1771618504645396992,-0.003402696223929524,1,0.007915595546364784,1,0.0395338162779808,1
1771618504655443968,-0.003233031136915088,1,0.004453588277101517,1,0.0402645617723465,1
1771618504665480960,-0.001047304482199252,1,0.004116042051464319,1,0.04195787012577057,1
1771618504675508224,-0.001587932463735342,1,0.003911267500370741,1,0.04118994250893593,1
1771618504685525248,0.001088717835955322,1,0.003968959208577871,1,0.03935020789504051,1
1771618504695532800,0.001163395354524255,1,0.007232938427478075,1,0.04215240105986595,1
1771618504705530368,0.0002066952583845705,1,0.007191319484263659,1,0.03943406417965889,1
1771618504715517696,-0.0002325193199794739,1,0.007332479581236839,1,0.0390876941382885,1
1771618504725495296,-0.00140544178429991,1,0.006660649552941322,1,0.03910858184099197,1
1771618504735462912,-0.00308891898021102,1,0.002553012454882264,1,0.04307707399129868,1
1771618504745420800,-0.003444842761382461,1,0.005197422578930855,1,0.04210874065756798,1
1771618504755368704,-0.005091540515422821,1,0.00638284906744957,1,0.04197889938950539,1
1771618504765306880,-0.004435757175087929,1,0.008612579666078091,1,0.03808653727173805,1
1771618504775235072,-0.00228317710570991,1,0.004644187167286873,1,0.04077990353107452,1
1771618504785155072,-0.003502031555399299,1,0.006850946694612503,1,0.04077661037445068,1
1771618504795065088,-0.002776578767225146,1,0.00786247756332159,1,0.04126245900988579,1
1771618504804965632,-0.001922259922139347,1,0.007417012937366962,1,0.04153282940387726,1
1771618504814856448,-0.00251767598092556,1,0.006169507279992104,1,0.03995854780077934,1
1771618504824972800,-0.00202584289945662,1,0.005644229706376791,1,0.0392167866230011,1
1771618504835078912,-0.0007553128525614738,1,0.004957134369760752,1,0.03956621512770653,1
1771618504845175552,-0.001065782853402197,1,0.004836172331124544,1,0.04205939546227455,1
1771618504855262208,-0.0008850616868585348,1,0.006773343309760094,1,0.04146501049399376,1
1771618504865338624,0.0009741495596244931,1,0.005030443426221609,1,0.04068518429994583,1
1771618504875405568,0.0006175105227157474,1,0.00819501094520092,1,0.0407247319817543,1
1771618504885462272,-0.0001916988403536379,1,0.007194451987743378,1,0.04010453447699547,1
1771618504895509248,-0.001167106442153454,1,0.007056775502860546,1,0.04215328767895699,1
1771618504905546496,-3.472522075753659e-05,1,0.006383248139172792,1,0.04084113240242004,1
1771618504915573760,-5.785567918792367e-05,1,0.004072474781423807,1,0.04218033328652382,1
1771618504925590784,0.0002922482090070844,1,0.006649535149335861,1,0.04083212837576866,1
1771618504935598080,-0.001249375054612756,1,0.005833896808326244,1,0.04084564372897148,1
1771618504945595392,-0.0008908130694180727,1,0.005330290179699659,1,0.0435086116194725,1
1771618504955582976,-0.002006241353228688,1,0.004167858976870775,1,0.04074114933609962,1
1771618504965560832,-0.0026851377915591,1,0.005361693445593119,1,0.0409449115395546,1
1771618504975528704,-0.003220572602003813,1,0.005631791427731514,1,0.04225382581353188,1
1771618504985487104,-0.0006929340306669474,1,0.006582568865269423,1,0.04406656697392464,1
1771618504995435520,-0.001773188356310129,1,0.006725898943841457,1,0.04180815443396568,1
1771618505005374208,-0.001160289160907269,1,0.004741779528558254,1,0.04376792907714844,1
1771618505015303168,-0.001805624808184803,1,0.006066723261028528,1,0.04181947186589241,1
1771618505025222144,0.001003639656119049,1,0.007532362826168537,1,0.04099652543663979,1
1771618505035131136,8.256154251284897e-05,1,0.006431916262954473,1,0.04257527738809586,1
1771618505045031680,0.0005337087204679847,1,0.005059592425823212,1,0.04323935508728027,1
1771618505054922496,-0.002055488992482424,1,0.006631435826420784,1,0.04192954301834106,1
1771618505065037056,-0.003292060922831297,1,0.007186247035861015,1,0.04126594588160515,1
1771618505075141632,-0.001356517663225532,1,0.007927711121737957,1,0.04045395180583,1
1771618505085235712,-0.0006609692936763167,1,0.007005275227129459,1,0.04097698628902435,1
1771618505095320064,0.001643259776756167,1,0.006041052751243114,1,0.03971288725733757,1
1771618505105394432,-0.0007019706536084414,1,0.007708169519901276,1,0.03964222967624664,1
1771618505115459328,0.0002647302171681076,1,0.007264515850692987,1,0.03978577256202698,1
1771618505125514240,0.0003455348778516054,1,0.006912315264344215,1,0.04055489227175713,1
1771618505135558656,-0.001927167177200317,1,0.001625342410989106,1,0.04155007377266884,1
1771618505145593344,-0.0005776865873485804,1,0.005728140473365784,1,0.04358680918812752,1
1771618505155618048,-0.0003498553996905684,1,0.005924826022237539,1,0.04315970465540886,1
1771618505165633024,0.0001270848733838648,1,0.003245356027036905,1,0.04266469180583954,1
1771618505175637760,-0.001838235068134964,1,0.005924329627305269,1,0.04196484386920929,1
1771618505185633024,-0.0005529089248739183,1,0.004065504297614098,1,0.03979326784610748,1
1771618505195618304,-0.001709309406578541,1,0.00310359918512404,1,0.03888081759214401,1
1771618505205593344,-0.002720689168199897,1,0.004685831721872091,1,0.04159770160913467,1
1771618505215559424,-0.001280688098631799,1,0.004073537420481443,1,0.042840875685215,1
1771618505225515520,-0.001175403129309416,1,0.006645745132118464,1,0.04078475385904312,1
1771618505235461632,-0.001544757862575352,1,0.006582391448318958,1,0.04123717918992043,1
1771618505245397760,-0.002827562857419252,1,0.004732754547148943,1,0.03981916233897209,1
1771618505255324416,-0.003275861265137792,1,0.006169376894831657,1,0.0411711223423481,1
1771618505265241088,-0.00214830320328474,1,0.006065398454666138,1,0.0413505993783474,1
1771618505275148032,-0.002063599647954106,1,0.003057322930544615,1,0.04158718138933182,1
1771618505285045248,-0.003496513003483415,1,0.005926254671066999,1,0.04165011644363403,1
1771618505294932480,-0.00333418813534081,1,0.005483370739966631,1,0.03847162425518036,1
1771618505305044736,-0.004606554284691811,1,0.005598323885351419,1,0.03997605666518211,1
1771618505315147264,-0.004966546781361103,1,0.003763643791899085,1,0.04229563474655151,1
1771618505325239552,-0.005627501755952835,1,0.00436970591545105,1,0.0413091741502285,1
1771618505335322112,-0.001829745247960091,1,0.005438477266579866,1,0.03886967152357101,1
1771618505345394432,-0.001711733639240265,1,0.00651266286149621,1,0.04001361131668091,1
1771618505355457024,-0.003656943794339895,1,0.006104299332946539,1,0.03984390571713448,1
1771618505365509376,-0.003840758465230465,1,0.00904241856187582,1,0.04075527191162109,1
1771618505375552256,-0.002851295983418822,1,0.006545542739331722,1,0.03867068514227867,1
1771618505385585152,-0.001267224433831871,1,0.005598199088126421,1,0.04085777699947357,1
1771618505395607552,-0.002637230325490236,1,0.002073902636766434,1,0.04104769229888916,1
1771618505405620224,-0.002054428914561868,1,0.003765156725421548,1,0.04206307232379913,1
1771618505415622912,-0.002115020528435707,1,0.003940925467759371,1,0.04020782187581062,1
1771618505425615872,-0.005353109445422888,1,0.004902999848127365,1,0.04040789976716042,1
1771618505435598848,-0.002705599647015333,1,0.005026938859373331,1,0.04028164967894554,1
1771618505445571840,-0.002865605987608433,1,0.006293662823736668,1,0.0386432558298111,1
1771618505455535104,-7.465956150554121e-05,1,0.008474305272102356,1,0.03805451840162277,1
1771618505465488384,-0.001129976357333362,1,0.00710377050563693,1,0.03813650459051132,1
1771618505475431680,0.0007382398471236229,1,0.004221844486892223,1,0.04069018363952637,1
1771618505485365504,0.0002828318974934518,1,0.005614034831523895,1,0.03912932798266411,1
1771618505495289600,-3.218455822207034e-05,1,0.00510871410369873,1,0.03979282081127167,1
1771618505505204224,-0.001439087092876434,1,0.006582368165254593,1,0.04302982240915298,1
1771618505515108608,-0.001047341851517558,1,0.006890891119837761,1,0.04114466533064842,1
1771618505525003520,-0.0002990203793160617,1,0.007428505457937717,1,0.03919676691293716,1
1771618505534888704,-0.002643552143126726,1,0.009030177257955074,1,0.03958539664745331,1
1771618505545000960,-0.004460341762751341,1,0.009974891319870949,1,0.03885034471750259,1
1771618505555103232,-0.007464859168976545,1,0.004661799408495426,1,0.04055585712194443,1
1771618505565195264,-0.00890648365020752,1,0.00351839023642242,1,0.04085849598050117,1
1771618505575277568,-0.006626865826547146,1,0.00407006498426199,1,0.03855714201927185,1
1771618505585349888,-0.001882150769233704,1,0.008351787924766541,1,0.03844063356518745,1
1771618505595412480,0.0006558976601809263,1,0.01041646022349596,1,0.03821088373661041,1
1771618505605464832,0.003091484308242798,1,0.0110093392431736,1,0.04032441601157188,1
1771618505615507712,0.001570677384734154,1,0.009808225557208061,1,0.04114865511655807,1
1771618505625540352,0.0008983513107523322,1,0.008104192093014717,1,0.04115543141961098,1
1771618505635563264,-0.0003791547496803105,1,0.007008657325059175,1,0.04125962033867836,1
1771618505645576192,-0.001399586675688624,1,0.005522348452359438,1,0.03916888311505318,1
1771618505655579392,-0.002389965578913689,1,0.00382713507860899,1,0.03831687197089195,1
1771618505665573120,-0.002142280805855989,1,0.001223954604938626,1,0.03981446847319603,1
1771618505675556864,-0.002289152704179287,1,0.004038728307932615,1,0.04027963429689407,1
1771618505685530624,-0.002546816365793347,1,0.004035453777760267,1,0.04106215015053749,1
1771618505695494400,-0.001927739009261131,1,0.007154313381761312,1,0.03797189891338348,1
1771618505705448704,0.0007528390269726515,1,0.007989518344402313,1,0.03984757512807846,1
1771618505715393024,-0.0006309874006547034,1,0.006700342521071434,1,0.03951356559991837,1
1771618505725327360,-0.002972705289721489,1,0.004815090913325548,1,0.0409407913684845,1
1771618505735251712,-0.004137937445193529,1,0.003909499384462833,1,0.04120932519435883,1
1771618505745166592,-0.00577892828732729,1,0.003651037346571684,1,0.03933954983949661,1
1771618505755071744,-0.003972171805799007,1,0.005159000866115093,1,0.03774724155664444,1
1771618505764967168,-0.00206095864996314,1,0.005425010342150927,1,0.03945845365524292,1
1771618505774852864,-0.001903544995002449,1,0.005509230308234692,1,0.03955698013305664,1
1771618505784963328,-0.001249465742148459,1,0.00451434263959527,1,0.03850918263196945,1
1771618505795063808,-0.00149155140388757,1,0.005565397907048464,1,0.04125789925456047,1
1771618505805154048,-0.0007397126173600554,1,0.00509716710075736,1,0.0414687767624855,1
1771618505815234816,-0.004663207568228245,1,0.003557966090738773,1,0.04152100160717964,1
1771618505825305600,-0.004705393686890602,1,0.003099158639088273,1,0.03934819251298904,1
1771618505835366144,-0.00522674061357975,1,0.004072440788149834,1,0.03933246806263924,1
1771618505845417216,-0.002646721666678786,1,0.004982679150998592,1,0.03898739442229271,1
1771618505855458048,-0.003018354764208198,1,0.006381371058523655,1,0.03858273848891258,1
1771618505865489152,-0.002581143751740456,1,0.006232539657503366,1,0.03864327073097229,1
1771618505875510272,4.307154449634254e-05,1,0.008204681798815727,1,0.04002728313207626,1
1771618505885521408,-0.000858021667227149,1,0.007214882411062717,1,0.04045956954360008,1
1771618505895522560,-0.0007043125224299729,1,0.006665423978120089,1,0.03931106626987457,1
1771618505905514752,-0.001381914829835296,1,0.006334810052067041,1,0.04002497345209122,1
1771618505915496960,-0.000845751550514251,1,0.004474224522709846,1,0.04305196925997734,1
1771618505925469184,-0.001806216663680971,1,0.002535625360906124,1,0.04023174941539764,1
1771618505935431424,-0.003589329309761524,1,0.001529189292341471,1,0.03970753028988838,1
1771618505945383936,-0.002500909380614758,1,0.002592568751424551,1,0.03894584998488426,1
1771618505955326464,-0.0016109230928123,1,0.004232061095535755,1,0.04015010967850685,1
1771618505965259264,-0.00272234552539885,1,0.00600737426429987,1,0.0422377735376358,1
1771618505975182080,-0.001624319353140891,1,0.005715167615562677,1,0.04215243831276894,1
1771618505985095168,-0.0008406795677728951,1,0.006177658680826426,1,0.04576026275753975,1
1771618505994998528,-6.905320333316922e-05,1,0.004666526336222887,1,0.04204751551151276,1
1771618506004892160,-0.001698609907180071,1,0.003686849027872086,1,0.04291408136487007,1
1771618506014775808,-0.004504160955548286,1,0.00626006443053484,1,0.04238945618271828,1
1771618506024884224,-0.006400222890079021,1,0.01024284772574902,1,0.03854318335652351,1
1771618506034982656,-0.005092047154903412,1,0.0069442936219275,1,0.04253129661083221,1
1771618506045071360,-0.001340117654763162,1,0.004333400167524815,1,0.04026064276695251,1
1771618506055149824,0.0007251157076098025,1,0.002866568509489298,1,0.04798350483179092,1
1771618506065218560,0.00280163181014359,1,0.01740424335002899,1,0.04283344373106956,1
1771618506075277568,0.0007780520245432854,1,0.001578752649948001,1,0.03961733356118202,1
1771618506085326848,-0.002712990157306194,1,0.005322984419763088,1,0.04188574478030205,1
1771618506095365888,-0.006536682602018118,1,-0.0007229147013276815,1,0.04240221157670021,1
1771618506105395456,-0.005859211552888155,1,0.004116513300687075,1,0.0384453609585762,1
1771618506115415040,-0.002950571943074465,1,-0.001741884159855545,1,0.03945308923721313,1
1771618506125424640,0.0001985165872611105,1,0.007865697145462036,1,0.04059401154518127,1
1771618506135424256,0.002294880570843816,1,0.004460870753973722,1,0.04021899774670601,1
1771618506145414144,0.0045745181851089,1,0.01129982341080904,1,0.04320639744400978,1
1771618506155394048,0.002473592292517424,1,0.004679242148995399,1,0.04247796162962914,1
1771618506165363968,0.00209513702429831,1,0.005711682140827179,1,0.04584699496626854,1
1771618506175324416,-0.002412426518276334,1,0.004157425835728645,1,0.04268806800246239,1
1771618506185275392,-0.002344471169635653,1,0.0007948594284243882,1,0.04162318632006645,1
1771618506195216128,-0.0009814604418352246,1,0.001725578913465142,1,0.04403335228562355,1
1771618506205147392,-0.003949874546378851,1,0.005701283924281597,1,0.04387733340263367,1
1771618506215068672,-0.003891301807016134,1,0.005437147803604603,1,0.0444287545979023,1
1771618506224979968,-0.003796873847022653,1,0.008823452517390251,1,0.04175658151507378,1
1771618506234883328,-0.0009159453911706805,1,0.008047468028962612,1,0.03947788849473,1
1771618506244776960,5.187015631236136e-05,1,0.009365411475300789,1,0.03980091214179993,1
1771618506254660608,-0.002235083840787411,1,0.007745844777673483,1,0.04355297610163689,1
1771618506264768000,-0.003682634793221951,1,0.003358041401952505,1,0.04248928651213646,1
1771618506274865408,-0.004205060191452503,1,0.00399022176861763,1,0.04348177090287209,1
1771618506284953088,-0.005011270288378,1,0.006312706042081118,1,0.04248055070638657,1
1771618506295030272,-0.0006310031749308109,1,0.005687334574759007,1,0.04127296060323715,1
1771618506305097984,0.001018485520035028,1,0.005064613651484251,1,0.04167516902089119,1
1771618506315155968,0.001566580147482455,1,0.01305780187249184,1,0.04169807955622673,1
1771618506325203712,-0.001231478992849588,1,0.007610952015966177,1,0.0407969206571579,1
1771618506335241728,-2.414861228317022e-06,1,0.005936377681791782,1,0.04242964088916779,1
1771618506345269760,-0.004213369451463223,1,0.006962353829294443,1,0.04270623624324799,1
1771618506355288064,-0.005752627737820148,1,0.003728491486981511,1,0.04255706816911697,1
1771618506365296384,-0.004179413896054029,1,0.005931470077484846,1,0.03876541927456856,1
1771618506375294720,-0.005126423202455044,1,0.005890262313187122,1,0.04025629162788391,1
1771618506385283840,-0.002214037580415606,1,0.007999423891305923,1,0.04026438668370247,1
1771618506395262976,-0.0007194885401986539,1,0.006488680373877287,1,0.04159803315997124,1
1771618506405232128,0.0007434059516526759,1,0.005765505135059357,1,0.03847933933138847,1
1771618506415191296,0.0005580596043728292,1,0.003845707280561328,1,0.03944091126322746,1
1771618506425141248,0.002427726052701473,1,0.006039426196366549,1,0.04020695388317108,1
1771618506435080960,-0.002193705178797245,1,0.004770219791680574,1,0.04323471337556839,1
1771618506445011200,-0.001528789172880352,1,0.001452319440431893,1,0.04197002947330475,1
1771618506454931456,-0.002281525870785117,1,0.005251307971775532,1,0.04170731455087662,1
1771618506464841728,-0.002012527780607343,1,0.006484132260084152,1,0.04295121505856514,1
1771618506474742272,4.209594044368714e-05,1,0.006291029043495655,1,0.04098083451390266,1
1771618506484633088,0.001279891934245825,1,0.006914321333169937,1,0.04118672385811806,1
1771618506494749952,5.77893115405459e-05,1,0.008001971989870071,1,0.0424993634223938,1
1771618506504857344,-0.002473152242600918,1,0.004608946852385998,1,0.04199288412928581,1
1771618506514954496,-0.00194319651927799,1,0.004992943722754717,1,0.04391109198331833,1
1771618506525041920,-0.002549074357375503,1,0.003305476857349277,1,0.04159634560346603,1
1771618506535119360,-0.003083015559241176,1,0.005416593514382839,1,0.04048878699541092,1
1771618506545186560,-0.00174616661388427,1,0.003468055976554751,1,0.04027295485138893,1
1771618506555244288,-0.0001141545726568438,1,0.006502670701593161,1,0.04034469649195671,1
1771618506565292032,-0.001060203998349607,1,0.006974983029067516,1,0.04012677073478699,1
1771618506575329280,-0.0015655099414289,1,0.006125294603407383,1,0.04148294776678085,1
1771618506585356544,-0.001735528814606369,1,0.004099755547940731,1,0.04350584000349045,1
1771618506595374080,-0.002595782512798905,1,0.005776691250503063,1,0.04051759093999863,1
1771618506605381632,-0.001879601622931659,1,0.007252000272274017,1,0.04096705839037895,1
1771618506615379200,0.0005312866996973753,1,0.007134852930903435,1,0.04156416282057762,1
1771618506625367040,0.0009645238751545548,1,0.007465249393135309,1,0.04124575480818748,1
1771618506635344640,-0.0003152744320686907,1,0.007654098328202963,1,0.04165799170732498,1
1771618506645312768,-0.001603656099177897,1,0.005263903643935919,1,0.04178387671709061,1
1771618506655270912,-0.003328049555420876,1,0.006626592483371496,1,0.0407930314540863,1
1771618506665218816,-0.00300297630019486,1,0.005966043565422297,1,0.03878670930862427,1
1771618506675156992,-0.001754735829308629,1,0.003367617027834058,1,0.03968784958124161,1
1771618506685084928,-0.002157333772629499,1,0.003041073447093368,1,0.04068912193179131,1
1771618506695003136,-0.001723114750348032,1,0.004125647246837616,1,0.04148148000240326,1
1771618506704911360,-0.001379498513415456,1,0.003315637586638331,1,0.04166556149721146,1
1771618506714809856,-0.00289234914816916,1,0.005330988205969334,1,0.03955024480819702,1
1771618506724698368,-0.002134957350790501,1,0.006108685862272978,1,0.03997943550348282,1
1771618506734815488,-0.000439508177805692,1,0.00263958889991045,1,0.03815397620201111,1
1771618506744922624,-0.00232121255248785,1,0.002804895164445043,1,0.04073543846607208,1
1771618506755019520,-0.001646971330046654,1,0.003991228062659502,1,0.04252975061535835,1
1771618506765106688,-0.001273191766813397,1,0.006674263160675764,1,0.04040760546922684,1
1771618506775183872,-0.001906803576275706,1,0.007191437762230635,1,0.04083742201328278,1
1771618506785250816,-0.0007514683529734612,1,0.005896436516195536,1,0.03876693919301033,1
1771618506795308032,0.0007537227356806397,1,0.00649625388905406,1,0.04006234183907509,1
1771618506805355264,0.001562681049108505,1,0.005601595155894756,1,0.041657455265522,1
1771618506815392768,-0.0006069443770684302,1,0.005375426728278399,1,0.0426647961139679,1
1771618506825420032,1.443963265046477e-05,1,0.005805610213428736,1,0.04120100662112236,1
1771618506835437568,-0.003002404468134046,1,0.005395114421844482,1,0.04250728338956833,1
1771618506845445120,-0.003671637969091535,1,0.004630514420568943,1,0.04078526049852371,1
1771618506855442688,-0.0007331009255722165,1,0.006440415978431702,1,0.03991019725799561,1
1771618506865430528,-0.001844960730522871,1,0.00732502294704318,1,0.04009867459535599,1
1771618506875408896,-0.003318801987916231,1,0.007343302015215158,1,0.04345939308404922,1
1771618506885377280,-0.000808972748927772,1,0.00774290319532156,1,0.0420944020152092,1
1771618506895336192,-0.0006119284662418067,1,0.008319230750203133,1,0.04231393337249756,1
1771618506905285120,-0.001756394514814019,1,0.007797925267368555,1,0.04420817643404007,1
1771618506915224064,-0.001456716796383262,1,0.006930059753358364,1,0.04167280718684196,1
1771618506925153024,-0.0003866567567456514,1,0.005561087280511856,1,0.04259103164076805,1
1771618506935072768,-0.00164775550365448,1,0.005149224307388067,1,0.04254318028688431,1
1771618506944982272,-0.002193450927734375,1,0.005745094269514084,1,0.04446323961019516,1
