Time,inertial-6286.188861:estLinearAccelX,inertial-6286.188861:estLinearAccelX:valid,inertial-6286.188861:estLinearAccelY,inertial-6286.188861:estLinearAccelY:valid,inertial-6286.188861:estLinearAccelZ,inertial-6286.188861:estLinearAccelZ:valid,inertial-6286.188861:estAngularRateX,inertial-6286.188861:estAngularRateX:valid,inertial-6286.188861:estAngularRateY,inertial-6286.188861:estAngularRateY:valid,inertial-6286.188861:estAngularRateZ,inertial-6286.188861:estAngularRateZ:valid
1772122735090840064,0.001267528859898448,1,0.0003918060683645308,1,0.04225806519389153,1,0.0001712863449938595,1,-5.856186544406228e-05,1,1.369717938359827e-05,1
1772122735101523456,0.001885886420495808,1,0.001146794529631734,1,0.04129546135663986,1,0.0003748580638784915,1,0.0001187917878269218,1,0.0002479843678884208,1
1772122735112101888,0.001515961717814207,1,0.002286668866872787,1,0.04151881486177444,1,0.0001542993413750082,1,0.0002705898659769446,1,0.0002043553104158491,1
1772122735122576640,0.00274471309967339,1,5.571579094976187e-06,1,0.04121526330709457,1,0.0002216002612840384,1,0.0003024219477083534,1,2.84525867755292e-05,1
1772122735132947456,0.002104004146531224,1,-0.002481983043253422,1,0.04279842600226402,1,0.0002212522231275216,1,0.0003423936432227492,1,0.0001935150066856295,1
1772122735143215872,0.002020424231886864,1,-0.002288789721205831,1,0.0419163852930069,1,-0.0003684585099108517,1,0.0004745235200971365,1,0.0002507605240680277,1
1772122735153384192,0.00287521886639297,1,-0.00266814511269331,1,0.04450153186917305,1,-3.044561162823811e-05,1,0.000238330612774007,1,-4.994799382984638e-07,1
1772122735163451136,0.001813753275200725,1,-0.001082926406525075,1,0.04435152187943459,1,0.0003521332400850952,1,-0.0001209225956699811,1,0.0002977027324959636,1
1772122735173417984,0.000390105415135622,1,-0.001229477464221418,1,0.04379463568329811,1,0.0005747810355387628,1,5.994268576614559e-05,1,3.05235807900317e-05,1
1772122735183288064,0.00188772683031857,1,-0.0006047873175702989,1,0.04079261422157288,1,0.0002723328361753374,1,-2.723344368860126e-05,1,9.794332436285913e-05,1
1772122735193060096,0.0009029877255670726,1,-0.001443231361918151,1,0.04258763790130615,1,9.223890083376318e-05,1,0.0001464835950173438,1,-5.376633271225728e-05,1
1772122735202736128,0.0007207713788375258,1,-0.0002153974492102861,1,0.04236295446753502,1,0.0003047806094400585,1,0.0002966646861750633,1,6.965906504774466e-05,1
1772122735212316928,0.002003648318350315,1,0.001474726595915854,1,0.04511497169733047,1,0.0001364907948300242,1,0.0001585544378031045,1,-2.564461465226486e-05,1
1772122735221807616,-0.0005105453310534358,1,0.000809802149888128,1,0.04085762426257133,1,-9.594010043656453e-05,1,2.705489168874919e-05,1,-7.806404755683616e-05,1
1772122735231206400,-0.0008075713412836194,1,0.0003462900931481272,1,0.04176266118884087,1,-7.50845720176585e-05,1,0.0002265259536216035,1,-0.0003297192160971463,1
1772122735240511488,-0.002792468992993236,1,-0.0004808716184925288,1,0.04486487805843353,1,-0.0003774363431148231,1,0.00015198094479274,1,-0.0002570985234342515,1
1772122735250967552,-0.0004474700835999101,1,0.0006811862695030868,1,0.04170990735292435,1,-0.0004492170992307365,1,-0.0001595600333530456,1,-0.0001298825809499249,1
1772122735261630464,0.001277816598303616,1,-0.000264391943346709,1,0.04398930072784424,1,-9.315569332102314e-05,1,9.413807129021734e-05,1,-0.0001874473528005183,1
1772122735272187904,0.001537251053377986,1,-0.000870471412781626,1,0.04554297029972076,1,-0.000264112779404968,1,-0.0001396588340867311,1,-5.881302058696747e-07,1
1772122735282642176,-0.002266291063278913,1,-0.001133878831751645,1,0.04452063888311386,1,-0.0003634861786849797,1,0.0002378007338847965,1,7.594577618874609e-05,1
1772122735292993536,0.001310733496211469,1,-0.002547064563259482,1,0.03952783346176147,1,-2.689356188056991e-05,1,-6.260995724005625e-05,1,0.0001669124030740932,1
1772122735303244800,-0.0008504245197400451,1,-0.00120625551789999,1,0.04241760447621346,1,0.0001250447239726782,1,-9.871795555227436e-06,1,-1.643919677007943e-05,1
1772122735313395200,0.002100700279697776,1,0.000568297749850899,1,0.04477675631642342,1,5.292759306030348e-05,1,3.094072599196807e-05,1,-0.0002294915029779077,1
1772122735323444224,0.001589974388480186,1,0.002968442160636187,1,0.04214252904057503,1,0.0001659524714341387,1,6.698264769511297e-05,1,-0.0001760369341354817,1
1772122735333395200,0.002031359355896711,1,0.0003510889946483076,1,0.04459657892584801,1,0.0001300397707382217,1,0.0002238822780782357,1,2.425241837045178e-05,1
1772122735343247616,-0.0001839724718593061,1,0.0009859807323664427,1,0.04447837173938751,1,0.0003421768778935075,1,9.896316623780876e-05,1,2.951317583210766e-05,1
1772122735353002496,-0.0003685486153699458,1,0.0006812516367062926,1,0.04597895592451096,1,2.563038287917152e-05,1,-4.296122642699629e-05,1,-0.0001429177355021238,1
1772122735362662400,0.0004746876074932516,1,0.002203681506216526,1,0.03679664433002472,1,8.424573024967685e-05,1,-0.0002867090806830674,1,-0.0002876340877264738,1
1772122735372226048,0.0001799644087441266,1,0.0002756175817921758,1,0.0413990393280983,1,-9.765586582943797e-05,1,-0.0004275455430615693,1,-0.0001419988839188591,1
1772122735381694464,0.0003625236568041146,1,0.001245163381099701,1,0.04587364196777344,1,-0.0002420868549961597,1,-0.0001877550967037678,1,-0.0003024934267159551,1
1772122735391071232,-3.97331896238029e-05,1,0.001088692457415164,1,0.04557239636778831,1,-6.290706551226322e-06,1,-0.0004230423364788294,1,-9.827584290178493e-05,1
1772122735400511232,0.0001621391129447147,1,0.0006954909185878932,1,0.04146919399499893,1,-8.660590538056567e-05,1,-0.0004560305387713015,1,0.0002301498607266694,1
1772122735411258112,0.001937211258336902,1,0.001047029043547809,1,0.04413533210754395,1,-5.71488963032607e-05,1,-0.0004244204610586166,1,1.592660737514962e-05,1
1772122735421900544,0.002947257598862052,1,0.00103847507853061,1,0.04228591918945312,1,6.925745401531458e-05,1,-0.0001803290215320885,1,1.106354829971679e-05,1
1772122735432440320,0.0009842579020187259,1,0.0006700396188534796,1,0.04300542920827866,1,8.682457701070234e-05,1,-0.00023190128558781,1,8.697914017830044e-05,1
1772122735442876928,0.0008269710815511644,1,0.0005048937164247036,1,0.04248499870300293,1,-3.301456308690831e-05,1,-0.0001407372474204749,1,-0.0002541429712437093,1
1772122735453211392,-4.007641109637916e-06,1,-0.0003924111661035568,1,0.04511202126741409,1,-0.0001435489975847304,1,-0.0003797183453571051,1,-0.0003036088310182095,1
1772122735463445248,0.0002315516758244485,1,-0.000589610543102026,1,0.0410725474357605,1,-8.162640006048605e-05,1,8.832153253024444e-05,1,-0.0002367456763749942,1
1772122735473577728,0.0006318553350865841,1,0.001114942831918597,1,0.04290376231074333,1,1.705027534626424e-05,1,-0.0002932396891992539,1,-0.0003225896507501602,1
1772122735483611648,-0.001141991349868476,1,0.001693643163889647,1,0.04319467395544052,1,-4.338813596405089e-06,1,-0.0001203229840029962,1,1.6823920304887e-05,1
1772122735493547520,0.001499197795055807,1,0.002204390708357096,1,0.04316562786698341,1,0.0005604734760709107,1,-4.78839865536429e-06,1,0.0003029043145943433,1
1772122735503385856,0.0009806544985622168,1,8.545492892153561e-05,1,0.04493476450443268,1,0.0002573229430709034,1,-0.0001575591013533995,1,0.0001228742767125368,1
1772122735513133312,0.001984331058338284,1,-0.0001722429879009724,1,0.0436275340616703,1,0.0002037627855315804,1,-0.0003123677743133157,1,-7.068432751111686e-05,1
1772122735522786816,-5.864386912435293e-05,1,-0.001037242938764393,1,0.04485192149877548,1,0.000151492131408304,1,-0.0001057429617503658,1,-5.550551577471197e-05,1
1772122735532344064,-0.0003853069501928985,1,-0.0008536926470696926,1,0.04162143170833588,1,-9.653258166508749e-05,1,-6.864651368232444e-05,1,-0.0004479987837839872,1
1772122735541808128,0.002038509817793965,1,-0.002199166687205434,1,0.04354188591241837,1,-7.669934711884707e-05,1,0.000143473269417882,1,-0.0001737133861752227,1
1772122735551179008,0.001442570704966784,1,-0.003524893894791603,1,0.04114817827939987,1,0.0002795274485833943,1,-6.200267671374604e-05,1,4.966249616700225e-05,1
1772122735560763904,0.002008810872212052,1,-0.0008199751609936357,1,0.04260735586285591,1,0.0002124554448528215,1,2.498634785297327e-05,1,-5.772796430392191e-05,1
1772122735571478272,0.001519598765298724,1,-0.001281618373468518,1,0.04241460189223289,1,-0.0002855203929357231,1,-1.785669701348525e-05,1,-8.800112846074626e-05,1
1772122735582087936,0.00201521604321897,1,-0.0002472145133651793,1,0.04312418773770332,1,-0.0001464843226131052,1,0.0001057373883668333,1,-0.0001600214745849371,1
1772122735592593920,0.002145748119801283,1,0.001737052691169083,1,0.04092394560575485,1,0.0001944888645084575,1,7.545866537839174e-05,1,-0.0001193069765577093,1
1772122735602995712,0.001522129634395242,1,0.001750138006173074,1,0.04254715517163277,1,-9.801647684071213e-05,1,-6.213945744093508e-05,1,-0.0002394104812992737,1
1772122735613301248,0.002033620374277234,1,0.003090363927185535,1,0.04431112110614777,1,0.0002617926802486181,1,7.93475701357238e-05,1,-5.813482857774943e-05,1
1772122735623505408,0.001302721677348018,1,0.001847574138082564,1,0.0421128086745739,1,6.605288945138454e-05,1,0.0002064657455775887,1,5.058645911049098e-05,1
1772122735633609728,0.001110401237383485,1,0.000886695459485054,1,0.04017037525773048,1,0.0004729385836981237,1,0.0001582859404152259,1,5.678357047145255e-05,1
1772122735643614720,0.001417705789208412,1,0.001451029442250729,1,0.04402438551187515,1,0.0008937896345742047,1,-0.0001175294746644795,1,8.676199649926275e-05,1
1772122735653521152,0.002254085848107934,1,-0.0006301171379163861,1,0.04196967929601669,1,0.000443634984549135,1,-0.0001632703206269071,1,-6.638551894866396e-06,1
1772122735663330048,0.002447684528306127,1,-0.00223790411837399,1,0.03797202557325363,1,-5.279678589431569e-05,1,-3.817733158939518e-06,1,-0.0001376047293888405,1
1772122735673044480,0.002029487397521734,1,-0.001248642336577177,1,0.04123557731509209,1,0.0001716372789815068,1,-0.0001743065367918462,1,-0.0001278841227758676,1
1772122735682663680,0.001297826413065195,1,-0.001129634212702513,1,0.04349947720766068,1,-7.493653538404033e-05,1,0.0002294667501701042,1,-0.0001424414658686146,1
1772122735692189184,0.0005329622654244304,1,0.001103938557207584,1,0.04231797531247139,1,-3.464647306827828e-07,1,0.0002494486107025295,1,1.753759715938941e-05,1
1772122735701620224,-0.0008561649592593312,1,0.001622071955353022,1,0.04320305213332176,1,-5.750545824412256e-05,1,-0.0001750302326399833,1,2.203035001002718e-05,1
1772122735710959616,-0.00249850214459002,1,0.0004820647009182721,1,0.04296442121267319,1,5.751103162765503e-05,1,-0.0001697908737696707,1,-3.13589334837161e-05,1
1772122735720974080,0.001522993203252554,1,0.001412787474691868,1,0.04359956085681915,1,0.0001170154500869103,1,-1.25332735478878e-05,1,-0.0001418677275069058,1
1772122735731654912,0.003303737379610538,1,0.001744810375384986,1,0.04401791095733643,1,-5.510013943421654e-05,1,-0.0001657918619457632,1,-0.0002528929617255926,1
1772122735742231040,0.002601879648864269,1,-0.001448841649107635,1,0.04577913880348206,1,-7.018399628577754e-05,1,-0.0002689764369279146,1,-0.0002159678551834077,1
1772122735752702720,0.002075529191643,1,-0.0008181939483620226,1,0.04366815090179443,1,-0.0002041792467935011,1,-0.0003684090333990753,1,-0.0001868418767116964,1
1772122735763070720,0.002315343823283911,1,0.00012932853132952,1,0.04257567226886749,1,-0.0002199354494223371,1,-0.0002986916806548834,1,-1.890298335638363e-05,1
1772122735773337600,0.001626975368708372,1,6.056432175682858e-05,1,0.04378394037485123,1,-0.0002801194495987147,1,-0.0001898853952297941,1,-0.0002054364158539101,1
1772122735783502848,0.002289386698976159,1,0.001883712131530046,1,0.04196865111589432,1,-8.666393114253879e-05,1,-7.224222645163536e-05,1,3.535710857249796e-05,1
1772122735793566976,0.002198538975790143,1,0.0014100685948506,1,0.04230523109436035,1,-0.0002303668734384701,1,-0.0001102496462408453,1,-0.0001265031605726108,1
1772122735803535104,0.004563822876662016,1,-0.001029047882184386,1,0.0425003282725811,1,1.979225453396793e-05,1,1.135752336267615e-05,1,-0.0001087504497263581,1
1772122735813404672,0.004166146740317345,1,-0.0006955419667065144,1,0.04056864976882935,1,0.0001421219494659454,1,1.457114194636233e-05,1,-0.0002407224528724328,1
1772122735823177472,0.003334294771775603,1,0.0007077404879964888,1,0.04439257830381393,1,-8.016302308533341e-05,1,-0.0004172038752585649,1,-0.000162151176482439,1
1772122735832862976,0.00275846547447145,1,-0.0002280365733895451,1,0.04274043068289757,1,0.0002291046403115615,1,-8.270657417597249e-05,1,4.073276795679703e-05,1
1772122735842455040,-0.0005423931870609522,1,0.0008197790011763573,1,0.04230863228440285,1,0.0003431829100009054,1,0.0001707350602373481,1,6.67806452838704e-05,1
1772122735851952640,-0.001408010139130056,1,0.002796879503875971,1,0.04015133529901505,1,0.0002305548987351358,1,0.0002009660238400102,1,0.0003126621304545552,1
1772122735861357568,0.0003466130583547056,1,0.002212534425780177,1,0.04287382960319519,1,2.964043960673735e-05,1,-0.0001301472802879289,1,-0.0001187762973131612,1
1772122735870671616,-0.001067508477717638,1,0.001916961162351072,1,0.04436513781547546,1,-3.868018393404782e-05,1,0.000130010477732867,1,-0.0001063122472260147,1
1772122735881127680,0.0004274649545550346,1,0.001094664563424885,1,0.04249661415815353,1,-1.584104029461741e-05,1,8.917790546547621e-05,1,-0.000271750905085355,1
1772122735891789056,-0.0001376396103296429,1,0.002082742750644684,1,0.04098092392086983,1,-0.0002436076174490154,1,0.0003305625868961215,1,-0.0001329900987911969,1
1772122735902347264,-0.0001304141478613019,1,0.003026191843673587,1,0.04325475543737411,1,-0.0001783723128028214,1,0.0004559176159091294,1,7.159678716561757e-06,1
1772122735912801536,0.000483658368466422,1,0.0008945618174038827,1,0.04267998784780502,1,-8.517839160049334e-05,1,0.0003138305328320712,1,9.089264494832605e-06,1
1772122735923153152,0.001132198260165751,1,0.001855488400906324,1,0.04445914924144745,1,0.0002092762442771345,1,0.0002353585732635111,1,6.579729961231351e-05,1
1772122735933409024,0.0005594082176685333,1,-0.0006765015423297882,1,0.04637692496180534,1,0.0004198084643576294,1,5.821940067107789e-05,1,7.048602856229991e-05,1
1772122735943564544,0.002262600930407643,1,2.866087015718222e-05,1,0.0447331927716732,1,0.0004432996793184429,1,6.554078572662547e-05,1,0.0001047063124133274,1
1772122735953622784,0.001347906654700637,1,-0.0003122957714367658,1,0.04135879501700401,1,-0.0001364228082820773,1,0.0005400326335802674,1,5.519015758181922e-05,1
1772122735963582208,0.0005544818704947829,1,0.0003525924112182111,1,0.04217914119362831,1,-8.527294266968966e-05,1,0.0001968662982108071,1,2.19749090319965e-05,1
1772122735973444352,4.342509782873094e-05,1,-0.0007582139223814011,1,0.04405084252357483,1,-0.0002366607950534672,1,-0.0002584437897894531,1,0.0001785130880307406,1
1772122735983209728,-0.0003714783815667033,1,0.0002559187705628574,1,0.03943058103322983,1,-0.0003409185446798801,1,-0.0002602192980702966,1,-5.80769992666319e-05,1
1772122735992880128,0.0010128328576684,1,0.001043291995301843,1,0.04229341074824333,1,-0.0003492071118671447,1,-0.0001890848652692512,1,-0.0001525599946035072,1
1772122736002457088,9.70799446804449e-05,1,0.0005813231109641492,1,0.04178805649280548,1,-0.0001934107422130182,1,0.0001548730942886323,1,-8.620614971732721e-05,1
1772122736011939328,0.0008436940261162817,1,0.001372176571749151,1,0.0434982143342495,1,-0.0003547893429640681,1,0.0001149188901763409,1,-0.0002498148533049971,1
1772122736021328896,0.003858434036374092,1,0.0007769984658807516,1,0.03767184913158417,1,-0.0003963816852774471,1,5.658279042108916e-05,1,0.0001570587046444416,1
1772122736030780416,0.003322354750707746,1,0.0006981913466006517,1,0.03778925538063049,1,-0.0004447175597306341,1,0.0001643383438931778,1,0.0003061558527406305,1
1772122736041524480,0.001360710593871772,1,-0.0004845951916649938,1,0.03956689685583115,1,-0.000670635316055268,1,3.757402009796351e-05,1,0.0003187464317306876,1
1772122736052163840,0.0003607512917369604,1,-0.0009467146010138094,1,0.04124956950545311,1,-0.0003993176214862615,1,6.884414324304089e-05,1,-6.255667540244758e-05,1
1772122736062700032,0.0001607468875590712,1,-0.001428494579158723,1,0.04104196652770042,1,-0.0002273053542012349,1,-0.0002630147209856659,1,-0.0001087201890186407,1
1772122736073134336,0.0004433350404724479,1,-0.0009052993846125901,1,0.04062467068433762,1,-0.0006339451065286994,1,0.000199078960577026,1,-5.44999202247709e-05,1
1772122736083466496,0.001427342649549246,1,-4.678723053075373e-05,1,0.03842280432581902,1,-0.0002136202383553609,1,0.0002538887201808393,1,-0.0001952424354385585,1
1772122736093698048,-0.0001308152568526566,1,0.0006226595141924918,1,0.04012762010097504,1,-0.00032767717493698,1,-4.06430808652658e-05,1,-0.0001407000527251512,1
1772122736103828992,0.0003423499874770641,1,0.0007047136896289885,1,0.04223299026489258,1,-0.0003382404684089124,1,-4.765532503370196e-05,1,-0.0003674492763821036,1
1772122736113861632,-0.0003106542280875146,1,0.001717178733088076,1,0.04197787865996361,1,-0.0003504756896290928,1,-0.0002952025388367474,1,-0.0001757111604092643,1
1772122736123798528,0.00145320629235357,1,0.002127164974808693,1,0.03976265713572502,1,-0.000191109036677517,1,-0.0002137355331797153,1,-0.0002590587246231735,1
1772122736133647872,0.001275395276024938,1,0.0008509994950145483,1,0.04007074609398842,1,-0.000199254194740206,1,-9.532313561066985e-05,1,2.331638825125992e-06,1
1772122736143401216,0.0004408535023685545,1,0.0009179310873150826,1,0.03849108144640923,1,-0.0002180321462219581,1,-8.203587640309706e-05,1,0.0002480634138919413,1
1772122736153059840,0.0005215428536757827,1,0.0003693675971589983,1,0.03926024958491325,1,0.0001936094195116311,1,-0.0002413880720268935,1,-0.0002326094836462289,1
1772122736162624512,0.002184003824368119,1,-0.001770556438714266,1,0.04136764630675316,1,0.0002643495099619031,1,-0.0002692003617994487,1,-0.0001139361411333084,1
1772122736172094720,-0.0004618607345037162,1,0.0005709080141969025,1,0.04081431031227112,1,0.0003459398576524109,1,-0.0003746301808860153,1,-0.0001448159018764272,1
1772122736181472768,-0.000278667634120211,1,0.001263907761313021,1,0.04263030365109444,1,4.042442014906555e-05,1,-0.0001400386390741915,1,6.85659033479169e-05,1
1772122736191063808,0.0009796794038265944,1,4.392255505081266e-05,1,0.03807995840907097,1,0.0002190460654674098,1,0.0002189467049902305,1,-0.0001039070630213246,1
1772122736201773568,0.003022643737494946,1,-7.292530790437013e-05,1,0.04118816182017326,1,0.0001777754514478147,1,5.401218732004054e-05,1,-7.339596777455881e-05,1
1772122736212379392,0.001784490654245019,1,-0.0009769380558282137,1,0.04166669398546219,1,-2.309386400156654e-05,1,3.077111250604503e-05,1,0.0002537128166295588,1
1772122736222880512,0.001031746272929013,1,-0.0006105885258875787,1,0.0437190979719162,1,2.892560587497428e-06,1,0.0001913044252432883,1,0.0002741298812907189,1
1772122736233281024,0.001635514665395021,1,-0.001504419604316354,1,0.0415426678955555,1,-0.000192490522749722,1,-0.0002584010944701731,1,0.0001660454872762784,1
1772122736243579904,0.003582564182579517,1,-0.002739025745540857,1,0.04198252409696579,1,0.0003552125417627394,1,-0.0002208928926847875,1,-0.000240116409258917,1
1772122736253778944,0.001425777096301317,1,-0.002911122748628259,1,0.0418459065258503,1,1.522558886790648e-05,1,-0.0002739038609433919,1,-2.217478868260514e-05,1
1772122736263876608,0.0004745940095745027,1,-0.002837046049535275,1,0.04118229821324348,1,-5.720341505366378e-05,1,-4.707395055447705e-05,1,-0.0001414077269146219,1
1772122736273875200,0.00135044299531728,1,-0.001958574168384075,1,0.04293152317404747,1,1.078100467566401e-05,1,0.0002896662044804543,1,-0.0001987535652006045,1
1772122736283776256,0.002113760681822896,1,-0.002539570210501552,1,0.04217327013611794,1,-9.813766519073397e-05,1,-2.382832462899387e-06,1,-0.0001625238946871832,1
1772122736293581056,0.001541483798064291,1,-0.003580005606636405,1,0.04367205500602722,1,1.156457801698707e-05,1,-3.054146873182617e-06,1,-0.0002300362248206511,1
1772122736303288832,0.002823036629706621,1,-0.001929006772115827,1,0.04330354556441307,1,0.0003674992767628282,1,0.0002567431947682053,1,-9.844968735706061e-05,1
1772122736312902656,0.000763752032071352,1,-0.001055540284141898,1,0.0432748906314373,1,0.0003491636016406119,1,-0.0001013722212519497,1,3.481251724224421e-06,1
1772122736322427904,0.0009488905197940767,1,0.001349220518022776,1,0.04012259468436241,1,-0.0001631639170227572,1,-0.0002629678347148001,1,-0.000270239805104211,1
1772122736331863552,0.0003497764701023698,1,0.001433354802429676,1,0.04205097258090973,1,-0.0002330401330254972,1,0.0001068489873432554,1,-0.0001972318423213437,1
1772122736341207808,0.001060276059433818,1,-0.001463165390305221,1,0.04456958547234535,1,0.0001647881726967171,1,0.000468151323730126,1,-0.000207086035516113,1
1772122736351223552,0.0001901262730825692,1,-0.0007881636265665293,1,0.0436047837138176,1,0.0002729068510234356,1,0.0007841261685825884,1,-0.0001227963803103194,1
1772122736361900800,0.002618811558932066,1,-0.0008403642568737268,1,0.04349219426512718,1,0.0001599637180333957,1,0.0006578773609362543,1,-2.959592166007496e-05,1
1772122736372472832,0.002346942434087396,1,-0.000230036152061075,1,0.04288608953356743,1,0.0001062399096554145,1,0.0004742019227705896,1,-0.0002142806479241699,1
1772122736382939904,0.001551652676425874,1,-0.001951051410287619,1,0.04511287808418274,1,0.0001917867048177868,1,-4.207612437312491e-05,1,6.82376412441954e-06,1
1772122736393304576,-8.149610948748887e-06,1,0.0004063604865223169,1,0.04104606434702873,1,-5.956813038210385e-05,1,-0.0001140126259997487,1,-8.129992784233764e-05,1
1772122736403570688,0.002601444022729993,1,0.001427012146450579,1,0.04123440384864807,1,0.0001815715222619474,1,0.0001121703317039646,1,-0.0001564334961585701,1
1772122736413736448,0.0001363506307825446,1,0.001525841886177659,1,0.04277261719107628,1,0.0001171658659586683,1,4.654433723771945e-05,1,-0.0002483157732058316,1
1772122736423802624,9.392939682584256e-05,1,0.001384487724862993,1,0.043116744607687,1,0.0003586718521546572,1,-0.0003638744237832725,1,-8.334372250828892e-05,1
1772122736433769984,-0.001500810845755041,1,0.0006844069575890899,1,0.04363578930497169,1,0.0001110250159399584,1,-0.0004210678744129837,1,-9.01554012671113e-05,1
1772122736443639552,-0.0006349977920763195,1,-0.0009249672293663025,1,0.04453705251216888,1,9.171130659524351e-05,1,-0.0003172251745127141,1,9.041847079060972e-05,1
1772122736453411584,-0.001089693978428841,1,-0.00202098349109292,1,0.04045228660106659,1,9.394926019012928e-05,1,-0.0002301573113072664,1,0.0002109383058268577,1
1772122736463088640,0.002600120846182108,1,-0.003250133246183395,1,0.04349763318896294,1,0.0002758516930043697,1,1.493865420343354e-05,1,0.0002234320563729852,1
1772122736472671232,0.002688677283003926,1,-0.0001515689655207098,1,0.04326561093330383,1,0.0003033584798686206,1,-0.0002320641215192154,1,0.0002430140448268503,1
1772122736482158592,0.002787549281492829,1,0.0009539384627714753,1,0.04365263134241104,1,-0.0001073709427146241,1,-0.0002019773091888055,1,0.0001001441269181669,1
1772122736491553024,0.0003990590921603143,1,-0.000618488120380789,1,0.04197175055742264,1,-0.0001596264191903174,1,4.055850877193734e-05,1,3.253436079830863e-05,1
1772122736500854784,0.000198507885215804,1,0.001223369152285159,1,0.03982509300112724,1,6.109649257268757e-05,1,-0.0003281001700088382,1,0.0001190780239994638,1
1772122736511306240,-0.0001265151950065047,1,0.0006267459248192608,1,0.03976733237504959,1,1.120666274800897e-05,1,-0.0004410498077049851,1,2.221727299911436e-05,1
1772122736521963520,-0.002833591075614095,1,0.001125012990087271,1,0.04091902822256088,1,2.436859722365625e-05,1,6.978789315326139e-05,1,1.761589373927563e-05,1
1772122736532517376,-0.0006444704486057162,1,0.0009946706704795361,1,0.04131456464529037,1,4.590855678543448e-05,1,-3.882373857777566e-05,1,0.0001987550494959578,1
1772122736542966016,0.001737009966745973,1,0.001113143400289118,1,0.04087135568261147,1,-9.630854037823156e-05,1,0.0002006492723012343,1,0.0001152894765255041,1
1772122736553312000,0.001963153714314103,1,0.001936139306053519,1,0.04143063724040985,1,-0.0001494363823439926,1,-0.0001796568394638598,1,0.0001558950752951205,1
1772122736563559168,0.002540674060583115,1,-0.0009960406459867954,1,0.04319822043180466,1,7.413021376123652e-05,1,-7.771650416543707e-06,1,0.0003010016807820648,1
1772122736573704448,0.003649430349469185,1,-0.001187132205814123,1,0.04576997458934784,1,-6.080310413381085e-05,1,-0.0003810554335359484,1,0.0003789677866734564,1
1772122736583750656,0.001894900342449546,1,0.0001822639314923435,1,0.04580333083868027,1,-3.97786898247432e-05,1,-8.627218630863354e-05,1,0.0002700935874599963,1
1772122736593697024,1.942260860232636e-05,1,-0.0009028203785419464,1,0.04488897696137428,1,0.0001852640561992303,1,-0.0002253587590530515,1,6.31927905487828e-05,1
1772122736603544320,0.0003200680366717279,1,-0.001620690105482936,1,0.04460550844669342,1,0.0004763580509461462,1,-0.0001734610123094171,1,-2.080782905977685e-05,1
1772122736613296128,-0.0002020118845393881,1,-0.000271076278295368,1,0.0451473779976368,1,0.0005811386508867145,1,-0.0002354915486648679,1,-5.22251684742514e-05,1
1772122736622950656,-0.0002854526683222502,1,-0.001305854180827737,1,0.04059043899178505,1,0.0006220010691322386,1,8.529223123332486e-05,1,-7.553368050139397e-05,1
1772122736632512000,0.002428573789075017,1,-0.003400359535589814,1,0.04315679147839546,1,0.0003887416969519109,1,0.0001884056255221367,1,-0.0001505287946201861,1
1772122736641978112,0.002489754231646657,1,-0.002002293011173606,1,0.04463823512196541,1,0.0001596484362380579,1,-0.0001520296646049246,1,-0.0003880094736814499,1
1772122736651349760,0.00236424570903182,1,-0.004242899361997843,1,0.04578622430562973,1,-1.665399395278655e-05,1,-0.0002765213139355183,1,-0.0004377556615509093,1
1772122736660785408,0.0007479227497242391,1,-0.0005810917355120182,1,0.04367585480213165,1,0.000458695663837716,1,-0.0003500691964291036,1,-0.0001030721541610546,1
1772122736671526912,0.00111292046494782,1,0.0007396401488222182,1,0.04114078357815742,1,0.0002347014960832894,1,-0.0005037203663960099,1,-0.0001963302347576246,1
1772122736682161920,-2.320125349797308e-05,1,-0.0003468740615062416,1,0.0394461452960968,1,-0.0003809993213508278,1,-0.0003219110076315701,1,-0.0001559259835630655,1
1772122736692691968,0.001342931762337685,1,-0.001202502404339612,1,0.03916404396295547,1,-0.0001195632430608384,1,-0.0001777945144567639,1,7.709061173954979e-05,1
1772122736703121152,0.001612544641830027,1,-0.001828458392992616,1,0.04373718798160553,1,-0.000175696681253612,1,0.0002096541575156152,1,-0.000100278717582114,1
1772122736713445888,0.003527090419083834,1,-0.0002969562483485788,1,0.04272694885730743,1,1.710062497295439e-05,1,1.917611007229425e-05,1,-0.0003715598722919822,1
1772122736723668224,0.004718633368611336,1,0.0004910987336188555,1,0.04166495800018311,1,-0.0002128204505424947,1,0.0002699516189750284,1,7.768987416056916e-06,1
1772122736733791232,0.002476308029145002,1,0.001765537192113698,1,0.03996824845671654,1,-0.0006044837646186352,1,-0.0002489697653800249,1,-4.165455902693793e-05,1
1772122736743813632,0.002581576816737652,1,0.002451582113280892,1,0.04188987612724304,1,-0.0004210735496599227,1,-8.31968936836347e-05,1,0.0001960518420673907,1
1772122736753736704,0.001654285006225109,1,0.000269028008915484,1,0.04329080134630203,1,-0.0001436135789845139,1,-0.0003257552161812782,1,0.000250048004090786,1
1772122736763562496,0.001346064731478691,1,0.0009784667054191232,1,0.04390504211187363,1,-3.442378874751739e-05,1,-6.773417408112437e-05,1,6.176553142722696e-05,1
1772122736773291264,0.002186431549489498,1,0.0002708053798414767,1,0.04460460320115089,1,4.401397745823488e-06,1,-0.0001262430159840733,1,-0.0001974134502233937,1
1772122736782923264,0.003494295291602612,1,-0.001307526719756424,1,0.03886648267507553,1,-0.0003850919310934842,1,0.0001234311203006655,1,-0.0001120739543694071,1
1772122736792461056,0.003623419906944036,1,-0.001640461501665413,1,0.03984101116657257,1,0.0002254686696687713,1,0.0001039313792716712,1,-9.861768194241449e-05,1
1772122736801904640,0.003224392887204885,1,-0.0002800508518703282,1,0.03949397057294846,1,3.693775579449721e-05,1,0.0001252259826287627,1,-0.0002012615295825526,1
1772122736811261184,0.004633019212633371,1,0.001001519034616649,1,0.04068823903799057,1,0.0001686411560513079,1,0.0002585710608400404,1,-0.0003171048883814365,1
1772122736820834304,0.002604624722152948,1,-6.351849879138172e-05,1,0.04147779196500778,1,3.99564414692577e-05,1,0.0001088314893422648,1,-0.0002757844631560147,1
1772122736831545088,0.001988391624763608,1,-0.0009465481853112578,1,0.04176725819706917,1,0.0003958371235057712,1,-4.640143015421927e-05,1,-6.484835466835648e-06,1
1772122736842149376,-0.001450755051337183,1,-0.0008274885476566851,1,0.04361027106642723,1,0.0001644371077418327,1,-0.0002942937717307359,1,-6.348075112327933e-05,1
1772122736852649216,-3.250046574976295e-05,1,0.002083908999338746,1,0.04227489605545998,1,0.000171642066561617,1,-0.0002370243601035327,1,-2.680892066564411e-06,1
1772122736863045376,0.0005166918854229152,1,0.002450098283588886,1,0.03741950914263725,1,-8.118733603623696e-06,1,-0.0001293857931159437,1,-5.05353273183573e-05,1
1772122736873339648,0.0004055859171785414,1,0.003524610307067633,1,0.03566036745905876,1,0.0001339699083473533,1,0.0002891576441470534,1,-0.0002196692075813189,1
1772122736883533568,-0.0003884891339112073,1,0.0004901632200926542,1,0.04160233214497566,1,-0.0003257322241552174,1,-8.952693315222859e-05,1,-0.0003508965892251581,1
1772122736893626624,-0.0008581233560107648,1,-0.0008568872581236064,1,0.04240167886018753,1,-0.0007284656167030334,1,0.0001729393843561411,1,-0.0001135507409344427,1
1772122736903620352,-0.0009890315122902393,1,-0.000554904923774302,1,0.03977455571293831,1,-0.0004023640649393201,1,0.000183031297638081,1,-0.0001428772084182128,1
1772122736913514496,-0.0001569613523315638,1,-0.00087273761164397,1,0.04315035790205002,1,-0.0003215281176380813,1,0.0003757581871468574,1,8.208655344787985e-05,1
1772122736923310080,0.000656970776617527,1,1.153742778114974e-05,1,0.04385702684521675,1,-0.000358342076651752,1,7.977308996487409e-05,1,7.17252551112324e-05,1
1772122736933010688,0.0007389585371129215,1,0.0005494100041687489,1,0.04202964156866074,1,0.0002478815149515867,1,6.212914740899578e-05,1,3.231458686059341e-05,1
1772122736942614784,0.0005137445405125618,1,0.001736892387270927,1,0.04439481347799301,1,-6.574233702849597e-05,1,7.666790043003857e-05,1,1.715969847282395e-05,1
1772122736952123392,0.001299226772971451,1,0.001198111800476909,1,0.04155368357896805,1,-5.71276614209637e-05,1,-0.0002570303913671523,1,8.553024235880002e-05,1
1772122736961539584,0.001590600237250328,1,-0.0007492156000807881,1,0.04379573464393616,1,-0.0002180124574806541,1,-0.0001966387208085507,1,0.0002477314556017518,1
1772122736970862080,0.002481878502294421,1,-0.001497833291068673,1,0.04170682281255722,1,-4.805873322766274e-05,1,-0.0003923500189557672,1,0.000326006265822798,1
1772122736980867840,0.003691707504913211,1,-0.0002286473318235949,1,0.04229492321610451,1,0.0001152778786490671,1,-0.0005532213835977018,1,0.0001712034281808883,1
1772122736991547392,0.005216425284743309,1,-0.002693590708076954,1,0.04083985835313797,1,-0.0001293818058911711,1,-0.0002402833197265863,1,9.482619498157874e-05,1
1772122737002121728,0.002988871885463595,1,-0.0005016285576857626,1,0.04407211020588875,1,0.0001205293228849769,1,-0.0001899891503853723,1,-4.02383811888285e-05,1
1772122737012592384,0.001304376637563109,1,-0.002298432867974043,1,0.04358053952455521,1,7.594228372909129e-05,1,1.992934267036617e-05,1,-1.922945375554264e-05,1
1772122737022958592,0.002112239599227905,1,-0.002680359175428748,1,0.04318014159798622,1,-6.522507464978844e-05,1,-0.0002300231135450304,1,-0.0001640127156861126,1
1772122737033223168,0.002099699573591352,1,-0.001717953942716122,1,0.04325764253735542,1,-2.806339216476772e-05,1,-0.0001508605928393081,1,-0.0003119226021226496,1
1772122737043388416,0.001985429786145687,1,-0.0008760521304793656,1,0.0397251658141613,1,-0.0002741983917076141,1,-9.635178139433265e-05,1,-0.0004750638327095658,1
1772122737053453568,0.00104212760925293,1,-0.001445882022380829,1,0.03781752288341522,1,-0.0004955476033501327,1,-0.000262692803516984,1,-0.0001898417540360242,1
1772122737063418368,0.002380006248131394,1,-0.0008241367759183049,1,0.03693295270204544,1,-0.0004496173933148384,1,-0.0001284396857954562,1,-6.540591130033135e-05,1
1772122737073285632,0.001267968560568988,1,-0.001431127893738449,1,0.03959336876869202,1,-0.0005548567278310657,1,-0.0002222732873633504,1,-8.51314835017547e-05,1
1772122737083055616,0.0009972123662009835,1,-0.001252256217412651,1,0.04159864783287048,1,-0.0003799184923991561,1,-0.0001038929549395107,1,5.996491381665692e-05,1
1772122737092728064,-0.0005587752675637603,1,-0.003185711335390806,1,0.03944737836718559,1,-0.0002826549753081053,1,-2.059126563835889e-05,1,-0.000190306906006299,1
1772122737102307072,-0.001242921454831958,1,-0.0005612766835838556,1,0.04153279960155487,1,4.240703856339678e-05,1,0.000102913414593786,1,-9.658647468313575e-05,1
1772122737111790592,0.0003220463404431939,1,-0.001171814044937491,1,0.03937852010130882,1,-0.000238265041843988,1,-1.210192749567796e-05,1,-0.000124829079140909,1
1772122737121179392,0.0006208642153069377,1,-0.0004381113976705819,1,0.04047686979174614,1,-0.0001992462493944913,1,-0.0005150281940586865,1,-4.388835077406839e-05,1
1772122737130475008,-0.001006244216114283,1,0.002256124978885055,1,0.04057271406054497,1,-0.0001821715122787282,1,-0.0003614328452385962,1,7.05433776602149e-05,1
1772122737140928000,0.0004148863081354648,1,0.001163839478977025,1,0.04171838983893394,1,1.37584975163918e-05,1,0.0001626289304113016,1,-0.000116907358460594,1
1772122737151588096,0.003127974923700094,1,0.0004142397083342075,1,0.04165555164217949,1,2.881485124817118e-05,1,3.486776768113486e-05,1,-0.0002458393282722682,1
1772122737162143488,0.002574930433183908,1,-0.0007142463000491261,1,0.04189306125044823,1,0.0001955855113919824,1,0.0001825206854846328,1,-0.0001143160188803449,1
1772122737172593664,0.001358689158223569,1,0.0007328601204790175,1,0.0426303818821907,1,-0.0002632569230627269,1,0.0003097465960308909,1,-0.0002858281368389726,1
1772122737182941952,0.002442187396809459,1,6.789164035581052e-05,1,0.04257702454924583,1,-0.0003744849818758667,1,7.597622607136145e-05,1,-8.596067345933989e-05,1
1772122737193189376,-0.0004508301499299705,1,-0.0003204249369446188,1,0.04192496836185455,1,-0.0002273468126077205,1,0.0002810702717397362,1,0.0001678359694778919,1
1772122737203334912,0.0008811927982605994,1,-0.0005020268727093935,1,0.04245439544320107,1,-0.0001585285499459133,1,0.0001621807459741831,1,0.0001125065027736127,1
1772122737213382912,0.0003642028023023158,1,0.001938301254995167,1,0.04201718047261238,1,0.0001415540027664974,1,-6.695705815218389e-05,1,8.402203093282878e-05,1
1772122737223330560,0.0005920209805481136,1,-0.0002591600932646543,1,0.04394972324371338,1,0.0001665013842284679,1,0.0001703814778011292,1,5.321312710293569e-05,1
1772122737233179136,0.0007597740623168647,1,0.0003360541886650026,1,0.04199884831905365,1,3.041810305148829e-05,1,9.868736378848553e-05,1,4.755963527713902e-05,1
1772122737242930944,0.001486180583015084,1,0.000753554399125278,1,0.04246803000569344,1,4.208169411867857e-05,1,8.245370554504916e-05,1,4.396461008582264e-05,1
1772122737252587008,0.0002534868835937232,1,-0.0007955504115670919,1,0.04193228110671043,1,0.0003305502177681774,1,-0.0001152765544247814,1,-0.0001065054893842898,1
1772122737262146816,-0.001397673855535686,1,-0.0003148340911138803,1,0.04128662496805191,1,0.0002054248034255579,1,-0.0001243945735041052,1,-0.0002281508641317487,1
1772122737271614208,-0.0007422338239848614,1,-0.000362861028406769,1,0.04248698428273201,1,7.72706262068823e-05,1,-0.0004294932004995644,1,-0.0001546929270261899,1
1772122737280987136,-0.001531413057819009,1,0.0006210022256709635,1,0.04155177250504494,1,0.0002055886725429446,1,-0.0004356852441560477,1,-0.0002735874440986663,1
1772122737290423296,0.0002860577951651067,1,-0.0002819806104525924,1,0.04108477383852005,1,0.0002993156667798758,1,-0.0003651199222076684,1,-0.000550284399650991,1
1772122737301167104,0.001728049479424953,1,-0.001836091512814164,1,0.0419907234609127,1,8.374604658456519e-05,1,-0.0002469067403580993,1,-0.0003260950034018606,1
1772122737311805440,0.002648430876433849,1,-0.001959354383870959,1,0.0442642942070961,1,0.0001527431886643171,1,-0.0001734572288114578,1,2.33538739848882e-05,1
1772122737322340096,0.00279558845795691,1,-0.003015955677255988,1,0.04304517805576324,1,0.0001184838838526048,1,8.698020974406973e-05,1,-0.0002345861867070198,1
1772122737332770304,0.002101289574056864,1,-0.001337488181889057,1,0.04234978184103966,1,-2.136501825589221e-05,1,6.65812476654537e-05,1,-0.0001471142750233412,1
1772122737343097344,-0.001275849528610706,1,-0.001566409016959369,1,0.04052262753248215,1,-6.076542922528461e-05,1,9.875120304059237e-05,1,0.0001004028090392239,1
1772122737353323264,-0.000829460856039077,1,-0.0004789471859112382,1,0.03849966078996658,1,0.0002218051813542843,1,0.0002408278669463471,1,-0.000110738656076137,1
1772122737363448064,-0.002135254442691803,1,-0.00146270077675581,1,0.03903857991099358,1,0.0001668360928306356,1,0.000230001169256866,1,5.133515514899045e-05,1
1772122737373471488,-0.001360736321657896,1,-0.001555458060465753,1,0.04195805639028549,1,-0.0001555640483275056,1,0.0002265730290673673,1,-0.0001967573480214924,1
1772122737383396352,0.0001632740604691207,1,-0.001250575762242079,1,0.04236681386828423,1,0.0001653475337661803,1,0.0001472473086323589,1,8.058131788857281e-05,1
1772122737393223680,0.00286118732765317,1,-0.0001843627978814766,1,0.04215949773788452,1,1.816675467125606e-05,1,0.0001764059707056731,1,0.0003250506415497512,1
1772122737402955520,0.003965537529438734,1,0.0004309561918489635,1,0.04028210416436195,1,2.24189006985398e-05,1,0.0001951271551661193,1,0.0001752845564624295,1
1772122737412593408,0.002275863662362099,1,0.001233825692906976,1,0.04060034453868866,1,-9.996903827413917e-05,1,0.0003042423049919307,1,0.000195610846276395,1
1772122737422135296,-0.001340248854830861,1,0.0004785445635206997,1,0.04114053398370743,1,-0.0001499452628195286,1,-7.134831685107201e-05,1,0.0001257384719792753,1
1772122737431582720,0.0003327874292153865,1,-7.60538168833591e-05,1,0.03978859260678291,1,0.0001973036705749109,1,0.0002062241255771369,1,9.139155736193061e-05,1
1772122737440938240,-0.0002083318977383897,1,-0.0003023447061423212,1,0.04118658974766731,1,6.160303018987179e-05,1,-3.827976252068765e-05,1,-5.542509097722359e-05,1
1772122737450510592,-0.0009190972778014839,1,0.0009856846882030368,1,0.04095352813601494,1,-0.0002153136010747403,1,-7.580595411127433e-05,1,-0.000194461754290387,1
1772122737461222656,-0.0007161975954659283,1,0.001346227945759892,1,0.04159260541200638,1,-0.0002281949127791449,1,0.0001640595146454871,1,-0.000138553004944697,1
1772122737471830016,0.001925628050230443,1,-4.581816028803587e-05,1,0.04097360372543335,1,-0.0003408157208468765,1,0.0002536846441216767,1,-4.8496549425181e-06,1
1772122737482331904,0.00227871653623879,1,0.001432677265256643,1,0.04168041795492172,1,-0.0003583440266083926,1,-1.669300218054559e-05,1,0.0001199167090817355,1
1772122737492731136,0.002996164839714766,1,0.001206447836011648,1,0.04100411385297775,1,-5.577816045843065e-05,1,-0.0002061657141894102,1,5.592513480223715e-05,1
1772122737503029504,0.002175386995077133,1,0.0002812204766087234,1,0.04046599939465523,1,8.015082130441442e-05,1,-0.0001706188486423343,1,-2.955606760224327e-05,1
1772122737513225984,0.0009288936853408813,1,0.001747542642988265,1,0.04748928174376488,1,0.0001649918121984228,1,-0.0001023710938170552,1,-7.795415876898915e-05,1
1772122737523322368,0.0007235771045088768,1,0.004118927754461765,1,0.04244469106197357,1,0.0001400478649884462,1,-0.0001027892576530576,1,0.0001120917077059858,1
1772122737533319168,0.0006475131958723068,1,0.002121119294315577,1,0.03739163652062416,1,6.995565490797162e-05,1,-1.091948070097715e-05,1,0.0001286947663174942,1
1772122737543216640,0.001381133683025837,1,0.0002083877916447818,1,0.04338323697447777,1,0.0003589081461541355,1,4.549126970232464e-05,1,-1.81082941708155e-06,1
1772122737553016320,0.001986175775527954,1,0.0004735307011287659,1,0.0464915968477726,1,0.0003075503918807954,1,-0.0001698092237347737,1,-1.99673195311334e-05,1
1772122737562720000,0.004990606103092432,1,-0.001267950749024749,1,0.03662422671914101,1,0.0001074974352377467,1,-0.0001047795958584175,1,7.387035293504596e-05,1
1772122737572327168,0.003689010161906481,1,0.001554708112962544,1,0.04087306931614876,1,0.0001054195163305849,1,0.0002304997469764203,1,-0.0001982550747925416,1
1772122737581841152,0.004255454987287521,1,-0.000276252452749759,1,0.04160822555422783,1,7.538580393884331e-05,1,9.401100396644324e-05,1,0.0001571479078847915,1
1772122737591260672,0.001505286199972034,1,-0.0004609421303030103,1,0.03799821063876152,1,-7.66839730204083e-06,1,0.0003395179519429803,1,-1.953590071934741e-05,1
1772122737600586240,0.002235467312857509,1,0.0006629552808590233,1,0.04034065082669258,1,8.577928383601829e-05,1,-2.809945726767182e-05,1,-7.499314961023629e-05,1
1772122737610592000,0.000947452790569514,1,-0.0005622645257972181,1,0.04300589114427567,1,-2.8115653549321e-05,1,-0.0003019418800249696,1,-4.177373557467945e-05,1
1772122737621268224,0.002732045017182827,1,-0.0005809288122691214,1,0.03983322158455849,1,-9.639144263928756e-05,1,-0.0004723721067421138,1,7.547160203102976e-05,1
1772122737631839488,0.0001027876860462129,1,0.0008179213618859649,1,0.04149408638477325,1,7.123278919607401e-05,1,-0.0003098274464718997,1,-0.0001362951734336093,1
1772122737642306304,-0.00069132458884269,1,-0.001011061947792768,1,0.04307189583778381,1,-0.0001542101381346583,1,-0.0002211552346125245,1,-5.240315203991486e-07,1
1772122737652670720,-0.0004186907317489386,1,-0.001202765037305653,1,0.03863691911101341,1,-0.0002704479265958071,1,0.0002581714943516999,1,-4.568618896882981e-05,1
1772122737662932224,0.0006082240142859519,1,-0.002785579301416874,1,0.04129278287291527,1,0.0001960135268745944,1,0.0002747282560449094,1,-3.514056152198464e-05,1
1772122737673093120,0.002529805991798639,1,-0.001720381900668144,1,0.04205481335520744,1,0.0002074937510769814,1,0.0001707596093183383,1,-2.397768366790842e-05,1
1772122737683156224,0.00185481202788651,1,-0.0007087853155098855,1,0.04363254085183144,1,5.840499943587929e-05,1,7.658243703190237e-05,1,0.000298638769891113,1
1772122737693118976,0.0007801647298038006,1,-0.0003844208549708128,1,0.04290082678198814,1,0.0002147766062989831,1,0.0001010013875202276,1,0.0002464376157149673,1
1772122737702982400,-0.0016616175416857,1,0.0007773048710078001,1,0.04090933874249458,1,9.942162432707846e-05,1,0.0002993093512486666,1,7.947709673317149e-05,1
1772122737712750080,0.0007018636679276824,1,0.001044156029820442,1,0.03993099182844162,1,-0.0002743255172390491,1,8.627376701042522e-06,1,-0.0002128720370819792,1
1772122737722420992,-0.001099220477044582,1,-0.0002246884105261415,1,0.0421084389090538,1,8.96369747351855e-05,1,-5.198400685912929e-05,1,-0.0001770619419403374,1
1772122737731996160,0.001095065730623901,1,-0.001479941420257092,1,0.04122230410575867,1,-8.842420356813818e-05,1,-0.0003210224385838956,1,-6.468711035267916e-06,1
1772122737741477888,0.001563456375151873,1,-0.001300405012443662,1,0.04285620152950287,1,-0.0002156819537049159,1,-0.0001760974118951708,1,-0.0001401448098476976,1
1772122737750864896,0.002385968342423439,1,0.0005769269773736596,1,0.04364828392863274,1,-7.95520463725552e-05,1,-0.000210029844311066,1,0.0001260736316908151,1
1772122737760158720,0.002233234001323581,1,8.744979277253151e-05,1,0.04294057562947273,1,-0.0002367307606618851,1,-6.623778608627617e-05,1,1.934207466547377e-05,1
1772122737770769152,0.003804831299930811,1,-0.001016269787214696,1,0.03945337235927582,1,0.0001120127490139566,1,0.0003919867158401757,1,-6.055996709619649e-05,1
1772122737781432320,0.002340806648135185,1,-0.0016885946970433,1,0.04051461070775986,1,-2.287873212480918e-05,1,7.820191967766732e-05,1,-5.891518594580702e-05,1
1772122737791991552,-0.0001564777630846947,1,-0.001537355128675699,1,0.04149621725082397,1,-4.584432463161647e-05,1,-2.150675936718471e-05,1,0.0001525711559224874,1
1772122737802450432,-0.0003167020622640848,1,-0.002065636683255434,1,0.04389571398496628,1,0.0003055749693885446,1,0.000322435051202774,1,0.0002401659148745239,1
1772122737812807936,-0.0003223312960471958,1,-0.001748616807162762,1,0.04021034389734268,1,9.429339843336493e-05,1,0.0002271891426062211,1,0.0002927984751295298,1
1772122737823064320,-0.001132565084844828,1,-0.002077253768220544,1,0.04258874803781509,1,0.00031116625177674,1,0.0002425508719170466,1,0.0002804455580189824,1
1772122737833220864,-0.001747182686813176,1,-0.002154894871637225,1,0.03979513049125671,1,0.0001034157758112997,1,0.0001877998001873493,1,0.0003264961123932153,1
1772122737843277312,-0.002740191295742989,1,-0.001792317256331444,1,0.0412466749548912,1,0.0002942369901575148,1,-0.0001765240594977513,1,0.0003639741917140782,1
1772122737853236480,-0.002735425252467394,1,-0.001299618976190686,1,0.04263468831777573,1,3.052525426028296e-05,1,-0.0003512461262289435,1,0.0002812044403981417,1
1772122737863098368,-0.001643810654059052,1,-0.002803913550451398,1,0.04382342100143433,1,7.157555228332058e-05,1,-5.960665657767095e-05,1,0.0002295814920216799,1
1772122737872865280,0.0005856667412444949,1,-0.002436211798340082,1,0.04074816405773163,1,-0.0002565480535849929,1,-0.0001361468894174322,1,0.0001570417516632006,1
1772122737882536960,0.0008339096093550324,1,0.0006495992420241237,1,0.04088479653000832,1,6.617020699195564e-05,1,-0.0003458852879703045,1,0.0003905728808604181,1
1772122737892113152,0.001264710444957018,1,0.003759364830330014,1,0.03845048323273659,1,-2.636362114571966e-05,1,-0.0004005694936495274,1,0.0003967328520957381,1
1772122737901598720,0.001302932156249881,1,0.001784710213541985,1,0.037978146225214,1,-0.0001063706513377838,1,-1.42007484100759e-05,1,3.023236968147103e-05,1
1772122737911011328,0.0002189670049119741,1,0.000906771922018379,1,0.03757970035076141,1,-9.339424286736175e-05,1,0.0001738000282784924,1,-1.870816959126387e-06,1
1772122737920486400,0.001363894087262452,1,0.00277483812533319,1,0.04132552072405815,1,0.0002845154667738825,1,-7.507010013796389e-05,1,7.280721547431313e-06,1
1772122737931228928,-0.0001375351566821337,1,0.001603452838025987,1,0.03876449540257454,1,0.000281669053947553,1,5.741915811086074e-05,1,-7.718796405242756e-05,1
1772122737941866752,0.0003136457817163318,1,0.001571518019773066,1,0.04174719750881195,1,8.323621295858175e-05,1,-0.0001065819742507301,1,-7.876179006416351e-05,1
1772122737952400896,-0.0002510651829652488,1,0.0002518098917789757,1,0.04115678369998932,1,0.0001882752258097753,1,-0.0002488946774974465,1,1.648263423703611e-05,1
1772122737962830592,0.0007528253481723368,1,-0.001407716190442443,1,0.04334314167499542,1,0.0001271343935513869,1,-0.0001157228543888777,1,3.374712832737714e-06,1
1772122737973159424,5.996445543132722e-05,1,-0.002398728393018246,1,0.04351113364100456,1,-0.0001357332221232355,1,-3.256089257774875e-05,1,-6.208341801539063e-05,1
1772122737983384576,-0.0001369652163702995,1,-0.0007337455172091722,1,0.04337739199399948,1,9.682997188065201e-05,1,-0.0001779198355507106,1,-1.836942283262033e-05,1
1772122737993511680,0.001544140977784991,1,-0.0007602942641824484,1,0.04205534607172012,1,0.0002504817093722522,1,-0.0001275956601602957,1,-5.113672523293644e-05,1
1772122738003537152,0.0001051488434313796,1,-2.198794391006231e-06,1,0.04017726704478264,1,0.0003692393656820059,1,-0.0001546395506011322,1,-0.0002940192061942071,1
1772122738013466368,0.001632099039852619,1,-0.001024939119815826,1,0.0412401556968689,1,0.0002051618794212118,1,0.0001742166496114805,1,-9.084809425985441e-05,1
1772122738023298304,0.002677088370546699,1,-0.0003642832452896982,1,0.03875584527850151,1,0.0003677689819596708,1,0.0001591588516021147,1,-6.470845255535096e-05,1
1772122738033032960,0.00411634985357523,1,-1.255350798601285e-05,1,0.0405837744474411,1,0.000110950117232278,1,-0.0001156161233666353,1,-0.0001760469021974131,1
1772122738042672896,0.004205134697258472,1,0.000812685233540833,1,0.04050759226083755,1,0.000273821409791708,1,-0.0001527593703940511,1,-0.0001001273703877814,1
1772122738052216832,0.004484463483095169,1,-0.0009244547691196203,1,0.04198858886957169,1,7.297655247384682e-05,1,-0.0001822019112296402,1,0.0002143410820281133,1
1772122738061669376,0.006219695787876844,1,0.000329939037328586,1,0.0423799604177475,1,7.366880163317546e-05,1,3.821763311862014e-05,1,-0.000135408787173219,1
1772122738071029248,0.00297804013825953,1,-0.0004975170595571399,1,0.04002568125724792,1,-0.0001720033469609916,1,8.248618541983888e-06,1,-9.586272062733769e-05,1
1772122738080622080,0.00255297333933413,1,0.002177509246394038,1,0.03996218368411064,1,-0.0002606084162835032,1,0.0001532342284917831,1,-0.0001028746773954481,1
1772122738091326976,0.0009026447078213096,1,0.001338509726338089,1,0.03962986171245575,1,-0.0006432710215449333,1,-0.0001930178550537676,1,-0.0002144580648746341,1
1772122738101927424,0.001359114539809525,1,-0.0006773752393200994,1,0.04224156215786934,1,-0.0005060628755018115,1,5.735371814807877e-05,1,-0.0001749724469846115,1
1772122738112423424,2.859756932593882e-06,1,-0.0004312340170145035,1,0.04296531155705452,1,-0.0002751876309048384,1,0.000293184450129047,1,-0.0003417776897549629,1
1772122738122814464,-0.0003566670056898147,1,7.45858415029943e-07,1,0.04176655784249306,1,-0.0002388977009104565,1,0.0002665045903995633,1,-0.0001926722470670938,1
1772122738133104128,-7.478326006093994e-05,1,0.000248533848207444,1,0.04199925065040588,1,-0.0001369401579722762,1,-3.217914127162658e-05,1,-0.0001837007148424163,1
1772122738143292928,0.001296891481615603,1,-0.0002780455397441983,1,0.04151962324976921,1,0.0001116760249715298,1,-0.0001057672925526276,1,-8.844059266266413e-06,1
1772122738153380352,0.001726481830701232,1,-0.0001374688872601837,1,0.04274384677410126,1,-0.0001366820360999554,1,3.789326001424342e-05,1,-0.000134832167532295,1
1772122738163373824,0.001962158130481839,1,-0.001268491614609957,1,0.04075636342167854,1,-0.0001479765342082828,1,0.0001912290026666597,1,-6.603614019695669e-05,1
1772122738173269504,0.002310357987880707,1,-0.001559684169478714,1,0.0398697592318058,1,4.451752829481848e-05,1,-8.996951510198414e-05,1,-0.0002710165281314403,1
1772122738183068416,0.0009664764511398971,1,-0.001976602477952838,1,0.04354782775044441,1,0.0002332150033907965,1,1.741964661050588e-05,1,-0.00026546316803433,1
1772122738192773632,0.0002241721667815,1,-0.0004188210295978934,1,0.03953401371836662,1,0.0003685970441438258,1,-0.0001151744945673272,1,-7.298696436919272e-05,1
1772122738202384896,0.002095856703817844,1,-0.0005317413597367704,1,0.0398702546954155,1,0.0001269163185497746,1,-0.0003422560694161803,1,-4.346230707596987e-05,1
1772122738211901440,0.000685477745719254,1,-0.002094598952680826,1,0.04053566604852676,1,-0.0002306258393218741,1,-0.000372306676581502,1,4.731309309136122e-05,1
1772122738221327104,0.002713819034397602,1,-0.002013592282310128,1,0.04210734739899635,1,-0.0001869942352641374,1,-0.0002920559199992567,1,-0.0002636530552990735,1
1772122738230660864,0.002709845779463649,1,-0.0004742669116239995,1,0.04325434938073158,1,-0.0003639199421741068,1,-0.0003579171025194228,1,-0.0002221276081399992,1
1772122738240825600,0.003591802436858416,1,-0.00170870590955019,1,0.04267638549208641,1,-0.0003622851218096912,1,-0.0001323522010352463,1,-0.0002409013686701655,1
1772122738251503360,0.00397735508158803,1,0.0001023900113068521,1,0.04149492457509041,1,-4.258598710293882e-05,1,-0.0005156418774276972,1,-0.0002369775611441582,1
1772122738262075392,0.003926897421479225,1,0.000486095406813547,1,0.04189835116267204,1,0.0001721672597341239,1,-0.000460530718555674,1,-0.0001759583537932485,1
1772122738272544256,0.002158824354410172,1,0.0006282098474912345,1,0.04550802707672119,1,0.0001496584736742079,1,-0.0004113774630241096,1,-0.0002037178783211857,1
1772122738282911744,0.0008638132130727172,1,0.001646722434088588,1,0.04386672005057335,1,0.0003155450103804469,1,-0.0002790886501315981,1,2.018138002313208e-05,1
1772122738293175808,0.001631635241210461,1,1.760177838150412e-06,1,0.0444476343691349,1,0.00017849329742603,1,-0.0001505350519437343,1,0.0001893010776257142,1
1772122738303340032,0.002933766692876816,1,0.0004923956585116684,1,0.04529924690723419,1,0.0003259916265960783,1,-1.365515163342934e-05,1,0.0001723094610497355,1
1772122738313403392,0.00226407521404326,1,-0.001223118277266622,1,0.03997305780649185,1,0.0001891473075374961,1,-0.0002096538519253954,1,0.0001582372933626175,1
1772122738323368960,0.001685755210928619,1,-8.983537554740906e-06,1,0.03982945904135704,1,0.0001436130842193961,1,-0.0001137902727350593,1,0.0003222092054784298,1
1772122738333235456,0.002197872614488006,1,-0.001655790256336331,1,0.04146431386470795,1,0.0001927751145558432,1,-1.606225850991905e-05,1,7.192199700511992e-05,1
1772122738343007488,0.001062984229065478,1,-0.001196635887026787,1,0.04399675503373146,1,0.0002311304851900786,1,2.266888441226911e-05,1,1.758646249072626e-06,1
1772122738352686080,0.001585571095347404,1,-0.0008938211831264198,1,0.044463150203228,1,8.056696242420003e-05,1,-5.846754356753081e-05,1,-0.0001075767358997837,1
1772122738362268416,0.002524938434362411,1,0.0009954754495993257,1,0.04189148545265198,1,0.0001180518593173474,1,-7.682475552428514e-05,1,-5.442043038783595e-05,1
1772122738371757568,0.0008919741958379745,1,0.00128662190400064,1,0.04210035875439644,1,-0.0001734562538331375,1,-4.194398206891492e-05,1,0.0001607912563486025,1
1772122738381152256,0.002148534869775176,1,0.001664459938183427,1,0.04007455706596375,1,-0.0001248784974450245,1,3.248946813982911e-05,1,1.893682929221541e-05,1
1772122738390454016,-1.75970490090549e-05,1,-0.000181003357283771,1,0.0426931194961071,1,-0.0004130740417167544,1,-0.0001315307454206049,1,-8.341349166585132e-05,1
1772122738401060608,-0.0002502747229300439,1,-0.002496881876140833,1,0.04265667498111725,1,-0.00042595891864039,1,-0.0002120890567312017,1,-4.880245251115412e-05,1
1772122738411718144,-0.001014377921819687,1,-0.001730949035845697,1,0.0377209447324276,1,5.101612987346016e-05,1,3.121481859125197e-05,1,-0.000460648734588176,1
1772122738422269696,0.0009181814966723323,1,-0.0002368013083469123,1,0.04055319353938103,1,0.0003369081241544336,1,-0.0001054957101587206,1,-0.0002931574708782136,1
1772122738432717056,-6.304307316895574e-05,1,0.0001354938722215593,1,0.04761724546551704,1,0.0004132342291995883,1,-4.813194027519785e-05,1,-9.427874465472996e-05,1
1772122738443062016,-0.000460800452856347,1,0.0007114368490874767,1,0.04375860467553139,1,-0.0001038014161167666,1,0.0002361510851187631,1,-5.431071622297168e-05,1
1772122738453306880,-0.0006753501947969198,1,0.001104103052057326,1,0.03593748807907104,1,-0.0001622461422812194,1,-0.0002090757043333724,1,-2.781552029773593e-05,1
1772122738463449600,0.0005121637368574739,1,-0.0004355640558060259,1,0.04230807721614838,1,-0.0003172037249896675,1,0.00023231930390466,1,5.523598156287335e-05,1
1772122738473492224,0.00211434974335134,1,-0.001095902873203158,1,0.0462636835873127,1,-0.0001524095278000459,1,6.912602111697197e-05,1,5.724879883928224e-05,1
1772122738483436544,0.002028088318184018,1,-1.08740059658885e-05,1,0.04062600433826447,1,-5.747357499785721e-05,1,8.359029015991837e-05,1,7.316980918403715e-05,1
1772122738493281792,0.001969685079529881,1,-0.0006746950675733387,1,0.03728639706969261,1,-0.0001980838715098798,1,-0.0001233382208738476,1,-0.0001559781085234135,1
1772122738503028992,0.00361915840767324,1,0.0004926451947540045,1,0.04081535339355469,1,-0.0003894772380590439,1,0.0003260292578488588,1,-0.0002600693551357836,1
1772122738512681216,0.00118652603123337,1,0.0004075547913089395,1,0.0435066819190979,1,0.0001506354892626405,1,-0.0001057380140991881,1,-8.680384053150192e-05,1
1772122738522237696,0.002486654091626406,1,-0.001153911929577589,1,0.0426756739616394,1,4.88779551233165e-05,1,-0.0003153069119434804,1,-0.0001290213840547949,1
1772122738531699200,0.0002248644595965743,1,-0.0009837041143327951,1,0.04241814836859703,1,0.0002931825001724064,1,-2.86283902823925e-05,1,-9.671701991464943e-05,1
1772122738541068288,0.00157312280498445,1,0.0005502990097738802,1,0.04308184608817101,1,0.0003057864960283041,1,0.0001676491665421054,1,-5.585204053204507e-05,1
1772122738550500864,0.000350473215803504,1,0.001068944460712373,1,0.04067627713084221,1,0.0003597007598727942,1,5.170232179807499e-05,1,1.914377207867801e-06,1
1772122738561235968,0.0007396134897135198,1,-0.001063744304701686,1,0.03959992155432701,1,0.000279050029348582,1,-0.0001031196807161905,1,-3.055313572986051e-05,1
1772122738571866368,0.000181967334356159,1,-0.0009290490997955203,1,0.03746253252029419,1,0.0002857795916497707,1,-0.0005982795264571905,1,-0.0001605344150448218,1
1772122738582392320,0.001644107163883746,1,-0.0005875561037100852,1,0.03719117492437363,1,3.436000406509265e-05,1,-7.622749399160966e-05,1,4.720505603472702e-05,1
1772122738592814592,0.001302954740822315,1,0.0002529961639083922,1,0.03972652927041054,1,-0.0002220287278760225,1,-7.631322660017759e-05,1,8.626355702290311e-05,1
1772122738603136000,0.003559479955583811,1,0.0004343597684055567,1,0.04087688028812408,1,-0.0003508972586132586,1,0.0001638869580347091,1,0.0001776661956682801,1
1772122738613355520,0.001882309443317354,1,0.0008292378042824566,1,0.0410660058259964,1,-2.120881981682032e-05,1,0.0001003369325189851,1,0.000184326185262762,1
1772122738623472640,0.0008031958714127541,1,-0.0002134356473106891,1,0.04006506875157356,1,0.0002054652431979775,1,0.0002504064759705216,1,-0.0002210557286161929,1
1772122738633490176,0.004754507448524237,1,0.001344681135378778,1,0.04175294563174248,1,0.0002251088881166652,1,0.0001916077599162236,1,3.009084321092814e-05,1
1772122738643408896,0.003494416130706668,1,0.001759509788826108,1,0.04273565113544464,1,0.0004821109469048679,1,1.446668466087431e-05,1,0.0001123429683502764,1
1772122738653231616,0.003730274038389325,1,0.0008081482374109328,1,0.04235657677054405,1,0.0004196999361738563,1,-0.0002292255812790245,1,-1.273941779800225e-05,1
1772122738662960896,0.002069266512989998,1,0.001438791980035603,1,0.04195671901106834,1,0.0001301066222367808,1,-8.767582039581612e-05,1,-3.973166167270392e-05,1
1772122738672594688,-0.0009230491705238819,1,-0.0002775234752334654,1,0.04114006087183952,1,0.0003687756543513387,1,-0.0003498598234727979,1,-0.000191179511602968,1
1772122738682134528,0.0009556811419315636,1,-0.0004046018584631383,1,0.04216587170958519,1,0.0001485372195020318,1,-4.284783790353686e-05,1,0.0003848991764243692,1
1772122738691579392,0.002025889232754707,1,0.0006687071290798485,1,0.04060389846563339,1,6.643544475082308e-05,1,0.0001310580119024962,1,9.249518916476518e-05,1
1772122738700929792,-0.0002580024302005768,1,0.0005607533385045826,1,0.04227768629789352,1,0.000218304805457592,1,-0.0001609539322089404,1,-0.000138729767058976,1
1772122738710653440,0.0001116850107791834,1,0.00012771382171195,1,0.04121864214539528,1,0.0003031099331565201,1,-4.865811933996156e-05,1,-0.0001800571480998769,1
1772122738721356544,0.0004056467732880265,1,0.0002664835192263126,1,0.04306114837527275,1,0.000133378547616303,1,-0.000173549386090599,1,2.347680492675863e-05,1
1772122738731955456,0.001341074239462614,1,-0.001068525947630405,1,0.04284187406301498,1,0.0001000264965114184,1,-0.0002477851812727749,1,-7.391540566459298e-05,1
1772122738742450688,0.001263884827494621,1,-0.0009441753500141203,1,0.03861826285719872,1,-8.21430585347116e-05,1,-0.0002062400599243119,1,-2.570190736150835e-05,1
1772122738752841728,-0.001277358853258193,1,0.0007050232961773872,1,0.0393245555460453,1,-4.470010389923118e-05,1,-3.419036511331797e-05,1,-7.97816610429436e-05,1
1772122738763131392,-3.004434984177351e-05,1,-0.001522621721960604,1,0.04065455496311188,1,-7.875027949921787e-05,1,3.32474046444986e-05,1,-0.0001059072601492517,1
1772122738773322752,6.613446748815477e-05,1,0.0001702109584584832,1,0.03926996886730194,1,-0.0002402123791398481,1,3.662047311081551e-05,1,-2.031976691796444e-05,1
1772122738783411712,0.0007612605695612729,1,0.0009413869120180607,1,0.03916952386498451,1,-0.0002887532173190266,1,0.0001535420451546088,1,0.0001426276576239616,1
1772122738793400832,0.0002697606687434018,1,0.0001394345454173163,1,0.04384578764438629,1,-0.0003987688396591693,1,0.0003409350174479187,1,0.0001690767385298386,1
1772122738803292416,-0.0007947238045744598,1,-0.0003776876837946475,1,0.040647953748703,1,-0.000360629172064364,1,0.0002390418667346239,1,-2.607676469779108e-05,1
1772122738813085696,0.002089018933475018,1,-0.0001810392132028937,1,0.04130995646119118,1,-0.000166775265824981,1,0.0002354953903704882,1,-1.86024062713841e-05,1
1772122738822783488,0.002401168690994382,1,-0.001192879630252719,1,0.04303502291440964,1,1.291414082515985e-05,1,9.378106915391982e-05,1,0.0003354907385073602,1
1772122738832385536,0.003047322854399681,1,-0.0006647128611803055,1,0.04588040336966515,1,7.873446156736463e-05,1,0.0003574895672500134,1,6.003628004691564e-05,1
1772122738841893120,0.00109104672446847,1,-0.000148326565977186,1,0.0450134202837944,1,6.186881364556029e-05,1,-0.0002416284696664661,1,-7.258100959006697e-05,1
1772122738851307264,0.002063359832391143,1,-0.000727191916666925,1,0.04275468736886978,1,9.961336036212742e-05,1,-0.0002686078369151801,1,-0.0003484192711766809,1
1772122738860627712,0.004131768830120564,1,0.0005616385024040937,1,0.04118461534380913,1,-0.000127140068798326,1,-0.0001692988735157996,1,-0.0001991086901398376,1
1772122738870784000,0.001728399889543653,1,0.0007365525816567242,1,0.04004940018057823,1,0.0001897066831588745,1,0.0002204105694545433,1,3.626778197940439e-05,1
1772122738881457664,-0.0004202918207738549,1,-0.001412567915394902,1,0.03991437330842018,1,9.300024248659611e-05,1,0.0001406381197739393,1,-0.0001211586641147733,1
1772122738892024832,0.001221788348630071,1,0.0002610491355881095,1,0.04048721864819527,1,2.376935663050972e-05,1,0.00011644751066342,1,-0.0003129315155092627,1
1772122738902489344,0.003146798349916935,1,0.0009949052473530173,1,0.04008639603853226,1,-4.078341589774936e-06,1,-0.0004102489911019802,1,-0.0002530863275751472,1
1772122738912850688,0.003363266121596098,1,-7.821102917660028e-05,1,0.04014155641198158,1,-4.772628017235547e-06,1,-0.0002789789286907762,1,-0.0001181836560135707,1
1772122738923112192,0.003038703696802258,1,-3.939001544495113e-05,1,0.03789407387375832,1,-0.0001282419398194179,1,-6.86287457938306e-05,1,-0.0002472886408213526,1
1772122738933272832,0.002760854084044695,1,-0.000185406519449316,1,0.03732475265860558,1,1.255535607924685e-06,1,-6.540022150147706e-05,1,-0.0001505871623521671,1
1772122738943331584,-0.000403951620683074,1,-0.002423268975690007,1,0.04064792022109032,1,0.0001169135794043541,1,-0.0002986259059980512,1,-6.306155410129577e-05,1
1772122738953292544,0.001650843769311905,1,-0.000874705146998167,1,0.04101739823818207,1,0.0001842504134401679,1,-0.000254766782745719,1,5.01799258927349e-05,1
1772122738963154688,0.001313393353484571,1,8.991127833724022e-05,1,0.03775285929441452,1,0.0003239276120439172,1,-5.697325832443312e-05,1,0.0001860324264271185,1
1772122738972918784,0.002320888685062528,1,-0.001092435210011899,1,0.04129528999328613,1,0.0003163238579872996,1,0.0001117451029131189,1,6.435836257878691e-05,1
1772122738982588160,0.0004835424770135432,1,-0.001561441808007658,1,0.0404864028096199,1,0.0006388744222931564,1,-0.0001895885798148811,1,-4.132790854782797e-05,1
1772122738992161280,0.0006562823546119034,1,-5.578156560659409e-06,1,0.04031360149383545,1,0.0006468559149652719,1,-0.0001414427970303223,1,-6.339483661577106e-05,1
1772122739001639168,0.001793498871847987,1,0.00146302895154804,1,0.04219673573970795,1,0.0004172346962150186,1,-0.0001408716343576089,1,6.730160384904593e-05,1
1772122739011024896,0.001551419263705611,1,0.001156904851086438,1,0.04328252375125885,1,0.0001686610776232556,1,-2.684413993847556e-05,1,4.331673699198291e-05,1
1772122739020319488,0.002065813168883324,1,-0.0003965396899729967,1,0.04111625999212265,1,0.000128205370856449,1,-8.387408161070198e-05,1,5.263926868792623e-05,1
1772122739030927104,0.002311518881469965,1,-0.0003659192589111626,1,0.04197673499584198,1,0.0002542912552598864,1,-0.0001254907110705972,1,0.0002965125313494354,1
1772122739041585408,0.003105920972302556,1,-0.0004637792881112546,1,0.04186979681253433,1,-0.0002191710809711367,1,5.675196007359773e-05,1,0.0001751471863826737,1
1772122739052138752,-0.004141368437558413,1,0.0008573503000661731,1,0.0499243438243866,1,-0.0004421433841343969,1,0.0001754755940055475,1,0.000189079117262736,1
1772122739062589184,0.002175596309825778,1,-0.001650215359404683,1,0.02722697705030441,1,-0.0003472978132776916,1,-0.0002322080254089087,1,9.1747260739794e-06,1
1772122739072938496,0.003312451066449285,1,-0.0007978496141731739,1,0.0242849588394165,1,-0.0001453310687793419,1,-0.0001188309688586742,1,-4.163912672083825e-05,1
1772122739083187200,0.004382147453725338,1,0.001378634478896856,1,0.03814506158232689,1,0.0001620451657800004,1,0.0001854429865488783,1,-9.450947982259095e-05,1
1772122739093336320,0.003842496778815985,1,-0.001420390559360385,1,0.05095856264233589,1,0.0001334057888016105,1,0.000450931693194434,1,-2.278423926327378e-05,1
1772122739103386368,0.00186087260954082,1,0.0003513970877975225,1,0.04360233992338181,1,-0.0001141386965173297,1,0.0003625354438554496,1,8.520041592419147e-05,1
1772122739113337600,0.002539297100156546,1,-0.000289643183350563,1,0.03533215820789337,1,-1.188525493489578e-05,1,0.0002755150489974767,1,-9.212936129188165e-05,1
1772122739123191808,-1.956464257091284e-05,1,-0.0004286643816158175,1,0.04411587119102478,1,4.357241050456651e-05,1,-2.401192068646196e-05,1,-3.108410965069197e-05,1
1772122739132948736,-9.020953439176083e-05,1,-0.004346991423517466,1,0.04333976656198502,1,-0.0001485176180722192,1,-0.0001685372990323231,1,1.868239087343682e-05,1
1772122739142612480,0.000615419412497431,1,-0.001860007178038359,1,0.04163317382335663,1,0.0001786211942089722,1,-0.0001412101119058207,1,-7.494774763472378e-05,1
1772122739152180480,0.001971762394532561,1,-9.2386340838857e-05,1,0.04228585213422775,1,3.504384949337691e-06,1,-0.0005659522139467299,1,-0.0002341285289730877,1
1772122739161655296,0.004026840440928936,1,-7.583316619275138e-05,1,0.0431562177836895,1,2.046514418907464e-05,1,-9.919143485603854e-05,1,-0.00017385627143085,1
1772122739171036416,0.005645765922963619,1,-0.0001948785502463579,1,0.04089325293898582,1,-8.545346645405516e-06,1,4.391987749841064e-05,1,-7.333288522204384e-05,1
1772122739180480768,0.003633205080404878,1,0.0002771405561361462,1,0.04275136440992355,1,-8.720358891878277e-05,1,0.0002662257465999573,1,7.707042095717043e-05,1
1772122739191217920,0.002060519065707922,1,-0.0001833047135733068,1,0.04277904704213142,1,-0.0002490411570761353,1,0.0004940512590110302,1,0.0001702094305073842,1
1772122739201849344,0.001520508201792836,1,-0.0008667436777614057,1,0.04089599102735519,1,-9.548620437271893e-05,1,0.0003077861911151558,1,0.0001460259809391573,1
1772122739212379392,0.0006969108362682164,1,0.002899669343605638,1,0.04219546169042587,1,-0.0001584105775691569,1,0.0001718920102575794,1,-2.959764424304012e-05,1
1772122739222805504,0.001514184521511197,1,0.003127201227471232,1,0.04220542684197426,1,-0.0003485847846604884,1,0.0001727297058096156,1,-9.009812492877245e-05,1
1772122739233129984,0.002222811337560415,1,0.002217097207903862,1,0.03903421759605408,1,1.394087485095952e-05,1,-9.411668725078925e-05,1,0.0001685681054368615,1
1772122739243362304,0.002198696369305253,1,0.0002028084418270737,1,0.04084217548370361,1,-0.0001915856846608222,1,-0.0001212396236951463,1,0.000337956880684942,1
1772122739253499904,0.003931549377739429,1,0.0009151052217930555,1,0.03995769843459129,1,-0.0001442428037989885,1,-5.273602801025845e-05,1,0.0002896435034926981,1
1772122739263537664,0.003434461075812578,1,0.001117836916819215,1,0.04080675542354584,1,-0.0002964237064588815,1,-9.776264778338373e-05,1,0.0001722722809063271,1
1772122739273476608,0.002604397479444742,1,0.0008976576500572264,1,0.03985647857189178,1,-0.000185821729246527,1,0.0001228655455633998,1,0.0001405888615408912,1
1772122739283318784,0.002185065532103181,1,0.0004759081639349461,1,0.04220886155962944,1,0.0002683268394321203,1,0.0002976701944135129,1,0.0001721687876852229,1
1772122739293063424,-6.817738176323473e-05,1,-0.0002300081541761756,1,0.04333144053816795,1,3.137101521133445e-05,1,-4.931311923428439e-05,1,-0.0001899057097034529,1
1772122739302713600,0.001207247842103243,1,-0.001416411949321628,1,0.04385409504175186,1,-0.0001683830050751567,1,5.474963472806849e-05,1,-2.911259434767999e-05,1
1772122739312270080,0.0004482949443627149,1,-0.001643351977691054,1,0.04395179077982903,1,-0.0004041289794258773,1,0.0002480117254890501,1,-0.0001280353171750903,1
1772122739321731584,0.002577991457656026,1,-0.0005332662258297205,1,0.04555479064583778,1,-6.818008841946721e-05,1,0.0002907186280936003,1,5.671112739946693e-05,1
1772122739331101440,0.00516914576292038,1,0.001376489293761551,1,0.04444045200943947,1,-6.376430974341929e-05,1,4.742274904856458e-05,1,-0.0001470747520215809,1
1772122739340837376,0.00515567883849144,1,0.000972798909060657,1,0.04271722584962845,1,-0.000140865333378315,1,0.0003293909248895943,1,-0.0001173692435258999,1
1772122739351543552,0.007002199534326792,1,-0.0004426689411047846,1,0.03948094695806503,1,-0.0002263321657665074,1,0.0002964004524983466,1,-8.994569361675531e-05,1
1772122739362145536,0.003519145073369145,1,0.0002521095448173583,1,0.04051348939538002,1,9.945651981979609e-07,1,2.897140802815557e-06,1,-9.54423303483054e-05,1
1772122739372642048,0.001582309836521745,1,0.0007910247077234089,1,0.03738560900092125,1,-0.0002988599298987538,1,-0.0002122643491020426,1,-6.703650433337316e-05,1
1772122739383034112,0.000349182344507426,1,0.00132715969812125,1,0.04122091829776764,1,-0.0005452733603306115,1,-0.0001780501625034958,1,-0.0001603838172741234,1
1772122739393325312,0.001394613296724856,1,0.001636890228837729,1,0.03994675725698471,1,-3.171336720697582e-05,1,-5.140006396686658e-05,1,-0.0001766534842317924,1
1772122739403515904,0.002407460007816553,1,0.002664134372025728,1,0.03698057308793068,1,-4.269870260031894e-06,1,-0.0003007501945830882,1,5.835122647113167e-05,1
1772122739413607936,0.002694758120924234,1,0.002605634741485119,1,0.03929409757256508,1,-2.054367359960452e-05,1,-0.0002406035055173561,1,8.265450014732778e-05,1
1772122739423601920,0.002558309817686677,1,0.002829748904332519,1,0.0414368249475956,1,0.0001279512362089008,1,2.36815212701913e-05,1,7.641466800123453e-05,1
1772122739433497344,0.002659151796251535,1,0.0025739511474967,1,0.04160428047180176,1,-4.092110975761898e-05,1,2.474030407029204e-05,1,-0.0001280786382267252,1
1772122739443296256,0.001560528064146638,1,-0.0005300338962115347,1,0.04039980471134186,1,-7.665243174415082e-05,1,-0.0001546847925055772,1,1.479887578170747e-05,1
1772122739452997888,-0.001952198450453579,1,-0.001462592161260545,1,0.04154278710484505,1,-9.125490032602102e-05,1,8.601996523793787e-05,1,4.472477303352207e-05,1
1772122739462605312,-0.0003844440216198564,1,-0.001849307911470532,1,0.04292313382029533,1,-7.116346387192607e-05,1,-0.0001610260078450665,1,0.0001414924481650814,1
1772122739472119552,-0.00150246312841773,1,-0.001144813373684883,1,0.037704948335886,1,-0.0001212006391142495,1,-0.0001943270617630333,1,7.178536907304078e-05,1
1772122739481539072,0.0007908763363957405,1,0.001106526469811797,1,0.0387929230928421,1,-0.0001262524456251413,1,-0.0002429235028102994,1,0.0001939086942002177,1
1772122739490866432,0.0006821254501119256,1,-0.0002204008342232555,1,0.04060235619544983,1,-0.0003562768106348813,1,-0.0001687074400251731,1,0.0001391858095303178,1
1772122739501024256,0.003135748207569122,1,0.001798511017113924,1,0.03956843912601471,1,-7.076299516484141e-05,1,-0.0002223333431174979,1,-0.0003300498065073043,1
1772122739511693824,0.002647274639457464,1,-0.00155791686847806,1,0.03882546350359917,1,-0.0001313474349444732,1,-0.0002292439166922122,1,-0.0002120881399605423,1
1772122739522258688,0.003783660009503365,1,-0.001119411084800959,1,0.04105284810066223,1,-0.0002659054880496114,1,-0.0001312218664679676,1,-8.094184886431322e-05,1
1772122739532718592,0.002757424721494317,1,-0.002703561913222075,1,0.04221199825406075,1,3.469107105047442e-05,1,9.31392060010694e-05,1,9.436527034267783e-05,1
1772122739543074304,0.001310898689553142,1,-0.001487566856667399,1,0.04160206019878387,1,0.0004400276811793447,1,-3.869466308970004e-05,1,0.0002944926091004163,1
1772122739553331456,0.001330613391473889,1,0.00187399669084698,1,0.0429268591105938,1,0.0001084326868294738,1,-3.405873576411977e-05,1,0.0001538182550575584,1
1772122739563486976,-3.31727642333135e-06,1,0.001657119835726917,1,0.04147550463676453,1,0.0001923240051837638,1,-0.0001470701099606231,1,0.0002978586126118898,1
1772122739573541376,0.0009891230147331953,1,0.00289094028994441,1,0.04057818651199341,1,0.0001538787328172475,1,-0.0005608159117400646,1,0.0001221146085299551,1
1772122739583497472,0.002421909011900425,1,0.002871326170861721,1,0.04036971554160118,1,0.0001963431423064321,1,-0.000464804150396958,1,1.056978362612426e-05,1
1772122739593355008,0.001654615742154419,1,0.0002003678819164634,1,0.03762834146618843,1,0.0001053321684594266,1,-0.000118812095024623,1,-4.650908522307873e-05,1
1772122739603114752,0.002876301296055317,1,-0.0002103631850332022,1,0.04013160988688469,1,0.0004737158305943012,1,-0.0003004518512170762,1,1.247021555172978e-05,1
1772122739612778752,0.002000616630539298,1,0.0007483033696189523,1,0.04182007163763046,1,0.0004002329369541258,1,-0.0003733792982529849,1,-6.740432581864297e-05,1
1772122739622347520,0.002325977431610227,1,0.0008650308009237051,1,0.04068674147129059,1,6.132142152637243e-05,1,-0.000106617939309217,1,-0.0001380904577672482,1
1772122739631821056,0.001302318996749818,1,0.0003451454103924334,1,0.04182339832186699,1,9.822188440011814e-05,1,-3.641071816673502e-05,1,0.0001284444733755663,1
1772122739641200384,-0.0005164731410332024,1,0.0007548342691734433,1,0.04097864031791687,1,0.000140979012940079,1,-0.0001863098586909473,1,0.0001557141076773405,1
1772122739650488832,-9.120930917561054e-05,1,0.0007967856363393366,1,0.04077783226966858,1,0.0001114068654715084,1,-8.942635759012774e-05,1,0.0001470684655942023,1
1772122739661093632,-0.0004306989721953869,1,-0.001152349635958672,1,0.04016457125544548,1,0.0001531822490505874,1,-6.632719305343926e-05,1,0.0001630132464924827,1
1772122739671748864,0.0007950123981572688,1,-0.001969874138012528,1,0.0406651459634304,1,-6.922342436155304e-06,1,0.0002070385671686381,1,0.0001719278516247869,1
1772122739682299392,0.001499539706856012,1,-0.001524799037724733,1,0.03823782131075859,1,0.0003269982407800853,1,0.0001963868271559477,1,3.263250982854515e-05,1
1772122739692745984,0.00301015074364841,1,-0.001810955815017223,1,0.04087545722723007,1,8.374494063900784e-05,1,0.0002751920837908983,1,7.128171273507178e-05,1
1772122739703088384,0.001923850970342755,1,0.001549344859085977,1,0.04177308827638626,1,-0.0001960409572347999,1,-2.431723260087892e-06,1,-0.0002716380986385047,1
1772122739713332224,0.00426447344943881,1,0.001016192603856325,1,0.04181903973221779,1,-0.0002892163174692541,1,-0.0002174411492887884,1,-8.795555913820863e-05,1
1772122739723474944,0.002676592906937003,1,-5.926593439653516e-05,1,0.04009591415524483,1,-8.09002376627177e-05,1,-0.0004701601574197412,1,4.735764377983287e-05,1
1772122739733516800,0.002356435637921095,1,0.001241758931428194,1,0.04047375917434692,1,-0.0003434836398810148,1,-0.0002509570622351021,1,-1.344553220405942e-05,1
1772122739743460352,0.002258903114125133,1,0.0008269493700936437,1,0.04507306963205338,1,-0.0002290421252837405,1,-0.0001292694505536929,1,1.121874083764851e-05,1
1772122739753305600,0.001433353521861136,1,0.0008081786800175905,1,0.04425003379583359,1,-5.562282603932545e-05,1,-2.313645018148236e-05,1,6.205930549185723e-05,1
1772122739763052800,0.0006632820004597306,1,0.0002099284320138395,1,0.04222311452031136,1,3.802256469498388e-05,1,-0.0001810896501410753,1,-8.898321539163589e-05,1
1772122739772704768,-0.0005375503678806126,1,0.002185404067859054,1,0.04037859290838242,1,-8.213677938329056e-05,1,-8.304029324790463e-05,1,-0.0001800449390430003,1
1772122739782261504,-0.0004430577100720257,1,0.001114372164011002,1,0.04296914488077164,1,-0.0002291798737132922,1,-0.0002574253885541111,1,-0.0001151454271166585,1
1772122739791724032,0.001035075983963907,1,0.0009746362338773906,1,0.041886355727911,1,-0.0001213337163790129,1,-8.092523057712242e-05,1,-3.115807703579776e-05,1
1772122739801094144,0.0009803875582292676,1,-0.0004179920942988247,1,0.04231636971235275,1,5.626428173854947e-05,1,-0.0001050213104463182,1,-8.047365554375574e-06,1
1772122739810526464,-0.0002449335297569633,1,-0.0006613553850911558,1,0.0390428900718689,1,9.654620953369886e-05,1,-7.237356476252899e-05,1,-6.050066804164089e-05,1
1772122739821260032,-0.000264492497080937,1,-0.002384281950071454,1,0.04251369088888168,1,-2.034707358689047e-05,1,-0.0001018486000248231,1,0.0001856529706856236,1
1772122739831887872,-0.0005004499107599258,1,-0.001429327530786395,1,0.04375447332859039,1,-0.0003641372313722968,1,0.0002766200341284275,1,0.0001719060528557748,1
1772122739842412288,0.001436386490240693,1,-1.390752731822431e-05,1,0.04515516012907028,1,-0.0001889505656436086,1,0.0004118362267035991,1,0.0002278522006236017,1
1772122739852832000,0.001904844888485968,1,0.001195829245261848,1,0.04277338087558746,1,-5.937138485023752e-05,1,8.378148049814627e-05,1,-7.396291039185598e-05,1
1772122739863149568,-0.0003672758175525814,1,3.617590118665248e-05,1,0.04281313717365265,1,0.0001103157555917278,1,-0.0001970805460587144,1,8.963705113274045e-06,1
1772122739873366528,0.0005520105478353798,1,0.0001358655572403222,1,0.04368658736348152,1,6.113776180427521e-05,1,-4.807771620107815e-05,1,-8.086172601906583e-05,1
1772122739883481088,0.001886503654532135,1,-0.0008203280158340931,1,0.04258717969059944,1,0.0003766766749322414,1,-4.638553946278989e-05,1,-0.0001040126953739673,1
1772122739893495040,0.002425654092803597,1,-0.001001761411316693,1,0.0415983684360981,1,0.0006697940407320857,1,0.0001874865702120587,1,-4.165041173109785e-05,1
1772122739903411456,0.003107411321252584,1,0.001302550663240254,1,0.04385538399219513,1,0.0006660071085207164,1,0.0003107990196440369,1,-0.000158663431648165,1
1772122739913232640,0.002454470144584775,1,0.002352019073441625,1,0.0419258140027523,1,0.0002423894329695031,1,0.0001482212683185935,1,7.629072206327692e-05,1
1772122739922959872,0.0004027049290016294,1,0.002089967718347907,1,0.04210725799202919,1,0.0001231934875249863,1,-0.0002594398974906653,1,0.00019632707699202,1
1772122739932590592,0.0005154572427272797,1,-0.0003427701885811985,1,0.04150354489684105,1,0.0001123949841712601,1,-9.866933396551758e-05,1,0.0003583151556085795,1
1772122739942125568,0.0007677072426304221,1,0.0008126439061015844,1,0.04071957990527153,1,-0.0001199272373924032,1,-9.07583671505563e-06,1,0.0001994855265365914,1
1772122739951568128,0.001542316749691963,1,0.0007073399028740823,1,0.04055999964475632,1,-9.285075066145509e-06,1,5.29405842826236e-05,1,0.0002583963214419782,1
1772122739960916736,0.001157897990196943,1,-0.0008839527727104723,1,0.04220561683177948,1,0.0001049049606081098,1,0.0003877666895277798,1,0.0003154840087518096,1
1772122739970636288,0.0006216393085196614,1,0.0003852634981740266,1,0.04307306557893753,1,-0.0001898251357488334,1,0.0002726828097365797,1,0.0002014833589782938,1
1772122739981338368,-0.0002084647421725094,1,0.002765332581475377,1,0.04227210208773613,1,-5.826360575156286e-05,1,6.087710789870471e-05,1,4.14461683249101e-05,1
1772122739991935232,0.0006207641563378274,1,0.001363931689411402,1,0.04213353618979454,1,-0.0002649803063832223,1,-5.952048377366737e-05,1,0.0001403135538566858,1
1772122740002427904,0.001520048710517585,1,0.001471537747420371,1,0.03884482383728027,1,0.000292550801532343,1,7.493719749618322e-06,1,0.0001400670444127172,1
1772122740012816896,0.002544909948483109,1,0.002822797046974301,1,0.0397925116121769,1,0.0001066706026904285,1,0.0001614404318388551,1,-5.870865061297081e-05,1
1772122740023104768,0.004412585869431496,1,0.003059594193473458,1,0.04122360050678253,1,-0.0001776581193553284,1,0.0003703685069922358,1,-0.0001653377403272316,1
1772122740033293568,0.003594946814700961,1,0.0002074733201880008,1,0.04269630834460258,1,-0.0001086337651940994,1,0.0002566968032624573,1,-0.0001568954176036641,1
1772122740043380224,0.003488924354314804,1,0.0003463116881903261,1,0.04149074107408524,1,5.328453698894009e-05,1,-2.327242145838682e-05,1,8.684929343871772e-05,1
1772122740053367296,0.003126302501186728,1,-0.0007467357208952308,1,0.04363515228033066,1,-0.0001701346482150257,1,-0.0001893020526040345,1,-2.750221756286919e-05,1
1772122740063257344,0.0009092665277421474,1,-0.0003673973260447383,1,0.04303683340549469,1,8.273662388091907e-06,1,-0.0001752935932017863,1,0.0001494282769272104,1
1772122740073048576,0.0006763682467862964,1,0.000508679251652211,1,0.04058429226279259,1,-4.680545680457726e-05,1,-0.0001938620989676565,1,0.0001701868168311194,1
1772122740082743296,-0.0005390323931351304,1,-0.0007725888281129301,1,0.04001309722661972,1,8.375250035896897e-05,1,-1.772504401742481e-05,1,-6.378500984283164e-06,1
1772122740092343296,-4.790519597008824e-05,1,0.0006891834200359881,1,0.04022801667451859,1,4.531612648861483e-05,1,0.0002933057257905602,1,-0.0001898512273328379,1
1772122740101847552,0.001204306026920676,1,0.001430999021977186,1,0.04127595573663712,1,-0.0001413827121723443,1,0.0004308618663344532,1,-0.0001194542273879051,1
1772122740111257088,0.0007968091522343457,1,-0.0006006208132021129,1,0.04188591986894608,1,0.0004906296962872148,1,9.947526268661022e-05,1,-0.0001440272317267954,1
1772122740120575744,0.002015797421336174,1,0.001739748404361308,1,0.04271038249135017,1,0.0001372814149362966,1,3.081881004618481e-05,1,-4.848909884458408e-05,1
1772122740130730752,0.003514930140227079,1,0.0003626102115958929,1,0.03950243443250656,1,0.0001726095069898292,1,-0.0002876846410799772,1,-8.116953540593386e-05,1
1772122740141402368,0.002415240975096822,1,-0.00132405839394778,1,0.04149734228849411,1,-0.0004071919247508049,1,-6.528514495585114e-05,1,0.0001280719443457201,1
1772122740151969792,0.001537362579256296,1,-0.002599179511889815,1,0.04338907077908516,1,-0.0002165542100556195,1,0.0001254170929314569,1,0.0001074934771168046,1
1772122740162432512,0.002047013258561492,1,-0.002141394186764956,1,0.04400917515158653,1,-0.0001756597921485081,1,0.0003624029632192105,1,0.0001653672370593995,1
1772122740172792064,0.001077441032975912,1,-0.001132712699472904,1,0.04429227486252785,1,5.920900730416179e-05,1,0.0002162721211789176,1,0.0005069716135039926,1
1772122740183052544,-0.0009798298124223948,1,-0.0006916321581229568,1,0.04137267172336578,1,0.0004063350497744977,1,-0.0001243421138497069,1,0.0002871720062103122,1
1772122740193210624,-0.000157466929522343,1,-0.0002876340004149824,1,0.04179330542683601,1,-8.729267574381083e-05,1,-0.0001827891101129353,1,0.0001266717590624467,1
1772122740203268864,0.0009244793327525258,1,0.0001549621374579147,1,0.0400376208126545,1,-0.0001234071096405387,1,-0.0002103676524711773,1,-0.0001495389442425221,1
1772122740213228544,0.001298543647862971,1,-0.001856852089986205,1,0.0399111732840538,1,9.826112363953143e-05,1,-7.362348696915433e-05,1,-0.0001776065037120134,1
1772122740223088896,0.003154174657538533,1,-0.001132883131504059,1,0.04323295131325722,1,0.0003837122640106827,1,7.567599095636979e-05,1,-0.0001152250406448729,1
1772122740232851968,0.001344338641501963,1,-0.001531050074845552,1,0.0428849421441555,1,0.0002527299511712044,1,0.0001117515639634803,1,-0.000183640222530812,1
1772122740242520064,0.0004975898773409426,1,-0.001183538697659969,1,0.04193834960460663,1,0.000193211977602914,1,0.0003418444248382002,1,1.09691636680509e-05,1
1772122740252091648,-0.0004240873386152089,1,0.0003907635691575706,1,0.04112469404935837,1,0.000197313551325351,1,0.0001648413890507072,1,-0.0001372047991026193,1
1772122740261570304,0.0003922894538845867,1,-0.0001239383709616959,1,0.04079264029860497,1,-2.457190203131177e-05,1,0.0001232593349413946,1,-4.252086364431307e-05,1
1772122740270954752,0.0008448731387034059,1,-0.001439595827832818,1,0.04360233992338181,1,0.0002547986805438995,1,-0.0001656346285017207,1,-0.0002038682578131557,1
1772122740280247040,0.0009525520727038383,1,0.0007745252805761993,1,0.04095426574349403,1,0.0003355320659466088,1,0.0001231757196364924,1,-0.0002035963116213679,1
1772122740290853376,0.002825473202392459,1,0.002296659164130688,1,0.04165149852633476,1,-1.835865805333015e-05,1,0.0001891717838589102,1,-4.904934394289739e-05,1
1772122740301510656,0.005338486284017563,1,0.00157223897986114,1,0.04134878143668175,1,-8.014714694581926e-05,1,0.0001641499984543771,1,0.000149504907312803,1
1772122740312062208,0.00285831349901855,1,0.001115242368541658,1,0.04096130654215813,1,8.729841647436842e-05,1,-5.034865171182901e-05,1,0.0001253523369086906,1
1772122740322508800,0.002593864221125841,1,0.0008938070386648178,1,0.04185948893427849,1,0.0001938670029630885,1,0.0001165746798506007,1,2.146918268408626e-05,1
1772122740332854784,0.002097134478390217,1,-0.000205228483537212,1,0.04307779669761658,1,3.705708149936981e-05,1,0.0001816126896301284,1,-4.054385499330238e-05,1
1772122740343099904,0.0002743643126450479,1,-0.0004590901371557266,1,0.04624183475971222,1,0.000143553945235908,1,0.0002162986638722941,1,0.0001328917860519141,1
1772122740353242624,-0.001533284201286733,1,0.002438138704746962,1,0.04619192704558372,1,0.0001196551820612513,1,9.268856956623495e-05,1,0.0003242442617192864,1
1772122740363284992,-0.0005333293229341507,1,0.00138059095479548,1,0.04251351580023766,1,-7.811909745214507e-05,1,0.0003630713326856494,1,0.0003670389705803245,1
1772122740373229312,-0.0007994019542820752,1,0.003324600867927074,1,0.04136250168085098,1,-0.0001456784520996734,1,-3.288725929451175e-05,1,0.0001279287680517882,1
1772122740383074560,0.0004437449970282614,1,0.00173932034522295,1,0.0392603762447834,1,-0.0001626625453354791,1,-0.0001090813530026935,1,0.0001935123436851427,1
1772122740392822016,0.001900102361105382,1,0.00263178488239646,1,0.043236143887043,1,-0.000320470571750775,1,-0.0001485775719629601,1,7.226119487313554e-05,1
1772122740402474752,0.002521035727113485,1,0.003089127829298377,1,0.04276080429553986,1,-0.0002712128916755319,1,0.0002036553778452799,1,-9.126767690759152e-05,1
1772122740412031232,0.001150247757323086,1,0.001439307816326618,1,0.04426321759819984,1,-7.827267836546525e-05,1,-0.0001529337023384869,1,-0.000143489203765057,1
1772122740421492736,0.00333042093552649,1,0.0008693739073351026,1,0.04461973160505295,1,1.749027069308795e-05,1,8.553295629099011e-05,1,2.460348696331494e-05,1
1772122740430862848,0.0004318284918554127,1,0.001505863387137651,1,0.04241973534226418,1,-5.353510277927853e-05,1,6.536333967233077e-05,1,7.221525447675958e-05,1
1772122740440295168,0.001991788391023874,1,0.001809824374504387,1,0.04173815622925758,1,-0.0002290273987455294,1,-0.0001799349556677043,1,0.0002804217510856688,1
1772122740451030016,0.000826410367153585,1,0.00137875834479928,1,0.04083270952105522,1,-5.816202610731125e-05,1,-9.426922770217061e-05,1,0.0002560325665399432,1
1772122740461658624,-0.0005844802362844348,1,-0.0014303078642115,1,0.04342575371265411,1,-7.896173337940127e-05,1,-0.0002207052893936634,1,0.0002645817294251174,1
1772122740472183296,-0.001175631303340197,1,0.001181804109364748,1,0.04586808755993843,1,7.072401058394462e-05,1,-0.0001654926600167528,1,3.850861685350537e-05,1
1772122740482604800,0.0008967607864178717,1,0.001104159280657768,1,0.04296756535768509,1,-0.0004013066936749965,1,-0.0003413637750782073,1,0.0001839241595007479,1
1772122740492924160,0.0006397836259566247,1,0.002063550986349583,1,0.04162294045090675,1,-0.0002848959993571043,1,0.0001116164785344154,1,5.39355241926387e-05,1
1772122740503141120,0.001517994096502662,1,0.001945970230735838,1,0.04040711373090744,1,-0.0004394054703880101,1,-0.0003351658233441412,1,0.0001395332510583103,1
1772122740513256448,0.001233597518876195,1,0.001200446742586792,1,0.04262582585215569,1,-0.0001909464626805857,1,-0.0001189569375128485,1,-9.524228516966105e-09,1
1772122740523272448,0.0002388748107478023,1,0.0001784098130883649,1,0.04234667867422104,1,5.980730929877609e-05,1,-0.0001076693879440427,1,3.097108128713444e-05,1
1772122740533190400,0.001479233615100384,1,0.0003900352749042213,1,0.04242334142327309,1,-5.954273365205154e-05,1,8.632207027403638e-05,1,4.129116859985515e-05,1
1772122740543013120,0.003212562296539545,1,-0.0007174310158006847,1,0.04341450333595276,1,0.0002107029285980389,1,0.0002868168230634183,1,2.334672899451107e-06,1
1772122740552738304,0.002518400782719254,1,0.0009012882364913821,1,0.04031939804553986,1,0.0001215565716847777,1,0.0002033511118497699,1,-2.484150718373712e-05,1
1772122740562369024,0.003412995720282197,1,0.001668352517299354,1,0.04171541333198547,1,0.0002583074674475938,1,-0.0002025709545705467,1,-3.912043757736683e-05,1
1772122740571904000,0.001822935068048537,1,0.001576019218191504,1,0.04171926900744438,1,0.0001092618040274829,1,-0.000244047972955741,1,0.0001693468220764771,1
1772122740581344000,0.001103696646168828,1,0.001973075326532125,1,0.04510412737727165,1,0.000119542601169087,1,-0.0002631407114677131,1,-9.424267045687884e-05,1
1772122740590690816,7.965529221110046e-05,1,0.001127956435084343,1,0.04224369674921036,1,0.0001507812703493983,1,5.978644912829623e-05,1,-0.0001327078352915123,1
1772122740600411136,-0.0003057035501115024,1,0.002943330677226186,1,0.04326663911342621,1,1.142401015385985e-05,1,0.0001103191971196793,1,-8.504903235007077e-06,1
1772122740611114240,0.001175173092633486,1,0.002057932550087571,1,0.04289232194423676,1,8.224412158597261e-05,1,-3.408554766792804e-05,1,-6.522270996356383e-05,1
1772122740621713152,0.0009756411891430616,1,0.001297000329941511,1,0.04271077737212181,1,9.063688776222989e-05,1,8.086882735369727e-05,1,-0.0002002627006731927,1
1772122740632206848,0.001298727700486779,1,0.001250310917384923,1,0.04081585630774498,1,6.995707371970639e-05,1,-1.106515264837071e-05,1,-6.817707617301494e-05,1
1772122740642597120,0.001417032675817609,1,9.600719204172492e-05,1,0.03991653025150299,1,1.306649301113794e-05,1,-1.154126948677003e-06,1,0.0001958563370862976,1
1772122740652885760,0.0004215642402414232,1,-0.000827292853500694,1,0.0439513586461544,1,7.883245416451246e-07,1,6.425744504667819e-05,1,-5.688534656655975e-05,1
1772122740663072000,0.0005626366473734379,1,-0.001049718703143299,1,0.04301550984382629,1,0.0001222283171955496,1,6.641323852818459e-05,1,3.811833448708057e-05,1
1772122740673157376,0.0005049387109465897,1,8.077194797806442e-05,1,0.04022129625082016,1,0.0001218486577272415,1,0.000297671853331849,1,-0.0001574297057231888,1
1772122740683147520,0.000869771814905107,1,0.001574100810103118,1,0.03966304659843445,1,-0.0002433084155200049,1,0.0003474979312159121,1,9.41553371376358e-05,1
1772122740693039872,0.003024319186806679,1,-0.0008546472527086735,1,0.04104362428188324,1,0.0002665160573087633,1,0.0002504648582544178,1,4.993889160687104e-05,1
1772122740702833408,0.003646407509222627,1,-0.002299695974215865,1,0.04110051691532135,1,5.505664375959896e-05,1,0.0001156224388978444,1,4.328655631979927e-05,1
1772122740712531200,0.003762100823223591,1,-0.0002376691263634712,1,0.04065063968300819,1,0.000215464664506726,1,0.0001085937619791366,1,0.0002207616053055972,1
1772122740722133248,0.003246597945690155,1,0.0004791708779521286,1,0.04056931659579277,1,0.0002065098233288154,1,0.0002499670663382858,1,-8.908884774427861e-05,1
1772122740731640064,0.003686307929456234,1,-0.0006727287545800209,1,0.0410621166229248,1,-1.59572227858007e-05,1,0.0002057544334093109,1,-0.000175062901689671,1
1772122740741053184,0.001671037171036005,1,0.003240857506170869,1,0.04189720749855042,1,-0.0003674725303426385,1,0.0002977265103254467,1,-7.269546767929569e-05,1
1772122740750373888,0.0007631605258211493,1,0.00301987724378705,1,0.0400884784758091,1,-0.0005221829051151872,1,0.0002926752786152065,1,0.000171200736076571,1
1772122740760530176,0.002873285906389356,1,0.002424299716949463,1,0.03929780796170235,1,-0.0003772095660679042,1,2.458496783219744e-05,1,0.0001785355852916837,1
1772122740771203840,0.0017292988486588,1,0.0007600125391036272,1,0.04279976338148117,1,-0.0002525276504456997,1,1.781806895451155e-05,1,-6.032981400494464e-05,1
1772122740781772544,0.002625968074426055,1,0.001036566100083292,1,0.04220376536250114,1,0.0002026923466473818,1,0.0003976085572503507,1,-7.728971831966192e-05,1
1772122740792237568,0.002604554872959852,1,0.001179756480269134,1,0.04231026768684387,1,-0.0001162772532552481,1,0.0003441049775574356,1,-4.783963959198445e-06,1
1772122740802604288,0.001160999643616378,1,0.0009986084187403321,1,0.04358703643083572,1,-0.0002438564843032509,1,6.680010847048834e-05,1,0.0001455592719139531,1
1772122740812870656,-0.0001090706064132974,1,0.001077831024304032,1,0.04450243711471558,1,-0.0001575824280735105,1,-0.0002571639779489487,1,-0.0001535809715278447,1
1772122740823036416,-0.00131934997625649,1,0.002553189639002085,1,0.0424618124961853,1,-0.0003503586631268263,1,-0.0002548020274844021,1,-7.969455327838659e-05,1
1772122740833102080,0.0005021226825192571,1,0.0005862501566298306,1,0.04181210324168205,1,-0.0004327241913415492,1,-0.0001695391110843047,1,-0.00017184266471304,1
1772122740843070720,0.0009613356087356806,1,0.001967073185369372,1,0.03996795043349266,1,-0.0001408451062161475,1,-0.0003110170655418187,1,-0.0001750243973219767,1
1772122740852940800,0.00484794657677412,1,-0.0003677782951854169,1,0.04107494279742241,1,0.0002722551580518484,1,0.0001580631505930796,1,-0.0001314013788942248,1
1772122740862715648,0.004048765636980534,1,0.002786861266940832,1,0.03759392350912094,1,0.0002394829643890262,1,0.0003536450967658311,1,-6.282910180743784e-05,1
1772122740872395264,0.003273003036156297,1,0.002312680007889867,1,0.0383097305893898,1,6.952142575755715e-05,1,0.0003162476059515029,1,5.68319728699862e-06,1
1772122740881979392,0.0020040029194206,1,-0.0005291413399390876,1,0.03835177421569824,1,0.0001251028734259307,1,0.000382053927751258,1,0.0002086137974401936,1
1772122740891469568,0.00143658509477973,1,0.0006028824718669057,1,0.04168333858251572,1,0.0001775572163751349,1,0.0002998129930347204,1,0.0001793441915651783,1
1772122740900866304,-0.0001953865576069802,1,5.678110755980015e-05,1,0.0416998527944088,1,-3.145103255519643e-05,1,0.0003817352117039263,1,-8.554824307793751e-05,1
1772122740910170880,-0.001274033333174884,1,0.0005130989011377096,1,0.04184282943606377,1,-4.414339491631836e-05,1,9.489331569056958e-05,1,-5.490424882736988e-05,1
1772122740920931840,-0.002183545846492052,1,-0.0008493268978781998,1,0.04071506485342979,1,-5.805251566926017e-05,1,-9.135706932283938e-05,1,2.181882882723585e-05,1
1772122740931586560,-0.0006338582606986165,1,-0.0005207351641729474,1,0.0422271266579628,1,-7.237741374410689e-05,1,-0.0001356899592792615,1,3.838583143078722e-05,1
1772122740942137600,-0.0004357100115157664,1,-0.0002929792099166662,1,0.04337679222226143,1,-3.895433474099264e-05,1,2.076494092762005e-05,1,0.0002821067464537919,1
1772122740952583424,7.038049807306379e-05,1,-0.000247411138843745,1,0.0432063564658165,1,-0.0002736053720582277,1,5.206773494137451e-06,1,0.000217835491639562,1
1772122740962926336,0.000615971046499908,1,-0.0007860719924792647,1,0.04393402487039566,1,-0.0001680312852840871,1,0.0002233316336059943,1,-3.119352913927287e-05,1
1772122740973171200,0.0002828297147061676,1,-0.002230396959930658,1,0.04162058979272842,1,0.0001136640057666227,1,0.0002973391674458981,1,-3.600485797505826e-06,1
1772122740983313920,-0.0002003502740990371,1,-0.00114766601473093,1,0.04095318913459778,1,-3.499704325804487e-05,1,0.0001417780295014381,1,0.0001928384590428323,1
1772122740993355008,-0.001211232854984701,1,-4.950290895067155e-05,1,0.04237948358058929,1,-0.0001330730738118291,1,-0.0001209910842590034,1,-0.000120958749903366,1
1772122741003298560,0.0006911289528943598,1,7.478006591554731e-05,1,0.03890461847186089,1,-0.000152640015585348,1,-0.000141640251968056,1,-0.000132238696096465,1
1772122741013143296,0.001623210962861776,1,-0.001729577197693288,1,0.0425940677523613,1,-0.0003033550456166267,1,-0.0002351317089051008,1,-5.436365609057248e-05,1
1772122741022889984,0.002845741575583816,1,5.683922790922225e-05,1,0.04002875089645386,1,-4.909212293568999e-05,1,-6.52860981062986e-05,1,0.0001319516159128398,1
1772122741032541440,0.001059891772456467,1,-0.0009909257059916854,1,0.03941678628325462,1,0.0001646148593863472,1,0.0001472197327530012,1,-5.408683500718325e-05,1
1772122741042097664,0.002385429805144668,1,0.0004525563563220203,1,0.04791519045829773,1,7.839367026463151e-05,1,-0.0003254714247304946,1,-0.000120993958262261,1
1772122741051558656,0.00123849930241704,1,0.0004004228394478559,1,0.04485541954636574,1,-7.333185931202024e-05,1,-0.0003415134269744158,1,-0.0001475149183534086,1
1772122741060927744,-0.0006810674676671624,1,0.001196290599182248,1,0.04436388984322548,1,0.0001391180994687602,1,-0.0002881301334127784,1,-0.0001451570278732106,1
1772122741070359552,-0.0001034325105138123,1,-0.001087973825633526,1,0.03746269643306732,1,0.0001583155826665461,1,-2.377643249928951e-05,1,-0.0002890738542191684,1
1772122741081093888,-0.001365659642033279,1,-0.001170039642602205,1,0.04231587424874306,1,-5.147372212377377e-05,1,-0.000197348213987425,1,-0.0001461871579522267,1
1772122741091721472,-0.001368470839224756,1,-0.001879214192740619,1,0.04004132747650146,1,0.0002504222793504596,1,-0.0001440647756680846,1,2.892498741857708e-06,1
1772122741102245376,0.0001864908263087273,1,0.00234303530305624,1,0.03968647867441177,1,9.395754022989422e-05,1,8.75826008268632e-05,1,0.0001373513368889689,1
1772122741112666624,-0.0005730749107897282,1,-3.409966302569956e-05,1,0.03992997854948044,1,0.0003072856343351305,1,2.69460906565655e-05,1,-5.088615216664039e-05,1
1772122741122984960,-0.0002202432224294171,1,-0.001819343888200819,1,0.0403851605951786,1,0.0001623814314370975,1,-2.929551192210056e-05,1,-6.783356366213411e-05,1
1772122741133199360,0.001797524746507406,1,-0.001094858045689762,1,0.04076580703258514,1,-0.0001185806322610006,1,-0.0002865403075702488,1,4.479816197999753e-06,1
1772122741143316480,0.002974690403789282,1,-0.0007557070930488408,1,0.03940082341432571,1,0.0001907241094158962,1,-0.0003217727353330702,1,-9.15070268092677e-06,1
1772122741153331968,0.001712579862214625,1,0.000905859109479934,1,0.04315620288252831,1,0.0002414261689409614,1,0.0001291067164856941,1,4.870315024163574e-05,1
1772122741163247872,-0.0001772989344317466,1,2.645773929543793e-05,1,0.04109609499573708,1,0.0001963408285519108,1,-9.868168854154646e-05,1,-6.741701326973271e-06,1
1772122741173067008,-0.0004485140379983932,1,0.001506299013271928,1,0.04227558150887489,1,-1.859724943642505e-05,1,0.0002589722280390561,1,6.779412797186524e-05,1
1772122741182789120,0.001036193687468767,1,0.0004436098970472813,1,0.0437464639544487,1,0.0001192395138787106,1,0.0001882464130176231,1,-0.0002420232776785269,1
1772122741192414464,0.001062566530890763,1,0.002192586194723845,1,0.04299779608845711,1,0.0003679804503917694,1,3.076985740335658e-05,1,-0.0001802842452889308,1
1772122741201949952,0.004028989933431149,1,0.003389900550246239,1,0.04436013475060463,1,0.0005303073558025062,1,-9.225304893334396e-06,1,-2.474796565365978e-05,1
1772122741211394304,0.003382336581125855,1,0.004138760268688202,1,0.04244685545563698,1,0.0001210756308864802,1,-0.0003053072432521731,1,5.944802251178771e-05,1
1772122741220744704,0.0006085492204874754,1,0.003553723683580756,1,0.03681566566228867,1,7.950478175189346e-05,1,-0.0003138853935524821,1,-2.278117062814999e-05,1
1772122741230464256,-0.0005559841520152986,1,0.002557707019150257,1,0.04257193580269814,1,0.0001600090763531625,1,-0.0001432683056918904,1,-7.819700113032013e-05,1
1772122741241160704,-0.000974522321484983,1,0.002984592691063881,1,0.04333139955997467,1,1.063611853169277e-05,1,2.30988171097124e-05,1,5.999607674311846e-05,1
1772122741251751936,0.000109420157968998,1,0.003179533174261451,1,0.04513686522841454,1,-0.0001732418459141627,1,4.1425388189964e-05,1,5.162867455510423e-05,1
1772122741262237696,-0.0004204004362691194,1,0.002818508772179484,1,0.03956805542111397,1,-0.00038877222687006,1,-0.0001959359215106815,1,4.035413439851254e-06,1
1772122741272619776,0.0007981151575222611,1,0.001726170419715345,1,0.04377514868974686,1,-0.0001473486918257549,1,2.985252649523318e-06,1,0.0001037606998579577,1
1772122741282903296,6.627128459513187e-05,1,0.0002960579586215317,1,0.0443863533437252,1,-3.380488487891853e-05,1,0.0002320492785656825,1,0.0002067426103167236,1
1772122741293084416,-3.33030620822683e-05,1,0.0003820867568720132,1,0.03932526335120201,1,0.0003878188435919583,1,2.561386827437673e-05,1,-4.561273453873582e-05,1
1772122741303163392,0.001135585713200271,1,0.001167299458757043,1,0.03490894660353661,1,0.0003833966329693794,1,2.429823325655889e-05,1,8.652227552374825e-05,1
1772122741313144832,0.0003750026226043701,1,0.001980559667572379,1,0.03463049232959747,1,0.0004347015055827796,1,3.107818656644667e-06,1,0.0003113001293968409,1
1772122741323027200,0.001150384079664946,1,0.001332951709628105,1,0.03405743837356567,1,0.0006546977674588561,1,6.002721420372836e-05,1,0.000275785627309233,1
1772122741332811008,0.002144821919500828,1,0.0009840470738708973,1,0.03707560896873474,1,0.0006997516029514372,1,0.0001384293136652559,1,0.0002431405009701848,1
1772122741342499840,0.001845818944275379,1,0.001907043857499957,1,0.03867525607347488,1,0.000499512127134949,1,2.305918678757735e-05,1,-5.142619920661673e-05,1
1772122741352092160,0.00196063588373363,1,0.0008423335966654122,1,0.04063721373677254,1,0.000458395981695503,1,-5.627788777928799e-05,1,-1.08293243101798e-05,1
1772122741361588992,0.002737223170697689,1,0.001143343630246818,1,0.04607583582401276,1,0.0005195328267291188,1,-0.0001160365354735404,1,-5.548389162868261e-05,1
1772122741370991360,0.003075384069234133,1,-0.0001715811085887253,1,0.04636599868535995,1,0.0007382379844784737,1,-0.0001364197669317946,1,8.72788077685982e-05,1
1772122741380302080,0.006006195209920406,1,-0.0012997065205127,1,0.04728199914097786,1,0.0005275991861708462,1,4.314801481086761e-05,1,3.695447230711579e-05,1
1772122741390608896,0.002150667831301689,1,-0.0009470499353483319,1,0.05225799605250359,1,0.0003367039025761187,1,-0.00077362748561427,1,7.045330130495131e-05,1
1772122741401279488,-0.001020634896121919,1,-0.001855390379205346,1,0.04410308972001076,1,7.312322850339115e-05,1,-0.0003950650279875845,1,6.677659985143691e-05,1
1772122741411843840,-0.001126221381127834,1,0.002041581319645047,1,0.04651070013642311,1,-4.466867540031672e-05,1,-0.0005294267903082073,1,-5.653839616570622e-05,1
1772122741422304512,-0.0001105277115129866,1,0.0009646789403632283,1,0.04229851439595222,1,8.958174294093624e-05,1,-0.0004795334243681282,1,-7.1055801527109e-06,1
1772122741432664064,0.005361271090805531,1,0.001426243572495878,1,0.04571045562624931,1,0.0001085215189959854,1,-0.0002484854194335639,1,-0.0001061494695022702,1
1772122741442921984,0.00527163315564394,1,0.002035110490396619,1,0.04001041501760483,1,-4.527210694504902e-05,1,-4.083313979208469e-05,1,1.729681571305264e-06,1
1772122741453077504,0.007525180000811815,1,-0.0002663131162989885,1,0.04178375005722046,1,-0.0002822592796292156,1,-0.0003711728204507381,1,-0.0001702707522781566,1
1772122741463132416,0.0004093850729987025,1,0.002258554566651583,1,0.04331458359956741,1,2.581601074780338e-05,1,2.982215846714098e-05,1,7.540802471339703e-07,1
1772122741473088768,0.001021452946588397,1,0.00262401276268065,1,0.03837476298213005,1,0.0003149874683003873,1,-1.062770752469078e-05,1,5.95995516050607e-05,1
1772122741482946048,-0.001483528059907258,1,0.0005358618800528347,1,0.04193489998579025,1,-2.488838799763471e-05,1,4.032131619169377e-05,1,0.0001617325469851494,1
1772122741492706048,-0.003591470187529922,1,0.002142700366675854,1,0.04179174825549126,1,0.0002501424460206181,1,3.352119529154152e-05,1,-1.748839531501289e-05,1
1772122741502370560,0.001272023539058864,1,0.001325130229815841,1,0.04067670181393623,1,-0.0003425873583182693,1,-0.00022296272800304,1,0.0002793722087517381,1
1772122741511938816,-0.002022675238549709,1,0.001738200546242297,1,0.04190331324934959,1,-0.0003863127203658223,1,-0.000245737232035026,1,7.761409506201744e-05,1
1772122741521412352,0.004544961266219616,1,-0.0003802175633609295,1,0.03792494907975197,1,-9.901565499603748e-05,1,8.164779865182936e-05,1,-4.985828854842111e-05,1
1772122741530793472,0.001150547177530825,1,0.00178922526538372,1,0.04113154113292694,1,-0.0003853557573165745,1,-0.0001207348468597047,1,-0.0001212437491631135,1
1772122741540081408,0.002663653809577227,1,-0.002293230034410954,1,0.03649556636810303,1,-7.276106043718755e-05,1,-0.0004628435417544097,1,-0.000264566537225619,1
1772122741550841344,0.0003900215670000762,1,0.003051204839721322,1,0.04149068892002106,1,2.598007449705619e-05,1,-0.000229807454161346,1,-0.0003190399147570133,1
1772122741561497088,-0.0004455948364920914,1,0.001613578526303172,1,0.04095234721899033,1,-9.849552952800877e-06,1,-9.328115993412212e-06,1,-7.886616367613897e-05,1
1772122741572046336,-0.001303717377595603,1,0.002476638415828347,1,0.03968923538923264,1,-9.246407717000693e-05,1,2.146539918612689e-05,1,5.881785546080209e-05,1
1772122741582492416,0.003582333447411656,1,0.001274927286431193,1,0.04095885157585144,1,-0.0001187182861031033,1,1.814338975236751e-05,1,-1.250551213161089e-05,1
1772122741592836096,0.0003383416915312409,1,0.001292253495194018,1,0.0416933074593544,1,-0.0001680217683315277,1,-0.0001488541602157056,1,4.886146780336276e-05,1
1772122741603078656,0.008081147447228432,1,0.0006381983403116465,1,0.04195784404873848,1,-0.0002120642602676526,1,-4.22392477048561e-05,1,4.889487172476947e-05,1
1772122741613218816,0.003592174500226974,1,-0.0002440968528389931,1,0.04094631224870682,1,-0.0002455315261613578,1,-0.0001321059826295823,1,8.944589353632182e-05,1
1772122741623260928,0.005415112245827913,1,-0.0007447898387908936,1,0.04120874032378197,1,-8.054026693571359e-05,1,7.390658720396459e-05,1,5.837512799189426e-05,1
1772122741633203200,0.003977666608989239,1,0.0001583128469064832,1,0.04219386354088783,1,-0.000172148531419225,1,0.0002084600855596364,1,-0.0001215121810673736,1
1772122741643046656,0.001078431727364659,1,0.0006045235786587,1,0.041197270154953,1,-7.014215952949598e-05,1,6.632250733673573e-05,1,-0.0003116875304840505,1
1772122741652792576,0.001671786303631961,1,-0.001874663750641048,1,0.04085890203714371,1,-0.000284479174297303,1,0.0003466546768322587,1,-1.734449142531957e-05,1
1772122741662443520,0.0008535681990906596,1,-0.002612993121147156,1,0.04192283004522324,1,-0.000266524002654478,1,-0.0001600163523107767,1,-6.142594793345779e-05,1
1772122741671998208,0.002206614939495921,1,-0.002053245203569531,1,0.03710510581731796,1,-0.0002568212803453207,1,-0.0001381276961183175,1,1.343363692285493e-06,1
1772122741681459968,0.003621997544541955,1,0.0002565752947703004,1,0.03965961188077927,1,-0.0002558910055086017,1,-0.0002586384944152087,1,1.102471287595108e-06,1
1772122741690828288,0.003466348862275481,1,0.0002771748695522547,1,0.04066779837012291,1,-0.0002617690770421177,1,0.0001800043100956827,1,-9.018102718982846e-05,1
1772122741700258560,0.003375703003257513,1,-0.0002499035326763988,1,0.0408833809196949,1,-0.0003068280348088592,1,0.0001504885876784101,1,-0.0002654822601471096,1
1772122741710986240,0.001880081603303552,1,-0.0003998519096057862,1,0.04020002856850624,1,-0.0004148671287111938,1,0.0002962463477160782,1,0.0001411678967997432,1
1772122741721609216,0.00145045924000442,1,-0.001610580598935485,1,0.04313024878501892,1,3.760783874895424e-05,1,6.104760541347787e-05,1,0.0001240804704139009,1
1772122741732127232,0.0006480170413851738,1,-0.003128449199721217,1,0.04329612106084824,1,-0.0001149477539001964,1,0.0002861671382561326,1,2.010918797168415e-05,1
1772122741742543104,-0.0007275172974914312,1,-0.001607291400432587,1,0.04331854730844498,1,0.000132483066408895,1,0.0002207786019425839,1,0.00036413170164451,1
1772122741752854784,-0.0007910933345556259,1,-0.003503295127302408,1,0.04482719302177429,1,0.0001169035313068889,1,-0.0001669014454819262,1,0.0003458602004684508,1
1772122741763066112,0.0007029675180092454,1,-0.0022010812535882,1,0.0426359735429287,1,0.0001199996040668339,1,-0.0002575899416115135,1,0.0005672734114341438,1
1772122741773175808,8.137011900544167e-05,1,-0.002930082846432924,1,0.03947173058986664,1,-0.0002149055653717369,1,-0.0001500784564996138,1,0.00027059021522291,1
1772122741783185408,0.003084844211116433,1,-0.0008960459963418543,1,0.04147205129265785,1,-0.0001998531515710056,1,-7.291157089639455e-05,1,-1.74561846506549e-05,1
1772122741793096448,0.002886164467781782,1,-0.002205476397648454,1,0.04181485250592232,1,-0.000125350765301846,1,9.858128760242835e-05,1,0.0002872011682484299,1
1772122741802910208,0.001932280836626887,1,-0.0005961169954389334,1,0.04345734417438507,1,0.0001382102636853233,1,0.0002031581971095875,1,0.0002979917917400599,1
1772122741812626176,0.0005482209380716085,1,-0.0002226182841695845,1,0.04051372781395912,1,4.912468284601346e-06,1,-0.0001309289364144206,1,0.0003251525340601802,1
1772122741822247168,-0.000712971726898104,1,-0.001416375278495252,1,0.04028831794857979,1,-8.892500773072243e-06,1,-0.0003837531548924744,1,0.0001785462809493765,1
1772122741831773184,-0.0008043471025303006,1,0.0004742609453387558,1,0.04022262245416641,1,1.546387284179218e-05,1,-8.761400385992602e-05,1,0.0001188116148114204,1
1772122741841209856,0.0004090500005986542,1,-0.0002592760720290244,1,0.04179991781711578,1,0.0001392189733451232,1,-9.463913011131808e-05,1,-1.892582440632395e-05,1
1772122741850555136,0.0007870090776123106,1,-0.000651657406706363,1,0.03937871009111404,1,6.040875450707972e-05,1,-0.0004471561987884343,1,-6.150804983917624e-05,1
1772122741860425472,0.001884347177110612,1,-0.0008511809865012765,1,0.04087624326348305,1,3.85455641662702e-05,1,0.0001910705614136532,1,0.0001556536299176514,1
1772122741871121920,0.002218849258497357,1,-0.002302955836057663,1,0.04166101664304733,1,-1.954614708665758e-05,1,0.0003045991179533303,1,-7.746047049295157e-05,1
1772122741881713664,0.004017488565295935,1,-0.0007118128705769777,1,0.04042443260550499,1,0.0003956109867431223,1,-0.0002208835066994652,1,-0.0002141951554222032,1
1772122741892199936,0.003145733382552862,1,-0.0004818596644327044,1,0.0391683429479599,1,0.0004433339927345514,1,-9.875478281173855e-05,1,-0.0001085234034690075,1
1772122741902583808,0.002540553454309702,1,0.001209130976349115,1,0.04106850922107697,1,0.0005616153939627111,1,-0.0003684365074150264,1,-0.0001897590700536966,1
1772122741912867328,0.0009083505719900131,1,0.0003665558469947428,1,0.04105678200721741,1,0.0005682308692485094,1,-0.0001833911228459328,1,-7.546151027781889e-05,1
1772122741923048448,0.001031252089887857,1,0.002346994820982218,1,0.04404363036155701,1,0.000161310366820544,1,-0.0001686838222667575,1,0.000162633485160768,1
1772122741933128704,0.00100542965810746,1,0.0003953881387133151,1,0.04313722252845764,1,0.0002267829258926213,1,0.0002936056698672473,1,0.0001771211391314864,1
1772122741943110656,0.001040408969856799,1,-0.0003534706775099039,1,0.04144064709544182,1,0.0001390098041156307,1,0.0003856914408970624,1,9.084712655749172e-05,1
1772122741952993280,0.001384957111440599,1,-0.001592381973750889,1,0.04127800837159157,1,-0.0001377709850203246,1,0.000265195791143924,1,0.0001226201566169038,1
1772122741962777600,-0.0001418510219082236,1,-0.001803949126042426,1,0.03911161795258522,1,-2.331813811906613e-05,1,5.127193435328081e-05,1,-0.0002180473820772022,1
1772122741972466944,0.0006620465428568423,1,0.0007329792133532465,1,0.03911973163485527,1,-0.0003603667137213051,1,4.608319432009012e-05,1,-5.7864366681315e-05,1
1772122741982059776,0.0001994642661884427,1,-0.0003751052427105606,1,0.04082663357257843,1,-5.321878415998071e-05,1,0.000183973548701033,1,-0.0001865180383902043,1
1772122741991557632,-0.0001499234931543469,1,0.001387369353324175,1,0.04392485320568085,1,-0.0001393105485476553,1,0.0001918425841722637,1,-0.0002065395092358813,1
1772122742000963072,0.00158018572255969,1,-0.000602633343078196,1,0.04818110540509224,1,-0.0001295581459999084,1,5.693756975233555e-06,1,-0.0001010874111671001,1
1772122742010275072,-0.0008129219640977681,1,0.0001451304997317493,1,0.03147675469517708,1,0.0001194764045067132,1,-0.0002073125506285578,1,-0.0001267919724341482,1
1772122742020582144,3.328875754959881e-05,1,-0.0005419653607532382,1,0.04606681689620018,1,-0.0001793555857148021,1,0.000210041762329638,1,0.0001391575206071138,1
1772122742031252992,0.002914698095992208,1,0.001198541838675737,1,0.03724625334143639,1,-0.0002317458565812558,1,7.18606315786019e-05,1,0.0001502225204603747,1
1772122742041817856,0.003436857368797064,1,-0.001024503260850906,1,0.04195941984653473,1,0.0001486183755332604,1,-6.482224853243679e-05,1,0.0002498709945939481,1
1772122742052280320,0.003243953222408891,1,-0.0006294610211625695,1,0.04144302755594254,1,7.855876174289733e-05,1,2.183862306992523e-05,1,-7.146901043597609e-05,1
1772122742062638592,0.001507535227574408,1,0.0008469378808513284,1,0.04068362712860107,1,-0.0002328084083274007,1,-9.338741801911965e-05,1,2.18651257455349e-06,1
1772122742072896512,0.0008576847612857819,1,0.0009673224412836134,1,0.03424715995788574,1,-5.617456190520898e-05,1,-8.350690040970221e-05,1,-0.000156873109517619,1
1772122742083054592,0.0008675595745444298,1,0.002525429474189878,1,0.03487079963088036,1,0.0002587835479062051,1,-0.0004215312656015158,1,-4.601825276040472e-05,1
1772122742093111296,-0.001433176686987281,1,-0.002152703236788511,1,0.05463486537337303,1,0.0001164173008874059,1,-0.000270185642875731,1,4.181129770586267e-05,1
1772122742103068160,-0.002883655717596412,1,0.002927026944234967,1,0.04267212375998497,1,-0.0004777946160174906,1,-0.000159351053298451,1,9.871965448837727e-05,1
1772122742112928256,-0.0005055489600636065,1,0.001148217357695103,1,0.0405360721051693,1,-0.0005229219095781446,1,0.0001474968157708645,1,1.762358806445263e-05,1
1772122742122690304,-0.00214266637340188,1,-0.1767274886369705,1,-0.1084260940551758,1,-0.02644978277385235,1,0.0002240253816125914,1,-1.563046680530533e-05,1
1772122742132357120,0.003032160457223654,1,0.05514882877469063,1,0.08608665317296982,1,-0.04541907832026482,1,0.0009074828121811152,1,-0.0002402524114586413,1
1772122742141928448,0.003604966681450605,1,0.05301465466618538,1,0.07971987873315811,1,-0.02622615918517113,1,0.0006520318565890193,1,-9.656287875259295e-05,1
1772122742151404288,0.003431757446378469,1,0.03947730362415314,1,0.07486151158809662,1,-0.008250940591096878,1,-5.01283720950596e-05,1,-3.284525519120507e-05,1
1772122742160787200,0.0004125548875890672,1,-0.001749509014189243,1,0.05155801028013229,1,-0.003233891678974032,1,-0.0001163551642093807,1,1.600869290996343e-05,1
1772122742170077952,-0.001033784938044846,1,0.004815292079001665,1,0.04575002938508987,1,-0.00375388516113162,1,-5.083977885078639e-05,1,0.0002030128089245409,1
1772122742180837888,0.0009903913596644998,1,0.002113593276590109,1,0.04631673544645309,1,-0.0009523209882900119,1,-0.0003064214834012091,1,0.0002295153099112213,1
1772122742191492352,0.001945818541571498,1,-0.004019405692815781,1,0.03975742310285568,1,-9.60753604886122e-05,1,-0.0001402182679157704,1,-0.0001248280459549278,1
1772122742202042112,0.002122558886185288,1,-0.002232272177934647,1,0.04357190057635307,1,-0.0006790774059481919,1,-5.798675192636438e-05,1,-0.0002108843473251909,1
1772122742212486912,0.001081302529200912,1,-0.000659757643006742,1,0.03931859135627747,1,-0.0007500327192246914,1,0.0002484119904693216,1,-0.0002688753302209079,1
1772122742222829824,0.0001522218371974304,1,0.004272076766937971,1,0.04986102133989334,1,9.982621850213036e-05,1,0.0002014875644817948,1,-7.994713087100536e-05,1
1772122742233069824,-0.0009591077687218785,1,-9.016261901706457e-05,1,0.04491375386714935,1,0.001208849018439651,1,0.0005034393980167806,1,-0.0001676760293776169,1
1772122742243207680,-0.002356940880417824,1,-0.006600948516279459,1,0.04036129266023636,1,0.0002268050593556836,1,0.0005166112678125501,1,-0.0001359057350782678,1
1772122742253248000,-0.001052040723152459,1,-0.001236641313880682,1,0.04163799434900284,1,-0.0007967448327690363,1,0.0001048507983796299,1,0.0001218636898556724,1
1772122742263187968,0.0001514709438197315,1,0.005687577649950981,1,0.04240797460079193,1,-0.0005473914789035916,1,-4.582798283081502e-05,1,-6.71728776069358e-05,1
1772122742273030144,0.00151934043969959,1,0.001189620234072208,1,0.03922401741147041,1,-8.796188922133297e-06,1,-0.0001196496523334645,1,0.0001463641383452341,1
1772122742282775808,0.004223865922540426,1,0.001932757440954447,1,0.04120178520679474,1,-0.0003914701228495687,1,0.0003505831700749695,1,-0.0001035450477502309,1
1772122742292424448,0.009289600886404514,1,-0.007121536880731583,1,0.03772830218076706,1,-0.001097204745747149,1,0.0001507633569417521,1,-0.0001143528352258727,1
1772122742301977344,0.0158088244497776,1,-0.02468201145529747,1,0.01600476540625095,1,-0.006097216159105301,1,0.0002138500422006473,1,0.0001075614054570906,1
1772122742311444992,0.007555493619292974,1,-0.03205878660082817,1,0.0008393836906179786,1,-0.01771112158894539,1,0.0006169871194288135,1,0.0002190890372730792,1
1772122742320818432,-0.01223663054406643,1,-0.07852258533239365,1,-0.02181602269411087,1,-0.03882934153079987,1,0.001134436344727874,1,0.0001468795089749619,1
1772122742330253568,-0.03047710470855236,1,-0.078985795378685,1,-0.01496500056236982,1,-0.06650365144014359,1,0.001783045707270503,1,8.862609684001654e-05,1
1772122742340981760,-0.02246884815394878,1,-0.07648938894271851,1,-0.0207717027515173,1,-0.09631802886724472,1,0.002602373249828815,1,0.0001391116093145683,1
1772122742351603456,-0.001162655418738723,1,-0.09049373865127563,1,-0.03720241785049438,1,-0.127308264374733,1,0.003474047407507896,1,7.058835035422817e-05,1
1772122742362121472,0.01230167411267757,1,-0.08757852017879486,1,-0.03150517866015434,1,-0.1619685292243958,1,0.004485997371375561,1,0.000493179599288851,1
1772122742372537088,0.006540045607835054,1,-0.1216674298048019,1,-0.0586036816239357,1,-0.2010630667209625,1,0.005710938014090061,1,0.0003622209478635341,1
1772122742382848768,0.007482012733817101,1,-0.1107820719480515,1,-0.0439365841448307,1,-0.2436621338129044,1,0.007024199236184359,1,0.0005326350219547749,1
1772122742393058048,0.02059375308454037,1,-0.0898137092590332,1,-0.02930673956871033,1,-0.2810158133506775,1,0.00784430094063282,1,0.0007205014117062092,1
1772122742403167488,0.01015800423920155,1,-0.1024924889206886,1,-0.04679070040583611,1,-0.3224524557590485,1,0.008685661479830742,1,0.001289930194616318,1
1772122742413177344,-0.02055017277598381,1,-0.0849095955491066,1,-0.07255953550338745,1,-0.3651725947856903,1,0.008778885938227177,1,0.004161858931183815,1
1772122742423087616,-0.1349645853042603,1,-0.08143262565135956,1,-0.1688764989376068,1,-0.3927843570709229,1,0.002486165147274733,1,0.03289250656962395,1
1772122742432901376,-0.1768008768558502,1,-0.2256229966878891,1,-0.3035505414009094,1,-0.486596554517746,1,0.007379574701189995,1,0.0908411368727684,1
1772122742442620416,-0.1693211495876312,1,-0.2552004754543304,1,-0.3090047538280487,1,-0.6056845784187317,1,0.01077402196824551,1,0.1599800586700439,1
