FILE_INFO
ListSeparator=,
DecimalSeparator=.

SESSION_INFO
TimeZone,UTC
TimeZoneOffset,0
DateTimeFormat,MM/DD/YY h:mm:ss.nnnnnnnnn
StartTime,02/25/26 21:57:41.444092672
TimeFormat,Standard

DEVICE_INFO
Address,*

CHANNEL_INFO
Channel,Type,SampleRate,Equation,Coefficients,Unit,UnitSymbol,WhereApplied,WhenApplied
inertial-6286.188861:estLinearAccelX,Timeseries,100Hz,,,,,,
inertial-6286.188861:estLinearAccelX:valid,ValidFlag,100Hz,,,,,,
inertial-6286.188861:estLinearAccelY,Timeseries,100Hz,,,,,,
inertial-6286.188861:estLinearAccelY:valid,ValidFlag,100Hz,,,,,,
inertial-6286.188861:estLinearAccelZ,Timeseries,100Hz,,,,,,
inertial-6286.188861:estLinearAccelZ:valid,ValidFlag,100Hz,,,,,,
inertial-6286.188861:estAngularRateX,Timeseries,100Hz,,,,,,
inertial-6286.188861:estAngularRateX:valid,ValidFlag,100Hz,,,,,,
inertial-6286.188861:estAngularRateY,Timeseries,100Hz,,,,,,
inertial-6286.188861:estAngularRateY:valid,ValidFlag,100Hz,,,,,,
inertial-6286.188861:estAngularRateZ,Timeseries,100Hz,,,,,,
inertial-6286.188861:estAngularRateZ:valid,ValidFlag,100Hz,,,,,,

DATA_START
Time,inertial-6286.188861:estLinearAccelX,inertial-6286.188861:estLinearAccelX:valid,inertial-6286.188861:estLinearAccelY,inertial-6286.188861:estLinearAccelY:valid,inertial-6286.188861:estLinearAccelZ,inertial-6286.188861:estLinearAccelZ:valid,inertial-6286.188861:estAngularRateX,inertial-6286.188861:estAngularRateX:valid,inertial-6286.188861:estAngularRateY,inertial-6286.188861:estAngularRateY:valid,inertial-6286.188861:estAngularRateZ,inertial-6286.188861:estAngularRateZ:valid
02/25/26 21:57:41.444092672,0.002411666559055448,1,0.01054738461971283,1,0.03488311916589737,1,0.0043801199644804,1,-0.0005779010243713856,1,-7.185868889791891e-05,1
02/25/26 21:57:41.453953024,0.002979668788611889,1,0.008922205306589603,1,0.03244577720761299,1,0.001097579253837466,1,-0.0002360107027925551,1,7.344325422309339e-05,1
02/25/26 21:57:41.463717632,0.004255783278495073,1,0.008981534279882908,1,0.03251056745648384,1,-0.002113405615091324,1,-0.0001327291829511523,1,4.624424036592245e-05,1
02/25/26 21:57:41.473385216,0.006104984320700169,1,0.008057725615799427,1,0.03016718477010727,1,-0.00596147496253252,1,0.0002839619992300868,1,5.913803761359304e-05,1
02/25/26 21:57:41.482956544,0.01025539729744196,1,0.008766833692789078,1,0.02932138368487358,1,-0.00967674795538187,1,0.0002365869149798527,1,-2.580751970526762e-05,1
02/25/26 21:57:41.492435200,0.01135064102709293,1,0.01018660888075829,1,0.02477282844483852,1,-0.01279145665466785,1,-0.0002144760801456869,1,2.48787891905522e-05,1
02/25/26 21:57:41.501819648,0.00905326846987009,1,0.01307372841984034,1,0.03260010108351707,1,-0.01531432196497917,1,-3.614666638895869e-06,1,0.0001696480321697891,1
02/25/26 21:57:41.511112192,0.007977498695254326,1,0.01507834251970053,1,0.03898947685956955,1,-0.01686120964586735,1,0.0003313105553388596,1,-6.919592851772904e-05,1
02/25/26 21:57:41.521716992,0.006360402330756187,1,0.01806656271219254,1,0.04438358917832375,1,-0.01730759814381599,1,0.0001937174965860322,1,0.0001311794767389074,1
02/25/26 21:57:41.532373248,0.007111110724508762,1,0.02192292176187038,1,0.0390147976577282,1,-0.01717180758714676,1,0.0004715548129752278,1,0.0001541393576189876,1
02/25/26 21:57:41.542924544,0.008843072690069675,1,0.02268167771399021,1,0.03121674247086048,1,-0.01653555035591125,1,0.0004350660310592502,1,0.0001040213828673586,1
02/25/26 21:57:41.553373440,0.009172703139483929,1,0.02315828390419483,1,0.03629359230399132,1,-0.01515504624694586,1,0.0005940785631537437,1,-2.161187512683682e-05,1
02/25/26 21:57:41.563718400,0.010153085924685,1,0.02198420278728008,1,0.05168847739696503,1,-0.01379701495170593,1,0.0003597057948354632,1,6.058596773073077e-05,1
02/25/26 21:57:41.573965824,0.007863490842282772,1,0.02205239981412888,1,0.05025454983115196,1,-0.01205103378742933,1,-5.462469562189654e-05,1,2.551506622694433e-05,1
02/25/26 21:57:41.584113664,0.006758828647434711,1,0.02300226874649525,1,0.04718200489878654,1,-0.01013894937932491,1,-0.0001830328401410952,1,-0.0001066034674295224,1
02/25/26 21:57:41.594161664,0.007251118309795856,1,0.0233030691742897,1,0.04129477962851524,1,-0.008443853817880154,1,0.000244599359575659,1,2.232934821222443e-05,1
02/25/26 21:57:41.604112128,0.005915609188377857,1,0.0224947277456522,1,0.04882735759019852,1,-0.00729004293680191,1,0.0002242512273369357,1,2.003737063205335e-05,1
02/25/26 21:57:41.613964544,0.007742952555418015,1,0.02331872656941414,1,0.04214688390493393,1,-0.005576641298830509,1,0.0003880543226841837,1,7.87538374424912e-05,1
02/25/26 21:57:41.623721472,0.007489679846912622,1,0.02347400225698948,1,0.04016709700226784,1,-0.003452320583164692,1,3.015565016539767e-05,1,0.0001234859082615003,1
02/25/26 21:57:41.633382912,0.008535394445061684,1,0.02521306462585926,1,0.04057005047798157,1,-0.001143226400017738,1,-0.0001660890120547265,1,0.0002235281572211534,1
02/25/26 21:57:41.642951680,0.01033078972250223,1,0.02525314316153526,1,0.04805560037493706,1,0.00138718681409955,1,-0.0005452217301353812,1,-5.143843736732379e-05,1
02/25/26 21:57:41.652426240,0.01058293413370848,1,0.02644089423120022,1,0.05237878113985062,1,0.004210774321109056,1,-0.0004660863196477294,1,-3.636195833678357e-05,1
02/25/26 21:57:41.661814784,0.008838309906423092,1,0.02654850296676159,1,0.04939688369631767,1,0.007364935707300901,1,-0.0004730273212771863,1,0.0002247272641398013,1
02/25/26 21:57:41.671265024,0.007287543267011642,1,0.02472637966275215,1,0.04689675197005272,1,0.009788984432816505,1,-0.0004662393475882709,1,0.0003952546103391796,1
02/25/26 21:57:41.681998336,0.008301770314574242,1,0.02069946564733982,1,0.04595392569899559,1,0.01187051460146904,1,-0.0003467831120360643,1,0.0003399795677978545,1
02/25/26 21:57:41.692627712,0.009512422606348991,1,0.02097189426422119,1,0.04210748896002769,1,0.01263505592942238,1,-0.0004170644097030163,1,8.414593321504071e-05,1
02/25/26 21:57:41.703154944,0.008939101360738277,1,0.02079713344573975,1,0.04179032891988754,1,0.01236574165523052,1,-0.0001021871503326111,1,-4.530013939074706e-06,1
02/25/26 21:57:41.713581568,0.007672341074794531,1,0.02007641084492207,1,0.0427982397377491,1,0.01203337591141462,1,-0.0001721689623082057,1,-0.0001575986680109054,1
02/25/26 21:57:41.723906048,0.009430740028619766,1,0.02087653800845146,1,0.03791273385286331,1,0.01201326865702868,1,-5.261807382339612e-05,1,-0.0002020565734710544,1
02/25/26 21:57:41.734129664,0.009926257655024529,1,0.02342514507472515,1,0.03932024911046028,1,0.01204214058816433,1,-0.000509873847477138,1,5.273253918858245e-06,1
02/25/26 21:57:41.744253952,0.00731242960318923,1,0.02637394331395626,1,0.03722537308931351,1,0.01279417518526316,1,-0.0001381491456413642,1,-4.356544195616152e-06,1
02/25/26 21:57:41.754280448,0.005789718125015497,1,0.02703503891825676,1,0.04128123447299004,1,0.01407087221741676,1,-0.0003173428121954203,1,-7.686486060265452e-05,1
02/25/26 21:57:41.764208896,0.005602415651082993,1,0.02733110077679157,1,0.04657480865716934,1,0.01583096012473106,1,-0.0005321224452927709,1,-0.0001015311645460315,1
02/25/26 21:57:41.774042624,0.006456177681684494,1,0.02617897279560566,1,0.04635391011834145,1,0.01713104546070099,1,-0.0007511493749916553,1,-0.0001563801779411733,1
02/25/26 21:57:41.783779584,0.00696669751778245,1,0.0250747911632061,1,0.05016157403588295,1,0.01803319714963436,1,-0.0006311938632279634,1,-0.0001879207411548123,1
02/25/26 21:57:41.793431808,0.006396861281245947,1,0.02238467708230019,1,0.0435459092259407,1,0.0184617917984724,1,-0.0006820163689553738,1,-0.0002284734218847007,1
02/25/26 21:57:41.802995200,0.008000963367521763,1,0.02021711692214012,1,0.03784015029668808,1,0.01830295659601688,1,-0.0005035520880483091,1,8.804019307717681e-05,1
02/25/26 21:57:41.812465920,0.01041446626186371,1,0.01970689557492733,1,0.035585667937994,1,0.01765723712742329,1,-0.000674103619530797,1,-6.554386345669627e-05,1
02/25/26 21:57:41.821843200,0.010021579451859,1,0.01569325290620327,1,0.03567139431834221,1,0.01639659143984318,1,-0.0006709184963256121,1,6.222155207069591e-05,1
02/25/26 21:57:41.831583232,0.007744806818664074,1,0.01544752530753613,1,0.03506365790963173,1,0.01559908874332905,1,-0.0008330938871949911,1,-0.0002908507885877043,1
02/25/26 21:57:41.842283776,0.004641131963580847,1,0.01833358220756054,1,0.03857235237956047,1,0.01460357569158077,1,-0.0005909364554099739,1,-0.0001934893662109971,1
02/25/26 21:57:41.852879872,0.004236971028149128,1,0.02066018432378769,1,0.03743264451622963,1,0.01418452523648739,1,-0.0003876701521221548,1,4.649153925129212e-05,1
02/25/26 21:57:41.863372800,0.003542827907949686,1,0.02079225890338421,1,0.03851776197552681,1,0.01373684220016003,1,-0.000462550699012354,1,0.0002854444610420614,1
02/25/26 21:57:41.873763328,0.007337099872529507,1,0.01800742000341415,1,0.04069679975509644,1,0.01387421507388353,1,-0.0007323138415813446,1,-4.758569775731303e-05,1
02/25/26 21:57:41.884054272,0.008930965326726437,1,0.01826253347098827,1,0.03840518370270729,1,0.01366725936532021,1,-0.0004098987265024334,1,-2.357225093874149e-05,1
02/25/26 21:57:41.894246656,0.01104862801730633,1,0.01736823655664921,1,0.04004038497805595,1,0.01330031268298626,1,-0.0002262144553242251,1,-4.28841267421376e-05,1
02/25/26 21:57:41.904343296,0.01064658351242542,1,0.01675195246934891,1,0.04294540360569954,1,0.01269153319299221,1,-0.0003882187011186033,1,0.0001382673508487642,1
02/25/26 21:57:41.914341120,0.01302049681544304,1,0.0149982301518321,1,0.03656727075576782,1,0.01170756481587887,1,-0.0005992513615638018,1,0.0001142174151027575,1
02/25/26 21:57:41.924240896,0.01189594343304634,1,0.01470629405230284,1,0.03979983180761337,1,0.01077814213931561,1,-0.0005109388730488718,1,0.0001792403636500239,1
02/25/26 21:57:41.934044928,0.00872266199439764,1,0.01322027109563351,1,0.04040840268135071,1,0.009518700651824474,1,-0.0002347188565181568,1,-0.0001900845236377791,1
02/25/26 21:57:41.943752704,0.004379909485578537,1,0.0128131965175271,1,0.04629283025860786,1,0.008442697115242481,1,-0.0004453985602594912,1,-0.0001937498891493306,1
02/25/26 21:57:41.953365760,0.00669275363907218,1,0.01113998144865036,1,0.04327606409788132,1,0.006873170845210552,1,-0.0005395063781179488,1,-9.822495485423133e-05,1
02/25/26 21:57:41.962886400,0.007852929644286633,1,0.01066141296178102,1,0.04156698659062386,1,0.00455846032127738,1,-0.0004602323460858315,1,-0.0001486327091697603,1
02/25/26 21:57:41.972314112,0.007375918328762054,1,0.01018426474183798,1,0.03553321212530136,1,0.0018192024435848,1,0.0001572731271153316,1,-9.657889313530177e-05,1
02/25/26 21:57:41.981650432,0.008386810310184956,1,0.009203707799315453,1,0.03121786378324032,1,-0.001331034931354225,1,0.0003632608568295836,1,5.673593113897368e-05,1
02/25/26 21:57:41.991810560,0.009617471136152744,1,0.006883647758513689,1,0.03174516558647156,1,-0.004811787977814674,1,0.0002275273582199588,1,4.393814742797986e-05,1
02/25/26 21:57:42.002479616,0.01069659925997257,1,0.008363972418010235,1,0.02370512112975121,1,-0.008598130196332932,1,0.0001602468400960788,1,-1.678753687883727e-05,1
02/25/26 21:57:42.013043712,0.009594840928912163,1,0.009481781162321568,1,0.02790344692766666,1,-0.01287595368921757,1,0.0001298856514040381,1,-0.0001531118468847126,1
02/25/26 21:57:42.023504384,0.006828089244663715,1,0.009763109497725964,1,0.02819533832371235,1,-0.01642681285738945,1,0.0004737246781587601,1,0.0002219831076217815,1
02/25/26 21:57:42.033863424,0.004956962540745735,1,0.008483397774398327,1,0.03231718391180038,1,-0.01972056925296783,1,0.0003929910599254072,1,-4.030569107271731e-05,1
02/25/26 21:57:42.044126208,0.005055837798863649,1,0.01684470102190971,1,0.03579049184918404,1,-0.02219366282224655,1,0.0003496879071462899,1,-0.0001421932392986491,1
02/25/26 21:57:42.054288128,0.004993720445781946,1,0.01807526871562004,1,0.02757298201322556,1,-0.02344730496406555,1,0.0007672619540244341,1,-0.0001926100085256621,1
02/25/26 21:57:42.064351488,0.004353384952992201,1,0.01869647018611431,1,0.04720663651823997,1,-0.02436119318008423,1,0.000452444888651371,1,-9.012053487822413e-05,1
02/25/26 21:57:42.074316544,0.008104946464300156,1,0.01915223151445389,1,0.05217714235186577,1,-0.02364694885909557,1,0.0006145267398096621,1,-0.0001911655126605183,1
02/25/26 21:57:42.084184832,0.008832079358398914,1,0.02087640017271042,1,0.05668264627456665,1,-0.0214360598474741,1,0.0005892497720196843,1,-0.000246894865995273,1
02/25/26 21:57:42.093955072,0.00950497854501009,1,0.02883915416896343,1,0.046959038823843,1,-0.01892819814383984,1,0.0003518671728670597,1,-0.0002511698403395712,1
02/25/26 21:57:42.103631872,0.006484170444309711,1,0.02850609086453915,1,0.04441363736987114,1,-0.01574617438018322,1,0.0002504701842553914,1,-0.000565114663913846,1
02/25/26 21:57:42.113213952,0.008604479022324085,1,0.02788860164582729,1,0.0492599830031395,1,-0.01225371193140745,1,0.0003231163427699357,1,-0.0002922826970461756,1
02/25/26 21:57:42.122702080,0.008123172447085381,1,0.02516275830566883,1,0.0460180751979351,1,-0.009238395839929581,1,-2.102133294101804e-05,1,-0.0002366607368458062,1
02/25/26 21:57:42.132097536,0.00912923738360405,1,0.02382363006472588,1,0.03844345733523369,1,-0.007153499871492386,1,-0.0003003150050062686,1,3.550692417775281e-05,1
02/25/26 21:57:42.141401088,0.006898147985339165,1,0.021022854372859,1,0.03953655809164047,1,-0.005343581549823284,1,-0.0001459877821616828,1,-2.376265547354706e-05,1
02/25/26 21:57:42.152003584,0.006550297141075134,1,0.02038283832371235,1,0.04684239998459816,1,-0.003753733122721314,1,7.433988503180444e-05,1,-9.768441668711603e-05,1
02/25/26 21:57:42.162657024,0.007799283135682344,1,0.02146514505147934,1,0.04792290180921555,1,-0.001875824062153697,1,0.0001399782340740785,1,8.914016507333145e-05,1
02/25/26 21:57:42.173206528,0.007348103448748589,1,0.0235296655446291,1,0.04763868078589439,1,0.0006454975809901953,1,2.692177076824009e-06,1,-0.0002309091651113704,1
02/25/26 21:57:42.183654144,0.01000030431896448,1,0.0244866069406271,1,0.04743943363428116,1,0.003209533635526896,1,0.0002338815102120861,1,-0.0002314798475708812,1
02/25/26 21:57:42.193999104,0.00897452887147665,1,0.02349045127630234,1,0.04770459234714508,1,0.006586499977856874,1,-0.0003165614616591483,1,-0.0001096914056688547,1
02/25/26 21:57:42.204244224,0.007335383910685778,1,0.0241219624876976,1,0.04687407612800598,1,0.008683567866683006,1,-0.0002887879963964224,1,-9.942604810930789e-05,1
02/25/26 21:57:42.214391040,0.004649051930755377,1,0.02107482589781284,1,0.03934713453054428,1,0.01012636721134186,1,-0.0003389296762179583,1,-8.390792208956555e-05,1
02/25/26 21:57:42.224438016,0.006542133167386055,1,0.01714469864964485,1,0.03909865394234657,1,0.009906560182571411,1,-0.0002081252168864012,1,-0.0003227022534701973,1
02/25/26 21:57:42.234387200,0.007378004025667906,1,0.01075008232146502,1,0.0337582603096962,1,0.008003395050764084,1,-0.0005484921857714653,1,9.480063454248011e-07,1
02/25/26 21:57:42.244239360,0.0098362872377038,1,0.009367570281028748,1,0.02954577654600143,1,0.004573045298457146,1,-0.0002736003370955586,1,-9.221499203704298e-05,1
02/25/26 21:57:42.253995008,0.01369672082364559,1,0.007014226634055376,1,0.02799438871443272,1,0.000817479332908988,1,-1.909489219542593e-05,1,-0.0002170289808418602,1
02/25/26 21:57:42.263654912,0.01493362430483103,1,0.008659231476485729,1,0.03176863491535187,1,-0.003463663626462221,1,0.0001872407156042755,1,-0.0002670722897164524,1
02/25/26 21:57:42.273219840,0.01188734080642462,1,0.008127568289637566,1,0.0345764271914959,1,-0.006772270426154137,1,9.192625293508172e-05,1,-0.000230587858823128,1
02/25/26 21:57:42.282697216,0.01250905077904463,1,0.01259466353803873,1,0.0401609018445015,1,-0.00907006673514843,1,0.0001906657853396609,1,-0.0002996882831212133,1
02/25/26 21:57:42.292086784,0.009340351447463036,1,0.01708873361349106,1,0.04749889299273491,1,-0.009775898419320583,1,0.0003949131059926003,1,-0.0005512845236808062,1
02/25/26 21:57:42.301538560,0.004526123404502869,1,0.02302230894565582,1,0.04321490228176117,1,-0.009399585425853729,1,0.0002194652188336477,1,-0.0003185056266374886,1
02/25/26 21:57:42.312267008,0.002089472720399499,1,0.02532078698277473,1,0.04042182490229607,1,-0.007317627780139446,1,8.842300303513184e-06,1,-3.939915040973574e-05,1
02/25/26 21:57:42.322891264,-0.001002582255750895,1,0.02683719992637634,1,0.04431140050292015,1,-0.005548188928514719,1,-0.0002148406347259879,1,-0.0001840621116571128,1
02/25/26 21:57:42.333409536,0.004239579197019339,1,0.02574220672249794,1,0.05172059312462807,1,-0.003258757526054978,1,-0.0001746522466419265,1,-0.0002798654604703188,1
02/25/26 21:57:42.343825408,0.009459580294787884,1,0.02469980344176292,1,0.05163640528917313,1,-0.0006825821474194527,1,0.0001076225889846683,1,-0.0002244214847451076,1
02/25/26 21:57:42.354141952,0.01347127463668585,1,0.02810618653893471,1,0.05121711641550064,1,0.002468000398948789,1,-0.0001187007510452531,1,-6.829884659964591e-05,1
02/25/26 21:57:42.364358912,0.01270642783492804,1,0.02505556493997574,1,0.0439513772726059,1,0.006064643152058125,1,-7.753437239443883e-05,1,-0.0003377329558134079,1
02/25/26 21:57:42.374474752,0.01157552655786276,1,0.02482377365231514,1,0.04473806917667389,1,0.008372305892407894,1,-0.0004007633542641997,1,-0.0004184295830782503,1
02/25/26 21:57:42.384492544,0.008618415333330631,1,0.02241856791079044,1,0.04036661610007286,1,0.009899837896227837,1,-0.00057462218683213,1,-0.0002730294072534889,1
02/25/26 21:57:42.394413056,0.006064319051802158,1,0.01935838535428047,1,0.04176494479179382,1,0.01045023091137409,1,-0.000297169346595183,1,-0.0002310309500899166,1
02/25/26 21:57:42.404234752,0.004239239729940891,1,0.01966459490358829,1,0.04081796109676361,1,0.01003660354763269,1,-0.0002200353919761255,1,-9.925260383170098e-05,1
02/25/26 21:57:42.413962496,0.005970244761556387,1,0.01804015040397644,1,0.04408862069249153,1,0.009848698973655701,1,-0.0003298167139291763,1,-0.0002973013906739652,1
02/25/26 21:57:42.423594752,0.008096018806099892,1,0.01946889236569405,1,0.04245070368051529,1,0.00968767236918211,1,0.0001892273867269978,1,-0.0001974125480046496,1
02/25/26 21:57:42.433132288,0.01172222662717104,1,0.021104970946908,1,0.04148608073592186,1,0.009624299593269825,1,0.0001933399762492627,1,-0.0003753433120436966,1
02/25/26 21:57:42.442576128,0.01381759345531464,1,0.01940610818564892,1,0.03595219179987907,1,0.00973881222307682,1,0.0001755170524120331,1,-0.0002637080324348062,1
02/25/26 21:57:42.451927296,0.0144917368888855,1,0.01943853124976158,1,0.03557267040014267,1,0.009332600049674511,1,-0.0001198566606035456,1,-0.0001663223083596677,1
02/25/26 21:57:42.461648640,0.01562097016721964,1,0.01822302304208279,1,0.03937793150544167,1,0.008927865885198116,1,-7.135992200346664e-05,1,-2.075515294563957e-05,1
02/25/26 21:57:42.472345600,0.0132101709023118,1,0.01812899671494961,1,0.04306984320282936,1,0.007867018692195415,1,-0.0002821193484123796,1,-0.0001901000796351582,1
02/25/26 21:57:42.482937856,0.006567203905433416,1,0.01748961396515369,1,0.04459485039114952,1,0.007031973917037249,1,-0.0002821602101903409,1,-0.0002177115093218163,1
02/25/26 21:57:42.493425152,0.002697697840631008,1,0.01880812831223011,1,0.04081792011857033,1,0.007020636461675167,1,-0.0003730177995748818,1,-2.877228689612821e-05,1
02/25/26 21:57:42.503810304,0.0001489730057073757,1,0.02027842029929161,1,0.03906304016709328,1,0.006558405235409737,1,-0.0002016555954469368,1,0.0001439916959498078,1
02/25/26 21:57:42.514092032,0.006841192953288555,1,0.01812073402106762,1,0.03513321653008461,1,0.006210587453097105,1,-0.0001448412658646703,1,-0.0001815056457417086,1
02/25/26 21:57:42.524271616,0.008609860204160213,1,0.01953914947807789,1,0.03581112995743752,1,0.005620649084448814,1,8.988772606244311e-05,1,-0.000185614379006438,1
02/25/26 21:57:42.534355456,0.01592082902789116,1,0.01494660787284374,1,0.03543008118867874,1,0.005999767687171698,1,-0.0001619851245777681,1,-0.0001421516353730112,1
02/25/26 21:57:42.544338688,0.01726463995873928,1,0.002715284004807472,1,0.03094594366848469,1,0.003617100650444627,1,-8.243441698141396e-06,1,-7.977980567375198e-05,1
02/25/26 21:57:42.554222336,0.01594197005033493,1,0.02542798779904842,1,0.04831079393625259,1,0.003394808853045106,1,0.0002745233359746635,1,-6.136997399153188e-05,1
02/25/26 21:57:42.564010240,0.008648188784718513,1,0.03071330115199089,1,0.04593463987112045,1,0.004691941663622856,1,-0.0002846680872607976,1,7.677698886254802e-05,1
02/25/26 21:57:42.573700608,0.001341561321169138,1,0.01126785017549992,1,0.03709419444203377,1,0.00683521619066596,1,-0.00033589854137972,1,-5.763879744336009e-05,1
02/25/26 21:57:42.583294976,-0.001028795726597309,1,0.0147870285436511,1,0.04803202301263809,1,0.003534482326358557,1,-0.0002556052932050079,1,6.534417479997501e-05,1
02/25/26 21:57:42.592795136,0.001893122331239283,1,0.01274408213794231,1,0.04287514090538025,1,0.002956613199785352,1,-2.777567715384066e-06,1,-5.981884532957338e-05,1
02/25/26 21:57:42.602201856,0.004922365769743919,1,0.02446076087653637,1,0.04332874342799187,1,0.003602950600907207,1,-5.54765501874499e-05,1,-9.740870154928416e-05,1
02/25/26 21:57:42.611515136,0.009168227203190327,1,0.02162423357367516,1,0.05488844588398933,1,0.005244241561740637,1,-0.0003291016619186848,1,-7.051901775412261e-05,1
02/25/26 21:57:42.621666304,0.01107709668576717,1,0.01900473237037659,1,0.04466414079070091,1,0.00857234001159668,1,-0.0008117336547002196,1,-4.174332207185216e-05,1
02/25/26 21:57:42.632335104,0.01109898276627064,1,0.02227921783924103,1,0.0443129651248455,1,0.01099993009120226,1,-0.0006543529452756047,1,-0.0001005788362817839,1
02/25/26 21:57:42.642900736,0.009400337934494019,1,0.01868346519768238,1,0.04053100198507309,1,0.01185316871851683,1,-0.0005262922495603561,1,-0.0001403098867740482,1
02/25/26 21:57:42.653363712,0.005045138765126467,1,0.006302233319729567,1,0.02131490223109722,1,0.009454790502786636,1,-0.0005246936343610287,1,-4.9425882025389e-05,1
02/25/26 21:57:42.663724544,0.004570967983454466,1,-0.002738417824730277,1,0.005585336126387119,1,0.002928809262812138,1,-0.0001535700866952538,1,-5.835214687976986e-05,1
02/25/26 21:57:42.673987584,0.004365661647170782,1,-0.009840480983257294,1,0.002736641792580485,1,-0.007056830450892448,1,-0.0002316260943189263,1,-0.0001744531909935176,1
02/25/26 21:57:42.684149760,0.004574469290673733,1,-0.013649414293468,1,0.02418014965951443,1,-0.01883680745959282,1,0.0002865840215235949,1,-0.0001366268552374095,1
02/25/26 21:57:42.694211328,0.006380562204867601,1,-0.006651015486568213,1,0.02811335027217865,1,-0.02890909463167191,1,0.0008913303609006107,1,-9.725968993734568e-06,1
02/25/26 21:57:42.704175360,0.01140323933213949,1,0.007357893045991659,1,0.02395310252904892,1,-0.03550440818071365,1,0.001022841315716505,1,-9.951248648576438e-05,1
02/25/26 21:57:42.714040320,0.01469684857875109,1,0.02138734422624111,1,0.03277043253183365,1,-0.0366264134645462,1,0.0009718857472762465,1,-0.0001390417746733874,1
02/25/26 21:57:42.723807232,0.0157757792621851,1,0.03194354847073555,1,0.0541071817278862,1,-0.03290033712983131,1,0.0008800543146207929,1,-0.0003609764680732042,1
02/25/26 21:57:42.733478912,0.01323816180229187,1,0.03936059027910233,1,0.06964487582445145,1,-0.02543270960450172,1,0.00052182178478688,1,-0.0002367674751440063,1
02/25/26 21:57:42.743054592,0.01105119753628969,1,0.04127578437328339,1,0.0641372948884964,1,-0.01639183983206749,1,0.0002068837056867778,1,-0.0004126154526602477,1
02/25/26 21:57:42.752536576,0.008718621917068958,1,0.03963282331824303,1,0.06366276741027832,1,-0.008178239688277245,1,-1.606337173143402e-05,1,-0.0002056788944173604,1
02/25/26 21:57:42.761925376,0.00597703643143177,1,0.03283732011914253,1,0.05438944697380066,1,-0.00135198119096458,1,-0.0003252362366765738,1,-0.0001824126084102318,1
02/25/26 21:57:42.771220480,0.004523051902651787,1,0.02405723370611668,1,0.05000926554203033,1,0.003423197194933891,1,-0.0003675923799164593,1,-0.0002001698012463748,1
02/25/26 21:57:42.781822720,0.007207976654171944,1,0.0216000359505415,1,0.03898667171597481,1,0.005414517596364021,1,-0.0004710147331934422,1,-0.0001832377893151715,1
02/25/26 21:57:42.792475136,0.009869753383100033,1,0.01896339096128941,1,0.03162922710180283,1,0.005828783381730318,1,-0.0003603409859351814,1,-0.0002006336726481095,1
02/25/26 21:57:42.803024128,0.01335158757865429,1,0.01806450076401234,1,0.0389198362827301,1,0.005336588248610497,1,-6.272445898503065e-05,1,-6.629394192714244e-05,1
02/25/26 21:57:42.813469696,0.01359058823436499,1,0.0157657079398632,1,0.04958675056695938,1,0.0046922299079597,1,-0.0001260098943021148,1,-0.0001353607513010502,1
02/25/26 21:57:42.823812096,0.01540085487067699,1,0.01935154944658279,1,0.04734436422586441,1,0.006013611331582069,1,-0.0002274459111504257,1,-3.86334431823343e-05,1
02/25/26 21:57:42.834054656,0.01384713873267174,1,0.02333970554172993,1,0.04894749447703362,1,0.007917539216578007,1,-0.0004449120897334069,1,-0.0001817067823139951,1
02/25/26 21:57:42.844194816,0.01085523329675198,1,0.02608272060751915,1,0.045639768242836,1,0.01052986737340689,1,-0.0004585804708767682,1,4.100406658835709e-05,1
02/25/26 21:57:42.854234112,0.004980640485882759,1,0.02503698877990246,1,0.04600432142615318,1,0.01317589823156595,1,-0.0002877319348044693,1,-5.328383849700913e-05,1
02/25/26 21:57:42.864175360,0.004338746890425682,1,0.02449370920658112,1,0.05052048712968826,1,0.01475375518202782,1,-0.0004348504589870572,1,6.584110087715089e-05,1
02/25/26 21:57:42.874020864,0.004321777727454901,1,0.02158408053219318,1,0.02420985512435436,1,0.01491268072277308,1,-0.0007423480274155736,1,0.000113624832010828,1
02/25/26 21:57:42.883772672,0.005471670534461737,1,0.01463773101568222,1,0.03393523022532463,1,0.01323453709483147,1,-0.0004972079768776894,1,3.955180727643892e-05,1
02/25/26 21:57:42.893428480,0.01113751064985991,1,0.00628460431471467,1,0.0276306439191103,1,0.0097582982853055,1,-0.0005624436307698488,1,-0.0002152832457795739,1
02/25/26 21:57:42.902989568,0.01010848954319954,1,0.002312624594196677,1,0.03428057208657265,1,0.00519932247698307,1,-0.0005533826188184321,1,-0.0004814791609533131,1
02/25/26 21:57:42.912455424,0.009795757010579109,1,0.00718156760558486,1,0.04116728901863098,1,0.0007933456217870116,1,-9.410899656359106e-05,1,-0.0002127826155629009,1
02/25/26 21:57:42.921829632,0.007973246276378632,1,0.01218748558312654,1,0.03739558905363083,1,-0.002882027765735984,1,0.0001903515658341348,1,-9.9420256447047e-05,1
02/25/26 21:57:42.931265792,0.006818696856498718,1,0.01709212176501751,1,0.03319710120558739,1,-0.004755189642310143,1,-0.0001624544383957982,1,-5.278727257973514e-05,1
02/25/26 21:57:42.941997312,0.003943316172808409,1,0.01853751577436924,1,0.04059939458966255,1,-0.005476771388202906,1,-0.0001600574469193816,1,0.0001407594390911981,1
02/25/26 21:57:42.952624640,0.007518193684518337,1,0.01423582341521978,1,0.04340411722660065,1,-0.005968930665403605,1,-0.0001357854634989053,1,3.567049861885607e-05,1
02/25/26 21:57:42.963148544,0.008004608564078808,1,0.01743737980723381,1,0.03965866193175316,1,-0.005750310141593218,1,-4.034498488181271e-05,1,4.696274845628068e-05,1
02/25/26 21:57:42.973572864,0.01083679310977459,1,0.01735647954046726,1,0.006580216810107231,1,-0.006563382223248482,1,0.0001335842534899712,1,-0.0002203355979872867,1
02/25/26 21:57:42.983894528,0.01132181473076344,1,0.01432991679757833,1,0.03986169397830963,1,-0.008941543288528919,1,0.0005362699739634991,1,-0.0002945722080767155,1
02/25/26 21:57:42.994114304,0.01155963633209467,1,0.007964849472045898,1,0.04432222992181778,1,-0.01142680738121271,1,0.0006408122135326266,1,-0.0002535832754801959,1
02/25/26 21:57:43.004235264,0.01156413927674294,1,0.01251920778304338,1,0.02929066121578217,1,-0.01332931499928236,1,0.0004817403678316623,1,-0.0002716777962632477,1
02/25/26 21:57:43.014257920,0.008924749679863453,1,0.01909623853862286,1,0.02220403216779232,1,-0.01484938524663448,1,0.0002756497415248305,1,-0.0001854140282375738,1
02/25/26 21:57:43.024181248,0.009080346673727036,1,0.017920246347785,1,0.04822937399148941,1,-0.01505053043365479,1,0.0003880390140693635,1,-0.0001883373770397156,1
02/25/26 21:57:43.034009856,0.0118444599211216,1,0.01851317659020424,1,0.07509975135326385,1,-0.01330343075096607,1,0.0002875782083719969,1,-2.71447206614539e-05,1
02/25/26 21:57:43.043741184,0.01030573528259993,1,0.03003265336155891,1,0.0624687448143959,1,-0.01022386085242033,1,-0.0001634302025195211,1,-0.0001277789706364274,1
02/25/26 21:57:43.053378304,0.00756563525646925,1,0.03706986084580421,1,0.03925053775310516,1,-0.005548864603042603,1,-0.0001066216718754731,1,-1.343652184004895e-05,1
02/25/26 21:57:43.062919936,0.008045642636716366,1,0.0352211594581604,1,0.03667155653238297,1,-0.0008278415771201253,1,0.0002702631463762373,1,-4.235892629367299e-05,1
02/25/26 21:57:43.072368640,0.01273610629141331,1,0.02688937447965145,1,0.04673116281628609,1,0.003106395015493035,1,7.619147072546184e-05,1,2.282840614498127e-05,1
02/25/26 21:57:43.081724672,0.01398120447993279,1,0.02016916126012802,1,0.05266911908984184,1,0.005496703088283539,1,-0.0001635411754250526,1,-0.0001407684321748093,1
02/25/26 21:57:43.091453184,0.01588067226111889,1,0.01670797914266586,1,0.04120660200715065,1,0.005611843895167112,1,8.596845873398706e-05,1,-0.0001546035782666877,1
02/25/26 21:57:43.102152960,0.01486647594720125,1,0.01872158795595169,1,0.03615045920014381,1,0.004686952568590641,1,0.0001827780070016161,1,-0.0001621783012524247,1
02/25/26 21:57:43.112747776,0.0113262515515089,1,0.01472158171236515,1,0.04297240450978279,1,0.00344129791483283,1,9.18832010938786e-05,1,-9.906438208417967e-05,1
02/25/26 21:57:43.123239680,0.008543643169105053,1,0.01728698797523975,1,0.04594605043530464,1,0.00250514387153089,1,0.0002237773151136935,1,-0.0002005160204134881,1
02/25/26 21:57:43.133627392,0.006055963691323996,1,0.02169376239180565,1,0.03514984250068665,1,0.002185535151511431,1,8.089412585832179e-05,1,-0.000242534777498804,1
02/25/26 21:57:43.143913216,0.003658528672531247,1,0.02143268473446369,1,0.0336395800113678,1,0.001852299901656806,1,0.0003276966162957251,1,-0.0002751797146629542,1
02/25/26 21:57:43.154096896,0.006432388909161091,1,0.01978478208184242,1,0.05407958850264549,1,0.001881625154055655,1,0.000210251659154892,1,-0.00015775699284859,1
02/25/26 21:57:43.164179968,0.009004378691315651,1,0.01891549862921238,1,0.03710511326789856,1,0.002308046678081155,1,-2.435698479530402e-05,1,-0.0002349207061342895,1
02/25/26 21:57:43.174164736,0.01147990766912699,1,0.02099400572478771,1,0.04234129190444946,1,0.001748367096297443,1,0.0001790950918802992,1,-7.968843419803306e-05,1
02/25/26 21:57:43.184055296,0.01211257092654705,1,0.01835045963525772,1,0.0299932062625885,1,0.001084577292203903,1,-0.0003000740543939173,1,5.820866863359697e-05,1
02/25/26 21:57:43.193858048,0.01246855780482292,1,0.01721432618796825,1,0.04156839102506638,1,0.001456720754504204,1,-0.0002923402935266495,1,9.54682327574119e-05,1
02/25/26 21:57:43.203565312,0.008021866902709007,1,0.0212903618812561,1,0.03979112952947617,1,0.001314262393862009,1,0.0001069438585545868,1,-0.0001347128563793376,1
02/25/26 21:57:43.213177344,0.003279227297753096,1,0.02070274017751217,1,0.03989428281784058,1,0.001108015305362642,1,-3.331802872708067e-05,1,-0.0001660017296671867,1
02/25/26 21:57:43.222695424,0.0002644376363605261,1,0.02034291811287403,1,0.04520584270358086,1,0.001225635060109198,1,0.0001902137883007526,1,-0.0002531397913116962,1
02/25/26 21:57:43.232120832,0.000834883248899132,1,0.01898128353059292,1,0.04371436685323715,1,0.001133052166551352,1,0.0001690994249656796,1,-0.0002605678746476769,1
02/25/26 21:57:43.241453312,0.002580062486231327,1,0.01870919391512871,1,0.04024530202150345,1,0.001198931830003858,1,-4.63259311800357e-06,1,-0.0001544281258247793,1
02/25/26 21:57:43.251613184,0.008591186255216599,1,0.01751636154949665,1,0.03957955166697502,1,0.001105157658457756,1,-5.814118048874661e-05,1,-5.164863614481874e-05,1
02/25/26 21:57:43.262282240,0.01274210028350353,1,0.01317464374005795,1,0.04434962570667267,1,0.0004547032294794917,1,-1.269479798793327e-05,1,-0.0001733367826091126,1
02/25/26 21:57:43.272847872,0.01217198371887207,1,0.01403200905770063,1,0.04791812226176262,1,0.00082006974844262,1,-0.0001728737697703764,1,-0.0001504831307101995,1
02/25/26 21:57:43.283309312,0.01156893651932478,1,0.02350139431655407,1,0.04196292534470558,1,0.001300302101299167,1,-0.0003884399484377354,1,-0.0002622844185680151,1
02/25/26 21:57:43.293672192,0.009968302212655544,1,0.027804771438241,1,0.03670719638466835,1,0.003066407283768058,1,-0.0001087577984435484,1,-0.0002427084109513089,1
02/25/26 21:57:43.303933440,0.00794061366468668,1,0.02752531133592129,1,0.04337046667933464,1,0.005244712810963392,1,-3.365110387676395e-05,1,-0.0003636001783888787,1
02/25/26 21:57:43.314094080,0.00999874621629715,1,0.02370950765907764,1,0.05717948079109192,1,0.007760950364172459,1,-0.0003681808593682945,1,-4.209746475680731e-05,1
02/25/26 21:57:43.324156672,0.01059810537844896,1,0.02149469591677189,1,0.05850132927298546,1,0.00939579214900732,1,-0.0004189977771602571,1,-0.0004129187436774373,1
02/25/26 21:57:43.334120192,0.01090722158551216,1,0.02291294932365417,1,0.05139501020312309,1,0.01113906316459179,1,-0.0007283352897502482,1,-0.0002451297477819026,1
02/25/26 21:57:43.343985664,0.009431786835193634,1,0.02331329695880413,1,0.04870705679059029,1,0.01371123362332582,1,-0.0006735798669978976,1,-0.0004713380476459861,1
02/25/26 21:57:43.353756416,0.01116868574172258,1,0.02151602320373058,1,0.04611610621213913,1,0.01554339285939932,1,-0.0006554799620062113,1,-2.669326204340905e-05,1
02/25/26 21:57:43.363431680,0.01129283010959625,1,0.0213188286870718,1,0.03820530325174332,1,0.01702444441616535,1,-0.0004658382094930857,1,1.716666884021834e-05,1
02/25/26 21:57:43.373012480,0.01448732987046242,1,0.01704927906394005,1,0.03109962306916714,1,0.01667685434222221,1,-0.0002816481865011156,1,2.161980228265747e-05,1
02/25/26 21:57:43.382506240,0.01293675135821104,1,0.0105790151283145,1,0.03020568564534187,1,0.01503005810081959,1,-8.738602628000081e-05,1,-0.0001325124758295715,1
02/25/26 21:57:43.391910400,0.01004069391638041,1,0.008062655106186867,1,0.02495329827070236,1,0.01149793155491352,1,5.98239348619245e-05,1,-0.0003547105588950217,1
02/25/26 21:57:43.401223424,0.008502054028213024,1,0.007017460186034441,1,0.01966690644621849,1,0.007207407616078854,1,6.851505168015137e-05,1,-0.0001262106234207749,1
02/25/26 21:57:43.411826176,0.005520099308341742,1,0.009515565820038319,1,0.01641700975596905,1,0.001920561655424535,1,0.0001931744045577943,1,1.41248738145805e-05,1
02/25/26 21:57:43.422479616,0.004850526340305805,1,0.004588947631418705,1,0.01744478009641171,1,-0.003636505920439959,1,-1.135935235652141e-05,1,-3.874739559250884e-05,1
02/25/26 21:57:43.433029888,0.006643251515924931,1,0.004615576472133398,1,0.02533094398677349,1,-0.009326556697487831,1,0.0002236680884379894,1,2.491927079972811e-05,1
02/25/26 21:57:43.443478016,0.01029462553560734,1,0.008667504414916039,1,0.03105266019701958,1,-0.01368783973157406,1,0.0004316178965382278,1,-0.0002076681266771629,1
02/25/26 21:57:43.453825536,0.008635557256639004,1,0.01464062836021185,1,0.03407669067382812,1,-0.01580326072871685,1,0.000556682818569243,1,-0.0002407896245131269,1
02/25/26 21:57:43.464075008,0.01022657379508018,1,0.02031952515244484,1,0.03877720609307289,1,-0.01597422920167446,1,0.0004402989579830319,1,-8.277708548121154e-05,1
02/25/26 21:57:43.474224384,0.008906779810786247,1,0.0280060637742281,1,0.04685856029391289,1,-0.01469884347170591,1,0.0005245683714747429,1,-9.821783169172704e-05,1
02/25/26 21:57:43.484273920,0.007303641177713871,1,0.03219792991876602,1,0.05053777992725372,1,-0.01092368271201849,1,0.0002910385956056416,1,-0.0002463527780491859,1
02/25/26 21:57:43.494227200,0.007008794695138931,1,0.03450263664126396,1,0.05424931645393372,1,-0.005729842465370893,1,0.0001465198001824319,1,-2.597352067823522e-05,1
02/25/26 21:57:43.504084224,0.005680294707417488,1,0.03601866215467453,1,0.05474739521741867,1,0.0004709072527475655,1,-0.0001647280878387392,1,-0.000325366243487224,1
02/25/26 21:57:43.513845760,0.008499854244291782,1,0.03543565422296524,1,0.05552924051880836,1,0.006897713057696819,1,-0.0004252394428476691,1,-0.0001105579940485768,1
02/25/26 21:57:43.523513088,0.009831653907895088,1,0.03500417992472649,1,0.05250974744558334,1,0.0123424343764782,1,-0.0003721243992913514,1,-2.538490116421599e-05,1
02/25/26 21:57:43.533086208,0.01140512526035309,1,0.03020708635449409,1,0.04994732886552811,1,0.01703740283846855,1,-0.000439353781985119,1,3.616111644078046e-05,1
02/25/26 21:57:43.542568448,0.01140194479376078,1,0.02437116205692291,1,0.0503675788640976,1,0.02016486786305904,1,-0.0005409990553744137,1,-0.0001311596861341968,1
02/25/26 21:57:43.551959552,0.0126986326649785,1,0.01991390064358711,1,0.05015463754534721,1,0.02154115214943886,1,-0.0007603754056617618,1,-0.000124718775623478,1
02/25/26 21:57:43.561412608,0.009754132479429245,1,0.01593961007893085,1,0.04758927598595619,1,0.02199860475957394,1,-0.0005902481498196721,1,-5.345439058146439e-05,1
02/25/26 21:57:43.572142592,0.009736942127346992,1,0.01478663645684719,1,0.04785114899277687,1,0.02174197509884834,1,-0.0008828580612316728,1,-0.0001437480095773935,1
02/25/26 21:57:43.582767616,0.01125217042863369,1,0.01549083087593317,1,0.04161210358142853,1,0.02090930566191673,1,-0.0005845593404956162,1,0.0001928909041453153,1
02/25/26 21:57:43.593288960,0.009400976821780205,1,0.01779892481863499,1,0.03969397768378258,1,0.02003323100507259,1,-0.0004540367517620325,1,0.0002973502269014716,1
02/25/26 21:57:43.603707904,0.01002482697367668,1,0.01834269240498543,1,0.03345968574285507,1,0.0187669862061739,1,-0.0006877242121845484,1,0.0004393782292027026,1
02/25/26 21:57:43.614026496,0.01051514036953449,1,0.01533838082104921,1,0.0276053175330162,1,0.01717131771147251,1,-0.0009909834479913116,1,0.0003450496878940612,1
02/25/26 21:57:43.624243968,0.01208755653351545,1,0.01138337515294552,1,0.0319129191339016,1,0.01485041435807943,1,-0.0006579582113772631,1,0.0001808746019378304,1
02/25/26 21:57:43.634361088,0.0106861898675561,1,0.00811819639056921,1,0.03204172849655151,1,0.01162638608366251,1,-0.0005420479574240744,1,8.686300134286284e-05,1
02/25/26 21:57:43.644380416,0.01081836316734552,1,0.005647174082696438,1,0.02779372036457062,1,0.007517998106777668,1,-0.000457219168310985,1,0.0002962828730233014,1
02/25/26 21:57:43.654299648,0.009944869205355644,1,0.00549674266949296,1,0.02136051096022129,1,0.002602917607873678,1,-0.0001141584216384217,1,4.543433169601485e-05,1
02/25/26 21:57:43.664129536,0.00552845885977149,1,0.0061733303591609,1,0.02507433295249939,1,-0.003195322118699551,1,0.00013053159636911,1,-0.0002840389497578144,1
02/25/26 21:57:43.673867776,0.00608431501314044,1,0.004158533178269863,1,0.03426287323236465,1,-0.008719790726900101,1,0.0001703879242995754,1,-0.0002503958239685744,1
02/25/26 21:57:43.683511296,0.006822391878813505,1,0.007005670573562384,1,0.03317088261246681,1,-0.01394115015864372,1,0.0004784197080880404,1,-0.0001830685941968113,1
02/25/26 21:57:43.693062400,0.005315053276717663,1,0.01024711690843105,1,0.02860403247177601,1,-0.01774356700479984,1,0.0005938070244155824,1,-6.93222536938265e-05,1
02/25/26 21:57:43.702520320,0.005369030870497227,1,0.01481690257787704,1,0.02895335108041763,1,-0.02027717791497707,1,0.0009395209490321577,1,-0.0001384031202178448,1
02/25/26 21:57:43.711886080,0.007782969158142805,1,0.01594302244484425,1,0.03624202683568001,1,-0.02118448540568352,1,0.0006042798049747944,1,4.175100548309274e-05,1
02/25/26 21:57:43.721618176,0.01011161226779222,1,0.01943405158817768,1,0.04524537175893784,1,-0.02059280686080456,1,0.0003466519410721958,1,5.905149009777233e-07,1
02/25/26 21:57:43.732313088,0.0108685502782464,1,0.02298636920750141,1,0.04214437678456306,1,-0.01903124526143074,1,0.0003734592464752495,1,3.390361234778538e-05,1
02/25/26 21:57:43.742903040,0.01084314566105604,1,0.02467244304716587,1,0.04766618460416794,1,-0.01606381684541702,1,0.0004170328029431403,1,2.204902375524398e-05,1
02/25/26 21:57:43.753391104,0.007314719725400209,1,0.02599962614476681,1,0.05421124398708344,1,-0.01179450005292892,1,0.0008918432868085802,1,2.343943197047338e-05,1
02/25/26 21:57:43.763774464,0.005355799105018377,1,0.02843235991895199,1,0.05614250898361206,1,-0.007588113658130169,1,0.0006379370461218059,1,0.0001359959860565141,1
02/25/26 21:57:43.774055680,0.005660532973706722,1,0.03285657614469528,1,0.05110424011945724,1,-0.002840013243257999,1,0.0004393177223391831,1,-7.610233296873048e-05,1
02/25/26 21:57:43.784236800,0.007507586386054754,1,0.03254575654864311,1,0.05211210995912552,1,0.001990311313420534,1,-0.0001447344257030636,1,-0.0001996208011405542,1
02/25/26 21:57:43.794315520,0.007114225532859564,1,0.03020841814577579,1,0.05648381635546684,1,0.007021618075668812,1,-0.0003069620870519429,1,-6.432601367123425e-05,1
02/25/26 21:57:43.804294400,0.007633845787495375,1,0.02632535621523857,1,0.05222555249929428,1,0.01186641491949558,1,-0.0006333489436656237,1,-7.097582056303509e-06,1
02/25/26 21:57:43.814176512,0.00760164437815547,1,0.0252971351146698,1,0.04611223191022873,1,0.01553859747946262,1,-0.000559942563995719,1,0.0001336580025963485,1
02/25/26 21:57:43.823960064,0.008567601442337036,1,0.02316952683031559,1,0.04446746408939362,1,0.01820583269000053,1,-0.0005012437468394637,1,9.237751510227099e-05,1
02/25/26 21:57:43.833646336,0.00905153900384903,1,0.0159319844096899,1,0.04172629490494728,1,0.0199224017560482,1,-0.0008149136556312442,1,7.739453576505184e-05,1
02/25/26 21:57:43.843236096,0.008302811533212662,1,0.0137763936072588,1,0.04314220696687698,1,0.02051283419132233,1,-0.0006161159835755825,1,-8.498875831719488e-05,1
02/25/26 21:57:43.852732928,0.009004195220768452,1,0.01458487752825022,1,0.03922219946980476,1,0.01991894841194153,1,-0.0007405478390865028,1,-1.203147985506803e-05,1
02/25/26 21:57:43.862135296,0.009117511101067066,1,0.01601814106106758,1,0.03845011815428734,1,0.01909265108406544,1,-0.0006872385856695473,1,7.210134208435193e-05,1
02/25/26 21:57:43.871445248,0.007952999323606491,1,0.01498176716268063,1,0.04129403829574585,1,0.0179886482656002,1,-0.000629593909252435,1,8.421397797064856e-05,1
02/25/26 21:57:43.881594368,0.01085691340267658,1,0.01390901394188404,1,0.04229933395981789,1,0.01661823317408562,1,-0.0004001629422418773,1,5.612004679278471e-05,1
02/25/26 21:57:43.892261376,0.01130060758441687,1,0.01464107073843479,1,0.03549789264798164,1,0.01570061221718788,1,-0.0004476430185604841,1,-9.138558380072936e-05,1
02/25/26 21:57:43.902824960,0.01336592342704535,1,0.01487889047712088,1,0.03337461873888969,1,0.01464578974992037,1,-3.319473398732953e-05,1,-0.0001765284687280655,1
02/25/26 21:57:43.913284352,0.01388609874993563,1,0.01438319496810436,1,0.03364824503660202,1,0.01355695724487305,1,-0.0002146546612493694,1,-0.0002861141692847013,1
02/25/26 21:57:43.923641088,0.01194764394313097,1,0.01048864703625441,1,0.03677754476666451,1,0.01182201411575079,1,-0.0005458859377540648,1,-0.0002134951791958883,1
02/25/26 21:57:43.933897216,0.008881215937435627,1,0.01013533212244511,1,0.03847944736480713,1,0.009485268965363503,1,-0.0003568227402865887,1,-0.0001658762048464268,1
02/25/26 21:57:43.944053248,0.00501631572842598,1,0.007605239748954773,1,0.03055767714977264,1,0.006355966906994581,1,-0.0001799053570721298,1,-1.256980704056332e-05,1
02/25/26 21:57:43.954108928,0.004551197402179241,1,0.006711678113788366,1,0.02762752585113049,1,0.002478015143424273,1,-0.0002816693740896881,1,-0.0002759565832093358,1
02/25/26 21:57:43.964066048,0.007424775045365095,1,0.01017068605870008,1,0.03043739683926105,1,-0.001536399824544787,1,-6.784190918551758e-05,1,-0.0004392282280605286,1
02/25/26 21:57:43.973924864,0.007754151709377766,1,0.009151914156973362,1,0.03167535364627838,1,-0.005485173780471087,1,-0.0001877155882539228,1,-0.0003143793437629938,1
02/25/26 21:57:43.983685376,0.008192066103219986,1,0.009407607838511467,1,0.03067909926176071,1,-0.00924818217754364,1,4.252793223713525e-05,1,-0.0001561245153425261,1
02/25/26 21:57:43.993351168,0.009582902304828167,1,0.01116514671593904,1,0.03303287550806999,1,-0.01232448313385248,1,0.0002114209637511522,1,-3.604757148423232e-05,1
02/25/26 21:57:44.002921216,0.01032581180334091,1,0.01287530362606049,1,0.03547079488635063,1,-0.01467998884618282,1,0.0004682575236074626,1,-0.0001892818108899519,1
02/25/26 21:57:44.012398336,0.0102198701351881,1,0.01434102095663548,1,0.03953122720122337,1,-0.01623567938804626,1,0.000107083840703126,1,-0.0001403404748998582,1
02/25/26 21:57:44.021781248,0.008942712098360062,1,0.01728667505085468,1,0.03701025247573853,1,-0.01733529940247536,1,0.000287296948954463,1,-0.0001985159906325862,1
02/25/26 21:57:44.031070464,0.007827885448932648,1,0.02075695618987083,1,0.04320333153009415,1,-0.01796116679906845,1,0.000524737115483731,1,-0.0001656294916756451,1
02/25/26 21:57:44.041826560,0.006816782522946596,1,0.02212191186845303,1,0.04083428531885147,1,-0.01737514324486256,1,0.0002630352391861379,1,-0.0001669639750616625,1
02/25/26 21:57:44.052477952,0.007406183518469334,1,0.02322699502110481,1,0.04354749619960785,1,-0.01630155928432941,1,0.0001757640420692042,1,-5.898602103115991e-05,1
02/25/26 21:57:44.063023872,0.007818135432898998,1,0.02369368262588978,1,0.04699216410517693,1,-0.01455746404826641,1,0.0004439839976839721,1,-0.0002662022016011178,1
02/25/26 21:57:44.073465600,0.01002699416130781,1,0.02570826187729836,1,0.04640018567442894,1,-0.01191969215869904,1,0.0001688656193437055,1,-0.0004258474800735712,1
02/25/26 21:57:44.083810560,0.01138386875391006,1,0.02453490160405636,1,0.04768931865692139,1,-0.009355595335364342,1,6.560682959388942e-05,1,-0.000297094346024096,1
02/25/26 21:57:44.094053120,0.01145972777158022,1,0.02686410024762154,1,0.05179380252957344,1,-0.006442680023610592,1,0.0005481233820319176,1,-7.109733996912837e-05,1
02/25/26 21:57:44.104195584,0.01172163616865873,1,0.02810258232057095,1,0.04956716671586037,1,-0.003389638150110841,1,0.0003035565605387092,1,-0.0001395388098899275,1
02/25/26 21:57:44.114236672,0.01170920953154564,1,0.02875553071498871,1,0.04704658314585686,1,-0.0003264527767896652,1,0.0001365173666272312,1,-0.0001793233386706561,1
02/25/26 21:57:44.124178176,0.01205288432538509,1,0.02975636720657349,1,0.05037018656730652,1,0.002649711910635233,1,0.000149086961755529,1,-0.0003924764750991017,1
02/25/26 21:57:44.134022912,0.01144451834261417,1,0.02745967358350754,1,0.05912892892956734,1,0.00640413723886013,1,-0.000214725048863329,1,-6.879426655359566e-05,1
02/25/26 21:57:44.143769856,0.009982788935303688,1,0.02873307466506958,1,0.05693943426012993,1,0.0103026544675231,1,-0.000539033324457705,1,0.0002311289281351492,1
02/25/26 21:57:44.153421824,0.009698753245174885,1,0.02767804637551308,1,0.05695507675409317,1,0.01393392775207758,1,-0.0004755682894028723,1,0.0002370848233113065,1
02/25/26 21:57:44.162978304,0.009873319417238235,1,0.02325344458222389,1,0.05137869715690613,1,0.01684206910431385,1,-0.0006076360587030649,1,5.098290057503618e-05,1
02/25/26 21:57:44.172439552,0.01048794388771057,1,0.02249877154827118,1,0.04797851294279099,1,0.0189307127147913,1,-0.0007661707350052893,1,5.541662176256068e-05,1
02/25/26 21:57:44.181808640,0.01339965127408504,1,0.02018242329359055,1,0.0409785769879818,1,0.02006061933934689,1,-0.0009001405560411513,1,7.189945608843118e-05,1
02/25/26 21:57:44.191240192,0.009271599352359772,1,0.02120613493025303,1,0.0312667116522789,1,0.01980150118470192,1,-0.0009384030126966536,1,-0.0002142206212738529,1
02/25/26 21:57:44.201970176,0.005348377861082554,1,0.01725428365170956,1,0.03183030337095261,1,0.01834736578166485,1,-0.0007957333000376821,1,-0.0006461232551373541,1
02/25/26 21:57:44.212596224,0.002990180160850286,1,0.0138183431699872,1,0.0335778221487999,1,0.0160641074180603,1,-0.000517828855663538,1,-0.0004802489129360765,1
02/25/26 21:57:44.223120896,0.001994826830923557,1,0.01367471925914288,1,0.03520276769995689,1,0.01317640487104654,1,-0.0003164711815770715,1,-0.0003910002415068448,1
02/25/26 21:57:44.233542912,0.002339811297133565,1,0.01337781362235546,1,0.02852275967597961,1,0.01048928219825029,1,-0.00031712168129161,1,-0.0003744956047739834,1
02/25/26 21:57:44.243864832,0.00709336344152689,1,0.01426587346941233,1,0.03262670338153839,1,0.008508088067173958,1,-2.524630326661281e-05,1,-0.0003147389506921172,1
02/25/26 21:57:44.254085376,0.01026749610900879,1,0.01398680452257395,1,0.03933172300457954,1,0.006666334345936775,1,6.198904884513468e-06,1,-3.375712549313903e-05,1
02/25/26 21:57:44.264207616,0.01179718691855669,1,0.01763808354735374,1,0.04488544166088104,1,0.006205573212355375,1,0.0001195102231577039,1,-0.0001644051808398217,1
02/25/26 21:57:44.274230272,0.009964609518647194,1,0.0234353132545948,1,0.04421017318964005,1,0.007660140283405781,1,0.0001037007459672168,1,-0.0002275516017107293,1
02/25/26 21:57:44.284163072,0.009938267059624195,1,0.02634028904139996,1,0.04423126205801964,1,0.01030128076672554,1,-0.0003032447129953653,1,-0.0001700126304058358,1
02/25/26 21:57:44.294002944,0.009343273937702179,1,0.02537349984049797,1,0.05299901217222214,1,0.01344089955091476,1,-0.0005918862880207598,1,-0.0001648659526836127,1
02/25/26 21:57:44.303747584,0.00778751028701663,1,0.02315885759890079,1,0.05069971829652786,1,0.01647680811583996,1,-0.0006318885134533048,1,-0.0003723315894603729,1
02/25/26 21:57:44.313396992,0.006231787148863077,1,0.02311241254210472,1,0.04226101189851761,1,0.01807471737265587,1,-0.0008848273428156972,1,-0.0002388128195889294,1
02/25/26 21:57:44.322953216,0.006637690123170614,1,0.02207676321268082,1,0.03294944018125534,1,0.01917325891554356,1,-0.0007793371332809329,1,-0.000251767341978848,1
02/25/26 21:57:44.332415744,0.0077754114754498,1,0.01547757722437382,1,0.03465114161372185,1,0.01827801577746868,1,-0.0007458701147697866,1,-3.137476596748456e-05,1
02/25/26 21:57:44.341786624,0.008851737715303898,1,0.0116172730922699,1,0.04217515140771866,1,0.01650653034448624,1,-0.0007687942124903202,1,-0.0001425332739017904,1
02/25/26 21:57:44.351521280,0.009167295880615711,1,0.008024513721466064,1,0.03517908230423927,1,0.01365209929645061,1,-0.0004659089318010956,1,-0.0001430612901458517,1
02/25/26 21:57:44.362214144,0.008483883924782276,1,0.01090655662119389,1,0.03145855292677879,1,0.01048987172544003,1,-0.0003100083267781883,1,-1.886594873212744e-05,1
02/25/26 21:57:44.372801280,0.008165773004293442,1,0.01295219175517559,1,0.02880413271486759,1,0.007646174635738134,1,-0.0002599924919195473,1,3.907901918864809e-05,1
02/25/26 21:57:44.383285504,0.008441787213087082,1,0.01340997777879238,1,0.03493132069706917,1,0.006443677004426718,1,-0.0001774634001776576,1,-9.424611926078796e-05,1
02/25/26 21:57:44.393670656,0.007609615568071604,1,0.01732094585895538,1,0.03839364275336266,1,0.005080110393464565,1,-0.0004094411269761622,1,-0.0001240337878698483,1
02/25/26 21:57:44.403955968,0.007788770366460085,1,0.01650778390467167,1,0.03541022911667824,1,0.003902132390066981,1,-0.0002061374834738672,1,-3.265318082412705e-05,1
02/25/26 21:57:44.414140416,0.009599799290299416,1,0.0161637905985117,1,0.03594480082392693,1,0.00231816410087049,1,-0.0002122560545103624,1,0.0001645430456846952,1
02/25/26 21:57:44.424226048,0.008743155747652054,1,0.01467179786413908,1,0.03515629097819328,1,0.0004557945358101279,1,-0.0001949532888829708,1,0.0001654724183026701,1
02/25/26 21:57:44.434213632,0.01024321839213371,1,0.01430694665759802,1,0.03615521267056465,1,-0.001396589679643512,1,-0.0001247459440492094,1,0.0001930048601934686,1
02/25/26 21:57:44.444103680,0.01169748138636351,1,0.01560471765697002,1,0.03559722006320953,1,-0.003173431847244501,1,0.0002723917423281819,1,7.803668268024921e-05,1
02/25/26 21:57:44.453896192,0.01127045881003141,1,0.01414436101913452,1,0.03421929478645325,1,-0.004213119857013226,1,0.0002411955210845917,1,5.12343758600764e-05,1
02/25/26 21:57:44.463594752,0.00971768144518137,1,0.01382972486317158,1,0.04117446765303612,1,-0.004985085222870111,1,0.0005153468227945268,1,-2.791942097246647e-05,1
02/25/26 21:57:44.473197824,0.009281076490879059,1,0.01607128232717514,1,0.04623232409358025,1,-0.005170277319848537,1,0.0005963619914837182,1,8.872788748703897e-05,1
02/25/26 21:57:44.482707456,0.00470927357673645,1,0.02159919030964375,1,0.0420575775206089,1,-0.004084818530827761,1,0.0003652176237665117,1,0.0001310872175963596,1
02/25/26 21:57:44.492122880,0.005855228286236525,1,0.02410843595862389,1,0.04527033120393753,1,-0.00270451046526432,1,0.0004349484806880355,1,7.726214244030416e-05,1
02/25/26 21:57:44.501447168,0.00819886103272438,1,0.0244625136256218,1,0.04413295164704323,1,-0.0007514192257076502,1,0.0004237341927364469,1,-8.31805809866637e-05,1
02/25/26 21:57:44.511753728,0.008985856547951698,1,0.02210568264126778,1,0.04711318016052246,1,0.0008418862125836313,1,-0.0001003322031465359,1,-0.0001630687183933333,1
02/25/26 21:57:44.522419712,0.008776925504207611,1,0.02500206977128983,1,0.04502951726317406,1,0.002582612447440624,1,-0.0005494647193700075,1,-6.978867895668373e-05,1
02/25/26 21:57:44.532981504,0.01024627033621073,1,0.02349384129047394,1,0.03980089724063873,1,0.004036303143948317,1,-0.0002591487136669457,1,3.721147368196398e-05,1
02/25/26 21:57:44.543440896,0.009578227996826172,1,0.01973804086446762,1,0.04263917729258537,1,0.004752160049974918,1,2.913032221840695e-05,1,0.0001386873627780005,1
02/25/26 21:57:44.553798144,0.008709661662578583,1,0.01915772072970867,1,0.0438137985765934,1,0.005623347591608763,1,-4.496764086070471e-05,1,-3.903799006366171e-05,1
02/25/26 21:57:44.564056064,0.006941513158380985,1,0.01935691200196743,1,0.04590656608343124,1,0.006684418302029371,1,-0.0001709857315290719,1,-1.081813024939038e-05,1
02/25/26 21:57:44.574213120,0.003732459852471948,1,0.0171608105301857,1,0.04026023298501968,1,0.007977085188031197,1,-0.0003782637941185385,1,-0.0001517185592092574,1
02/25/26 21:57:44.584279552,0.00621592253446579,1,0.02081443183124065,1,0.03919032588601112,1,0.008918739855289459,1,-0.000741722877137363,1,-0.000459278206108138,1
02/25/26 21:57:44.594248704,0.007654630113393068,1,0.02070100232958794,1,0.03972429037094116,1,0.01047651376575232,1,-0.000752122257836163,1,-0.0005053814384154975,1
02/25/26 21:57:44.604120320,0.008424763567745686,1,0.01992710120975971,1,0.04336894676089287,1,0.01148337125778198,1,-0.00082028639735654,1,-0.0002679456956684589,1
02/25/26 21:57:44.613896192,0.009957350790500641,1,0.01428461819887161,1,0.04062977805733681,1,0.01142257824540138,1,-0.0007243503932841122,1,-8.364864333998412e-05,1
02/25/26 21:57:44.623575552,0.01026502065360546,1,0.008986847475171089,1,0.0308978408575058,1,0.009926421567797661,1,-0.0007157270447351038,1,-4.334163168095984e-05,1
02/25/26 21:57:44.633160960,0.01032090559601784,1,0.005349154584109783,1,0.02403411269187927,1,0.005993515718728304,1,-0.0006067665526643395,1,5.422307822300354e-06,1
02/25/26 21:57:44.642654976,0.008003919385373592,1,0.001776389894075692,1,0.02605905942618847,1,0.0009651016443967819,1,-0.0003232197486795485,1,-0.0002236008294858038,1
02/25/26 21:57:44.652056576,0.01021258533000946,1,0.006528656929731369,1,0.028138292953372,1,-0.004450635053217411,1,-7.694320811424404e-05,1,-5.681686525349505e-05,1
02/25/26 21:57:44.661366016,0.009668883867561817,1,0.009177539497613907,1,0.030002661049366,1,-0.008817737922072411,1,0.0001322282041655853,1,-0.0001719727006275207,1
02/25/26 21:57:44.672119552,0.009399768896400928,1,0.01190018560737371,1,0.03585283830761909,1,-0.01103147957473993,1,0.0002249326062155887,1,6.766695878468454e-05,1
02/25/26 21:57:44.682768896,0.01089501101523638,1,0.01591499522328377,1,0.04209952428936958,1,-0.0118780042976141,1,7.173569611040875e-05,1,-5.374491956899874e-05,1
02/25/26 21:57:44.693314560,0.0111192911863327,1,0.01993273571133614,1,0.04412195086479187,1,-0.01119157020002604,1,0.0002473124186508358,1,-0.0001857396273408085,1
02/25/26 21:57:44.703757568,0.01253033615648746,1,0.03081280924379826,1,0.05256433039903641,1,-0.009721796028316021,1,0.0003247266577091068,1,-0.0002167021448258311,1
02/25/26 21:57:44.714105344,0.01066035404801369,1,0.02030509896576405,1,0.03864963725209236,1,-0.008198193274438381,1,0.0003845126484520733,1,-7.148073927965015e-05,1
02/25/26 21:57:44.724353792,0.009447121992707253,1,0.03466217592358589,1,0.05596661195158958,1,-0.001116316649131477,1,-0.0001801732432795689,1,5.609942672890611e-05,1
02/25/26 21:57:44.734501632,0.009115753695368767,1,0.02121050097048283,1,0.04170745983719826,1,0.002897902857512236,1,-4.954409087076783e-05,1,-2.911051342380233e-05,1
02/25/26 21:57:44.744549632,0.006428034976124763,1,0.01795609667897224,1,0.04261214286088943,1,0.006066700909286737,1,2.715412847464904e-05,1,-6.312588811852038e-05,1
02/25/26 21:57:44.754500864,0.007476085796952248,1,0.01682265475392342,1,0.04440122842788696,1,0.00661511579528451,1,-3.495185228530318e-05,1,-2.51965902862139e-05,1
02/25/26 21:57:44.764353280,0.006168558727949858,1,0.008225400932133198,1,0.03164803609251976,1,0.005209529772400856,1,5.602918827207759e-05,1,-1.664164665271528e-05,1
02/25/26 21:57:44.774111232,0.008475489914417267,1,0.01343313790857792,1,0.03634897619485855,1,0.003225463209673762,1,0.0004240802954882383,1,-9.116030560107902e-05,1
02/25/26 21:57:44.783773440,0.0084570636972785,1,0.01647008210420609,1,0.03859607130289078,1,0.002188034122809768,1,0.0001662241847952828,1,-4.652282950701192e-05,1
02/25/26 21:57:44.793341696,0.00666773458942771,1,0.01773887127637863,1,0.04368788748979568,1,0.001967972610145807,1,-1.410707045579329e-05,1,6.214329187059775e-05,1
02/25/26 21:57:44.802816256,0.009904954582452774,1,0.02357297763228416,1,0.04824155941605568,1,0.002867236966267228,1,-3.379221016075462e-05,1,-3.330842082505114e-05,1
02/25/26 21:57:44.812197376,0.009985983371734619,1,0.02577544003725052,1,0.04809059575200081,1,0.005775706376880407,1,4.2707866668934e-05,1,-0.0001282532466575503,1
02/25/26 21:57:44.821640704,0.008683876134455204,1,0.02502250671386719,1,0.04920085519552231,1,0.008805991150438786,1,-0.0002372066956013441,1,-4.897265171166509e-05,1
02/25/26 21:57:44.832360960,0.006809661630541086,1,0.02603850141167641,1,0.04822845757007599,1,0.0124600175768137,1,-0.0005071748746559024,1,-0.0001060010399669409,1
02/25/26 21:57:44.842977536,0.008200240321457386,1,0.02234548144042492,1,0.04586290195584297,1,0.01541612762957811,1,-0.0006669946014881134,1,3.558236494427547e-05,1
02/25/26 21:57:44.853492480,0.008423511870205402,1,0.01401226967573166,1,0.03812702372670174,1,0.01607702486217022,1,-0.0005292038549669087,1,-8.674109994899482e-05,1
02/25/26 21:57:44.863905536,0.008128421381115913,1,0.005053252913057804,1,0.03129380196332932,1,0.01348299160599709,1,-0.0002198030415456742,1,-0.0001621871342649683,1
02/25/26 21:57:44.874215680,0.009914211928844452,1,-0.001092226011678576,1,0.02926747687160969,1,0.008646216243505478,1,-0.0002840874658431858,1,5.121336653246544e-05,1
02/25/26 21:57:44.884426240,0.008259760215878487,1,-0.001775884651578963,1,0.0294960979372263,1,0.002373082097619772,1,-2.891023177653551e-05,1,-4.933642412652262e-05,1
02/25/26 21:57:44.894536960,0.007180659100413322,1,0.0002635724667925388,1,0.02466770261526108,1,-0.003867351682856679,1,0.000248546275543049,1,-0.0001492018345743418,1
02/25/26 21:57:44.904554240,0.008629320189356804,1,0.003019632073119283,1,0.02898535877466202,1,-0.009313500486314297,1,0.0003453701792750508,1,8.76011181389913e-05,1
02/25/26 21:57:44.914478336,0.00617910735309124,1,0.008101612329483032,1,0.0323333740234375,1,-0.01382654160261154,1,0.0002967370382975787,1,-0.0001274532551178709,1
02/25/26 21:57:44.924305408,0.007916426286101341,1,0.009795628488063812,1,0.03631329908967018,1,-0.01706057600677013,1,0.0004481035284698009,1,1.49281668200274e-05,1
02/25/26 21:57:44.934037504,0.007965225726366043,1,0.01518049091100693,1,0.03328289836645126,1,-0.01859180815517902,1,0.0004329537332523614,1,-0.0002274241705890745,1
02/25/26 21:57:44.943674880,0.00932691153138876,1,0.01788892969489098,1,0.03706466779112816,1,-0.01884904317557812,1,0.0002702748170122504,1,-0.0001467410911573097,1
02/25/26 21:57:44.953217536,0.01023872662335634,1,0.01959212310612202,1,0.04573170468211174,1,-0.01771160215139389,1,0.0005808936548419297,1,-0.0003813426592387259,1
02/25/26 21:57:44.962666496,0.01023291051387787,1,0.0180274173617363,1,0.04667176678776741,1,-0.01653548516333103,1,0.0006261894595809281,1,-0.000136688890052028,1
02/25/26 21:57:44.972025856,0.01201830618083477,1,0.01850858516991138,1,0.05493386834859848,1,-0.01579829305410385,1,0.0005288062384352088,1,-0.0002075759402941912,1
02/25/26 21:57:44.981900800,0.009824695065617561,1,0.01695201545953751,1,0.04167629033327103,1,-0.01551692746579647,1,0.0002592150995042175,1,-0.0001917728950502351,1
02/25/26 21:57:44.992587520,0.009851052425801754,1,0.01538542099297047,1,0.03848657011985779,1,-0.01565958000719547,1,0.0001460813800804317,1,-5.139729910297319e-05,1
02/25/26 21:57:45.003171840,0.009107492864131927,1,0.0120737673714757,1,0.02786801196634769,1,-0.01674301363527775,1,0.0003325417637825012,1,7.343742618104443e-05,1
02/25/26 21:57:45.013652992,0.01014779135584831,1,0.009031301364302635,1,0.03876593708992004,1,-0.01945645734667778,1,0.0003863613237626851,1,-8.937198435887694e-05,1
02/25/26 21:57:45.024031488,0.00812806561589241,1,0.003225547028705478,1,0.01196037605404854,1,-0.02309447154402733,1,0.0005096503300592303,1,-5.249584501143545e-05,1
02/25/26 21:57:45.034309376,0.00707685574889183,1,0.0008257441222667694,1,0.005699521861970425,1,-0.02881918288767338,1,0.0007876909803599119,1,-0.0001899435446830466,1
02/25/26 21:57:45.044487936,0.005886255763471127,1,-0.001425438676960766,1,0.008075068704783916,1,-0.03574778884649277,1,0.0008923269924707711,1,-0.0002179947477998212,1
02/25/26 21:57:45.054575616,0.003660902148112655,1,-0.005100362468510866,1,0.008848018944263458,1,-0.04325279220938683,1,0.001009885920211673,1,-4.295316466595978e-05,1
02/25/26 21:57:45.064569344,0.003357418579980731,1,-0.002451350912451744,1,0.01177672296762466,1,-0.05137434601783752,1,0.001110714976675808,1,0.0002496284723747522,1
02/25/26 21:57:45.074465792,0.003253788920119405,1,0.0005029581370763481,1,0.006468885112553835,1,-0.05863941833376884,1,0.001686075702309608,1,0.0001905487442854792,1
02/25/26 21:57:45.084265728,0.004734540823847055,1,0.00384789751842618,1,0.008004415780305862,1,-0.06424423307180405,1,0.002078412566334009,1,0.0001873983419500291,1
02/25/26 21:57:45.093970176,0.006943142041563988,1,0.01332319062203169,1,0.01352200098335743,1,-0.06787187606096268,1,0.002236718777567148,1,-0.000253696518484503,1
02/25/26 21:57:45.103579904,0.008429929614067078,1,0.02479729242622852,1,0.01805849187076092,1,-0.06837476789951324,1,0.002393285278230906,1,-7.66802768339403e-05,1
02/25/26 21:57:45.113096448,0.01033843215554953,1,0.02999233640730381,1,0.01381443440914154,1,-0.06662018597126007,1,0.002438368741422892,1,-2.874508390959818e-05,1
02/25/26 21:57:45.122521088,0.008716322481632233,1,0.02946614287793636,1,-0.002468904014676809,1,-0.06318462640047073,1,0.002512532519176602,1,-0.0001136841310653836,1
02/25/26 21:57:45.131854336,0.008429302833974361,1,0.02176417037844658,1,0.001587464241310954,1,-0.06240281090140343,1,0.002055344870314002,1,-0.0002248443779535592,1
02/25/26 21:57:45.142159872,0.01011452451348305,1,0.007223270833492279,1,0.006558036431670189,1,-0.06380819529294968,1,0.001943847397342324,1,-7.342814933508635e-05,1
02/25/26 21:57:45.152820480,0.009643490426242352,1,-0.01556609943509102,1,0.01811911910772324,1,-0.0706295445561409,1,0.002168421167880297,1,1.269329732167535e-05,1
02/25/26 21:57:45.163376896,0.01390606351196766,1,0.1516451090574265,1,0.2035114467144012,1,-0.05120750889182091,1,0.001695627579465508,1,-0.0001659004046814516,1
02/25/26 21:57:45.173829888,0.0111490935087204,1,0.05554821342229843,1,0.1239526718854904,1,-0.01248191483318806,1,0.0005105490563437343,1,-0.0001758488942869008,1
02/25/26 21:57:45.184185088,0.009863388724625111,1,0.02009106427431107,1,0.07596477866172791,1,-0.007718605455011129,1,9.77338058874011e-05,1,-5.473612691275775e-05,1
02/25/26 21:57:45.194442240,0.006234132684767246,1,0.02489190548658371,1,0.1060418114066124,1,-0.004596224520355463,1,0.0002362739178352058,1,-0.0001689425262156874,1
02/25/26 21:57:45.204599808,0.005353113636374474,1,0.01710175536572933,1,0.08033470809459686,1,-0.0008937967359088361,1,0.0002425485290586948,1,-3.378126712050289e-05,1
02/25/26 21:57:45.214659072,0.006191076245158911,1,0.01761703193187714,1,0.06556933373212814,1,-0.000449715880677104,1,8.773852459853515e-05,1,-0.0001415355509379879,1
02/25/26 21:57:45.224620800,0.009037350304424763,1,0.02223623171448708,1,0.04340878129005432,1,0.0003570432018022984,1,-0.0001117252686526626,1,-0.000104713071777951,1
02/25/26 21:57:45.234484736,0.01073778327554464,1,0.02003700472414494,1,0.04383356124162674,1,0.001570981228724122,1,-0.000100013094197493,1,-0.0002986944164149463,1
02/25/26 21:57:45.244252672,0.01121299713850021,1,0.01394104026257992,1,0.04689489677548409,1,0.002435308415442705,1,-0.0002021202526520938,1,-0.0002223314513685182,1
02/25/26 21:57:45.253926656,0.01441987976431847,1,0.06807976961135864,1,0.08951159566640854,1,0.009654185734689236,1,-0.0003325483412481844,1,-0.0002404796832706779,1
02/25/26 21:57:45.263506176,0.01218251138925552,1,0.1025584936141968,1,0.1197672113776207,1,0.03294070810079575,1,-0.001358642010018229,1,-0.0001193268471979536,1
02/25/26 21:57:45.272992768,0.01092350482940674,1,0.1154172718524933,1,0.1318555325269699,1,0.06635450571775436,1,-0.002291941316798329,1,-0.0002504257427062839,1
02/25/26 21:57:45.282385408,0.01043104100972414,1,0.1110937520861626,1,0.1330758035182953,1,0.1008283123373985,1,-0.003278822638094425,1,1.641225753701292e-05,1
02/25/26 21:57:45.291686912,0.01116552855819464,1,0.1011247858405113,1,0.1226631850004196,1,0.1315621137619019,1,-0.004299901891499758,1,-9.116654837271199e-05,1
02/25/26 21:57:45.302435328,0.01431622263044119,1,0.08014643937349319,1,0.09955265372991562,1,0.157308429479599,1,-0.004576122388243675,1,-9.568590030539781e-05,1
02/25/26 21:57:45.313079808,0.01114254351705313,1,0.04476075991988182,1,0.06520012766122818,1,0.1737395077943802,1,-0.005337285809218884,1,-0.0002863458357751369,1
02/25/26 21:57:45.323620608,0.01095613464713097,1,0.004555026069283485,1,0.02706976421177387,1,0.1764999479055405,1,-0.005898267962038517,1,-0.0002913431380875409,1
02/25/26 21:57:45.334060800,0.007234950549900532,1,-0.03163406997919083,1,-0.005178932100534439,1,0.1642473489046097,1,-0.005390551406890154,1,-0.0003862194716930389,1
02/25/26 21:57:45.344400640,0.006247025914490223,1,-0.05312343686819077,1,-0.03613313287496567,1,0.1413812190294266,1,-0.004478142131119967,1,-0.0004016344901174307,1
02/25/26 21:57:45.354637824,0.004245504271239042,1,-0.06625062972307205,1,-0.05175520479679108,1,0.1117104142904282,1,-0.003477168269455433,1,-0.0003389580815564841,1
02/25/26 21:57:45.364776960,0.004058870486915112,1,-0.07090194523334503,1,-0.05192598700523376,1,0.07855081558227539,1,-0.002273247577250004,1,-0.0002789170539472252,1
02/25/26 21:57:45.374815232,0.005693951621651649,1,-0.06332370638847351,1,-0.04687522351741791,1,0.04579060152173042,1,-0.001669757184572518,1,-0.0002665580250322819,1
02/25/26 21:57:45.384756224,0.007035231683403254,1,-0.04745801538228989,1,-0.03374504670500755,1,0.01686189696192741,1,-0.0006624701200053096,1,-4.102455568499863e-05,1
02/25/26 21:57:45.394601728,0.008312677033245564,1,-0.02959397621452808,1,-0.01472505740821362,1,-0.005290360189974308,1,9.788316674530506e-05,1,-0.0001471746945753694,1
02/25/26 21:57:45.404351488,0.01072645373642445,1,-0.0113337766379118,1,0.006965899839997292,1,-0.02018350921571255,1,0.0007706928881816566,1,-3.993411155533977e-05,1
02/25/26 21:57:45.414015488,0.01138556934893131,1,0.002694103866815567,1,0.02687230333685875,1,-0.02922723814845085,1,0.0008277158485725522,1,-0.0003299251839052886,1
02/25/26 21:57:45.423586816,0.01274400111287832,1,0.009008224122226238,1,0.03161035105586052,1,-0.03471526876091957,1,0.0009055472910404205,1,-8.695703581906855e-05,1
02/25/26 21:57:45.433065216,0.009670671075582504,1,0.008649688214063644,1,0.02560543827712536,1,-0.03882413730025291,1,0.001044810516759753,1,-8.553093357477337e-05,1
02/25/26 21:57:45.442450688,0.01026497781276703,1,0.005935697350651026,1,0.01949112676084042,1,-0.044207863509655,1,0.001333995605818927,1,2.016779035329819e-06,1
02/25/26 21:57:45.451896320,0.009159797802567482,1,-0.002882841974496841,1,0.01944933831691742,1,-0.05114211142063141,1,0.001466781948693097,1,-4.699665078078397e-05,1
02/25/26 21:57:45.462612480,0.01051721815019846,1,-0.007101307157427073,1,0.01715474762022495,1,-0.05995037406682968,1,0.0017935048090294,1,-6.371510971803218e-05,1
02/25/26 21:57:45.473224704,0.01167931500822306,1,-0.007220620755106211,1,0.01626310683786869,1,-0.06878688186407089,1,0.001906984485685825,1,-0.0003021295706275851,1
02/25/26 21:57:45.483733248,0.01306010130792856,1,-0.007968251593410969,1,0.0141168013215065,1,-0.07708501815795898,1,0.002086557913571596,1,-6.409984780475497e-05,1
02/25/26 21:57:45.494144256,0.01279998198151588,1,-0.002997387433424592,1,0.02092412672936916,1,-0.08435174077749252,1,0.002638003323227167,1,-6.71797024551779e-05,1
02/25/26 21:57:45.504454144,0.01143503375351429,1,0.001185825560241938,1,0.02803767472505569,1,-0.09058086574077606,1,0.002853670623153448,1,0.0002658573212102056,1
02/25/26 21:57:45.514663424,0.007344360463321209,1,0.004774368833750486,1,0.02933899313211441,1,-0.09545785933732986,1,0.002705768449231982,1,0.0002740876225288957,1
02/25/26 21:57:45.524773888,0.004708732478320599,1,0.009710291400551796,1,0.03566836193203926,1,-0.09783269464969635,1,0.003031754400581121,1,0.0003164905356243253,1
02/25/26 21:57:45.534785792,0.006038065999746323,1,0.01406899653375149,1,0.04006925597786903,1,-0.09897179156541824,1,0.00283417827449739,1,0.0002179264702135697,1
02/25/26 21:57:45.544700160,0.007945338264107704,1,0.01794695854187012,1,0.04174631461501122,1,-0.09884271770715714,1,0.002895409241318703,1,0.0003078636655118316,1
02/25/26 21:57:45.554518016,0.008667261339724064,1,0.01534267421811819,1,0.03945956379175186,1,-0.09856276214122772,1,0.002832218771800399,1,7.730413199169561e-05,1
02/25/26 21:57:45.564241152,0.009346440434455872,1,0.01121505722403526,1,0.03192074224352837,1,-0.09941670298576355,1,0.003108374541625381,1,4.416011506691575e-06,1
02/25/26 21:57:45.573868800,0.008088905364274979,1,0.0005636070854961872,1,0.0260739978402853,1,-0.1022631973028183,1,0.003313658991828561,1,3.563556310837157e-05,1
02/25/26 21:57:45.583401984,0.01528278924524784,1,0.1763623952865601,1,0.1950494945049286,1,-0.08265018463134766,1,0.002447552978992462,1,-9.434279490960762e-05,1
02/25/26 21:57:45.592841472,0.009617912583053112,1,0.08779647946357727,1,0.1118213534355164,1,-0.02778813987970352,1,0.0006295114289969206,1,-2.760771531029604e-05,1
02/25/26 21:57:45.602189312,0.008095751516520977,1,0.03100087121129036,1,0.04813183471560478,1,-0.01588854193687439,1,0.0001767745125107467,1,-3.49882866430562e-05,1
02/25/26 21:57:45.612056832,0.004998313263058662,1,0.02923966944217682,1,0.05310571566224098,1,-0.01284515950828791,1,7.880797784309834e-05,1,-0.0001325296325376257,1
02/25/26 21:57:45.622742016,0.004894510377198458,1,0.02434803918004036,1,0.04912564158439636,1,-0.007804124150425196,1,-0.0001254377712029964,1,-0.0002498461108189076,1
02/25/26 21:57:45.633322752,0.01478524226695299,1,0.03379405289888382,1,0.02417284809052944,1,-0.007223763037472963,1,-1.131006138166413e-05,1,-0.0001879740448202938,1
02/25/26 21:57:45.643800064,0.01443764194846153,1,-0.05139961838722229,1,-0.01297245174646378,1,-0.01931539736688137,1,0.0008363332599401474,1,-0.0007931676227599382,1
02/25/26 21:57:45.654180096,0.01183706149458885,1,0.07468409836292267,1,0.1488971263170242,1,-0.02148083783686161,1,0.0008248789235949516,1,-0.0005840039812028408,1
02/25/26 21:57:45.664458496,-0.003400355577468872,1,0.01438373606652021,1,0.03892935812473297,1,-0.0008155761752277613,1,-0.0002727664832491428,1,-0.0004818434827029705,1
02/25/26 21:57:45.674637056,0.002149527659639716,1,0.004670985974371433,1,0.01361845713108778,1,-0.0173325352370739,1,0.0003096296277362853,1,-0.0003376760869286954,1
02/25/26 21:57:45.684717312,0.001392521313391626,1,0.04575706273317337,1,0.05543819442391396,1,-0.01550254318863153,1,0.0006318297237157822,1,-0.0002945081796497107,1
02/25/26 21:57:45.694699520,0.007215299643576145,1,0.02383227832615376,1,0.07933282852172852,1,-0.01057327724993229,1,0.000523288850672543,1,-0.0006436537369154394,1
02/25/26 21:57:45.704582912,0.003270477522164583,1,0.03497191518545151,1,0.04951715096831322,1,-0.006934132426977158,1,0.000358080433215946,1,-0.0002267403324367478,1
02/25/26 21:57:45.714371840,0.007451452314853668,1,0.01085096597671509,1,0.03672517091035843,1,-0.002725620055571198,1,0.0005020513781346381,1,-0.0002857515355572104,1
02/25/26 21:57:45.724064768,0.01517760567367077,1,0.04461504146456718,1,0.06882735341787338,1,0.0008519167313352227,1,0.0002391106390859932,1,-0.000327161222230643,1
02/25/26 21:57:45.733663488,0.01386244781315327,1,0.01809733733534813,1,0.03508303314447403,1,0.0009724773117341101,1,-6.204350211191922e-05,1,-0.0001955826592165977,1
02/25/26 21:57:45.743167744,0.009076333604753017,1,0.001080156769603491,1,0.02204175852239132,1,-0.001703860471025109,1,-9.509632218396291e-05,1,-7.172394543886185e-05,1
02/25/26 21:57:45.752578816,0.01152553036808968,1,0.02628056704998016,1,0.0472843274474144,1,-0.001032020547427237,1,-0.0001134742051362991,1,0.0002451438631396741,1
02/25/26 21:57:45.761898240,0.007833682931959629,1,0.01534576155245304,1,0.03924233466386795,1,-0.0008903329144231975,1,-0.0002969486813526601,1,0.000118085095891729,1
02/25/26 21:57:45.772199424,-0.1599162667989731,1,-0.2595117688179016,1,0.1098809987306595,1,0.007659775670617819,1,-0.002290236763656139,1,0.03893250972032547,1
02/25/26 21:57:45.782857984,-0.3321191966533661,1,-0.4557377696037292,1,0.5631510615348816,1,0.1328277736902237,1,-0.02782107330858707,1,0.4776425957679749,1
02/25/26 21:57:45.793412608,-0.4126485586166382,1,-0.7478320002555847,1,0.7178674340248108,1,0.3888747692108154,1,-0.05511521548032761,1,0.9622258543968201,1
02/25/26 21:57:45.803863040,-0.4541264176368713,1,-0.8273774385452271,1,0.7026885151863098,1,0.6691430807113647,1,-0.07725190371274948,1,1.425782442092896,1
02/25/26 21:57:45.814214912,-0.30133455991745,1,-0.730954647064209,1,0.3444508910179138,1,0.9150490760803223,1,-0.07811887562274933,1,1.690299510955811,1
02/25/26 21:57:45.824467200,0.2745539844036102,1,-0.7758861780166626,1,0.2131523638963699,1,1.047102212905884,1,-0.06680877506732941,1,1.668419122695923,1
02/25/26 21:57:45.834619392,0.7932895421981812,1,-1.761672854423523,1,-1.940385699272156,1,1.07886278629303,1,-0.08199883252382278,1,1.580987095832825,1
02/25/26 21:57:45.844673536,1.098258495330811,1,-2.505078554153442,1,-1.006701707839966,1,0.7044659852981567,1,-0.09500115364789963,1,1.6109699010849,1
02/25/26 21:57:45.854629120,1.706614851951599,1,-2.428839445114136,1,-0.6099355220794678,1,0.4047372043132782,1,-0.04684882238507271,1,1.717117547988892,1
02/25/26 21:57:45.864487936,1.861257791519165,1,-1.678686618804932,1,-0.5829818248748779,1,0.3642580211162567,1,-0.01828080043196678,1,1.710589647293091,1
02/25/26 21:57:45.874249472,1.861898064613342,1,-0.6215468645095825,1,-0.8230699300765991,1,0.483962744474411,1,-0.007120179012417793,1,1.602103352546692,1
02/25/26 21:57:45.883918080,1.878350973129272,1,0.06074874848127365,1,-1.429427981376648,1,0.8117602467536926,1,0.0005351856234483421,1,1.428853154182434,1
02/25/26 21:57:45.893491200,1.916005373001099,1,-0.03663722798228264,1,-2.088737010955811,1,1.335906267166138,1,-0.0436389148235321,1,1.233029961585999,1
02/25/26 21:57:45.902970624,2.321735620498657,1,-1.069690942764282,1,-2.489689588546753,1,1.909750699996948,1,-0.2200817763805389,1,1.073025822639465,1
02/25/26 21:57:45.912357888,2.805241584777832,1,-2.203852653503418,1,-2.74560022354126,1,2.320047378540039,1,-0.6501728892326355,1,1.007015347480774,1
02/25/26 21:57:45.921653760,2.886125326156616,1,-2.957015752792358,1,-2.584898948669434,1,2.442057847976685,1,-1.300657510757446,1,0.9490064978599548,1
02/25/26 21:57:45.932402176,2.675651788711548,1,-2.829741716384888,1,-1.507785081863403,1,2.296956062316895,1,-1.747531294822693,1,0.8400408625602722,1
02/25/26 21:57:45.943046656,2.831711769104004,1,-1.98105263710022,1,-1.097779154777527,1,1.97680938243866,1,-2.128208160400391,1,0.6746659278869629,1
02/25/26 21:57:45.953587456,2.760662078857422,1,-1.231562852859497,1,-1.046779632568359,1,1.571882724761963,1,-2.514881610870361,1,0.4707242548465729,1
02/25/26 21:57:45.964025856,2.204619884490967,1,-0.839522123336792,1,-0.7408896684646606,1,1.08936882019043,1,-2.882012844085693,1,0.2145092487335205,1
02/25/26 21:57:45.974369280,1.483943104743958,1,-1.326894164085388,1,-0.4159007668495178,1,0.7217737436294556,1,-3.186349868774414,1,0.08252979815006256,1
02/25/26 21:57:45.984612608,0.947216272354126,1,-2.258847713470459,1,-0.3821200728416443,1,0.3972384333610535,1,-3.302959680557251,1,0.1670394986867905,1
02/25/26 21:57:45.994755328,0.9960610866546631,1,-2.482857227325439,1,-0.6359835267066956,1,0.06900010257959366,1,-3.254000186920166,1,0.3707753717899323,1
02/25/26 21:57:46.004798720,1.60356080532074,1,-2.655735492706299,1,-1.144424557685852,1,-0.1711579561233521,1,-3.201479911804199,1,0.5117838382720947,1
02/25/26 21:57:46.014744832,2.263289451599121,1,-2.51874041557312,1,-1.774259448051453,1,-0.3358119428157806,1,-3.237220287322998,1,0.5034874081611633,1
02/25/26 21:57:46.024593920,2.567190408706665,1,-2.15484356880188,1,-2.319863080978394,1,-0.4940138757228851,1,-3.272868394851685,1,0.422037661075592,1
02/25/26 21:57:46.034347264,2.347347021102905,1,-1.889953374862671,1,-2.506448268890381,1,-0.7153096199035645,1,-3.096372127532959,1,0.3119832873344421,1
02/25/26 21:57:46.044006400,1.868321895599365,1,-1.775270581245422,1,-2.246378898620605,1,-0.9764723777770996,1,-2.521921873092651,1,0.1838286966085434,1
02/25/26 21:57:46.053570560,1.542531728744507,1,-1.786923766136169,1,-1.824766755104065,1,-1.166312575340271,1,-1.554822325706482,1,0.0484023317694664,1
02/25/26 21:57:46.063041536,1.638146042823792,1,-1.709896445274353,1,-1.5259929895401,1,-1.261484742164612,1,-0.3627278804779053,1,-0.08494482934474945,1
02/25/26 21:57:46.072420096,2.104562759399414,1,-1.40281879901886,1,-1.428978323936462,1,-1.278575539588928,1,0.8320198655128479,1,-0.2712016999721527,1
02/25/26 21:57:46.081859072,2.684332370758057,1,-1.002859592437744,1,-1.447668552398682,1,-1.249057054519653,1,1.854512572288513,1,-0.5242447257041931,1
02/25/26 21:57:46.092574464,3.315536975860596,1,-0.9706493616104126,1,-1.575211405754089,1,-1.182495474815369,1,2.596086502075195,1,-0.8073475956916809,1
02/25/26 21:57:46.103186176,3.856267929077148,1,-1.521921277046204,1,-1.78591513633728,1,-1.133898138999939,1,3.011752367019653,1,-1.041074156761169,1
02/25/26 21:57:46.113695232,4.300697326660156,1,-1.288112640380859,1,-1.94969379901886,1,-1.124719858169556,1,3.131184339523315,1,-1.222169518470764,1
02/25/26 21:57:46.124102144,4.598108291625977,1,-0.6324581503868103,1,-2.067776441574097,1,-1.099912047386169,1,2.988307476043701,1,-1.416092395782471,1
02/25/26 21:57:46.134408704,4.634579658508301,1,-0.4359261691570282,1,-2.126265525817871,1,-1.060437560081482,1,2.662096977233887,1,-1.604883670806885,1
02/25/26 21:57:46.144615424,4.470901012420654,1,-0.5102708339691162,1,-2.126944065093994,1,-1.028042674064636,1,2.262070655822754,1,-1.735894560813904,1
02/25/26 21:57:46.154722304,4.332191944122314,1,-0.4860787391662598,1,-2.11174201965332,1,-1.001323580741882,1,1.846116900444031,1,-1.796948552131653,1
02/25/26 21:57:46.164733440,3.999907732009888,1,-0.4974174201488495,1,-1.961620807647705,1,-0.9597776532173157,1,1.514951467514038,1,-1.843854188919067,1
02/25/26 21:57:46.174646784,3.657891750335693,1,-0.6723729372024536,1,-1.802127599716187,1,-0.9376336336135864,1,1.412726044654846,1,-1.885302543640137,1
02/25/26 21:57:46.184463360,3.496429443359375,1,-0.8486475348472595,1,-1.703885197639465,1,-0.9789456725120544,1,1.516723394393921,1,-1.975781321525574,1
02/25/26 21:57:46.194185472,3.478047847747803,1,-0.7858057618141174,1,-1.601085186004639,1,-1.082757830619812,1,1.710491895675659,1,-2.114656448364258,1
02/25/26 21:57:46.203812352,3.40006685256958,1,-0.8551816344261169,1,-1.391875743865967,1,-1.205586791038513,1,1.88933265209198,1,-2.268250703811646,1
02/25/26 21:57:46.213346048,3.165246248245239,1,-1.139355897903442,1,-1.064955234527588,1,-1.340886235237122,1,2.001844882965088,1,-2.397013187408447,1
02/25/26 21:57:46.222791168,2.844221591949463,1,-1.103317856788635,1,-0.5765181183815002,1,-1.484699487686157,1,2.02305006980896,1,-2.492791891098022,1
02/25/26 21:57:46.232144896,2.655488967895508,1,-1.235177159309387,1,0.03108341246843338,1,-1.580065608024597,1,1.925850749015808,1,-2.537139892578125,1
02/25/26 21:57:46.242017024,2.584210157394409,1,-1.430889248847961,1,0.6733527779579163,1,-1.591095685958862,1,1.697742462158203,1,-2.550552368164062,1
02/25/26 21:57:46.252702464,2.504934549331665,1,-1.501157522201538,1,1.285481095314026,1,-1.544880151748657,1,1.379666209220886,1,-2.577421426773071,1
02/25/26 21:57:46.263282432,2.333919048309326,1,-1.510413885116577,1,1.907835602760315,1,-1.506646156311035,1,1.041131615638733,1,-2.6364586353302,1
02/25/26 21:57:46.273759744,2.101499319076538,1,-1.499205589294434,1,2.562993049621582,1,-1.486652493476868,1,0.7352685332298279,1,-2.723985433578491,1
02/25/26 21:57:46.284138752,1.830636858940125,1,-1.503158450126648,1,3.22480297088623,1,-1.47015392780304,1,0.4671162962913513,1,-2.833384275436401,1
02/25/26 21:57:46.294419712,1.479514598846436,1,-1.465526103973389,1,4.022886276245117,1,-1.477434277534485,1,0.2423873245716095,1,-2.965843439102173,1
02/25/26 21:57:46.304600832,0.9730224609375,1,-1.463177680969238,1,5.017504692077637,1,-1.50042712688446,1,0.08131773769855499,1,-3.126577377319336,1
02/25/26 21:57:46.314681344,0.2708434760570526,1,-1.512255549430847,1,6.208920955657959,1,-1.524443626403809,1,-0.001910808961838484,1,-3.309050321578979,1
02/25/26 21:57:46.324664576,-0.5335677266120911,1,-1.64489758014679,1,7.469268798828125,1,-1.503146290779114,1,-0.006206918507814407,1,-3.474086999893188,1
02/25/26 21:57:46.334549248,-1.144870638847351,1,-1.553081035614014,1,8.539811134338379,1,-1.220813155174255,1,0.07796414196491241,1,-3.585414886474609,1
02/25/26 21:57:46.344337920,-1.93806529045105,1,-1.384684085845947,1,9.277477264404297,1,-0.6188527345657349,1,0.1643875688314438,1,-3.687046766281128,1
02/25/26 21:57:46.354033152,-3.080199956893921,1,-1.486452102661133,1,9.563464164733887,1,0.1284101009368896,1,0.3098306655883789,1,-3.734508991241455,1
02/25/26 21:57:46.363633152,-4.409698486328125,1,-1.645617485046387,1,9.398772239685059,1,0.8846290111541748,1,0.5533877015113831,1,-3.663305282592773,1
02/25/26 21:57:46.373139456,-5.626944541931152,1,-1.353683114051819,1,8.745878219604492,1,1.600358724594116,1,0.8872674703598022,1,-3.46418833732605,1
02/25/26 21:57:46.382553856,-6.49582576751709,1,-1.193300843238831,1,7.728005886077881,1,2.252133846282959,1,1.244487643241882,1,-3.154321908950806,1
02/25/26 21:57:46.391876096,-7.102474212646484,1,-1.428247094154358,1,6.378162384033203,1,2.709282636642456,1,1.57194721698761,1,-2.754744529724121,1
02/25/26 21:57:46.402178560,-7.519176959991455,1,-1.432217478752136,1,4.824463367462158,1,2.800825119018555,1,1.89890444278717,1,-2.232486963272095,1
02/25/26 21:57:46.412837376,-7.443966865539551,1,-1.389228463172913,1,3.333848714828491,1,2.719435691833496,1,2.153207540512085,1,-1.753826856613159,1
02/25/26 21:57:46.423393280,-6.960439682006836,1,-1.164557218551636,1,1.970805883407593,1,2.547181129455566,1,2.248697996139526,1,-1.355260848999023,1
02/25/26 21:57:46.433846784,-6.225170135498047,1,-1.21783459186554,1,0.8228626847267151,1,2.32198166847229,1,2.124772548675537,1,-0.9805517196655273,1
02/25/26 21:57:46.444198912,-5.453032493591309,1,-1.348438143730164,1,-0.03461888432502747,1,2.107659816741943,1,1.791745066642761,1,-0.6933571100234985,1
02/25/26 21:57:46.454449664,-4.972891330718994,1,-1.528108716011047,1,-0.8702740073204041,1,2.041423082351685,1,1.316331267356873,1,-0.5463485717773438,1
02/25/26 21:57:46.464601344,-4.965179443359375,1,-1.972610354423523,1,-1.886995077133179,1,2.005384922027588,1,0.8260687589645386,1,-0.4547328650951385,1
02/25/26 21:57:46.474659328,-5.262577533721924,1,-2.181408882141113,1,-2.972666263580322,1,1.834560632705688,1,0.4465838670730591,1,-0.3643932640552521,1
02/25/26 21:57:46.484620544,-5.59374475479126,1,-2.344139814376831,1,-3.930144786834717,1,1.543565154075623,1,0.2159220576286316,1,-0.2690159976482391,1
02/25/26 21:57:46.494484992,-5.859580993652344,1,-2.298200130462646,1,-4.61946964263916,1,1.1615229845047,1,0.1020169481635094,1,-0.1710896641016006,1
02/25/26 21:57:46.504254208,-5.970072269439697,1,-2.168085098266602,1,-4.93381404876709,1,0.7416009902954102,1,0.03665956109762192,1,-0.03343725949525833,1
02/25/26 21:57:46.513927936,-5.898882865905762,1,-1.915419459342957,1,-4.802914142608643,1,0.3447606861591339,1,-0.04087473824620247,1,0.1766750812530518,1
02/25/26 21:57:46.523507968,-5.682211875915527,1,-1.660731077194214,1,-4.255653381347656,1,0.006545288488268852,1,-0.150179848074913,1,0.4439700543880463,1
02/25/26 21:57:46.532995584,-5.378390312194824,1,-1.449155211448669,1,-3.420488595962524,1,-0.2163028419017792,1,-0.2621346116065979,1,0.7556435465812683,1
02/25/26 21:57:46.542392320,-4.934948444366455,1,-1.276985049247742,1,-2.517175674438477,1,-0.3098374307155609,1,-0.3049040734767914,1,1.101492047309875,1
02/25/26 21:57:46.551696640,-4.543766975402832,1,-1.06786322593689,1,-1.81239926815033,1,-0.2777355909347534,1,-0.2211024314165115,1,1.381400227546692,1
02/25/26 21:57:46.562222336,-4.157917022705078,1,-1.084268808364868,1,-1.337433338165283,1,-0.233405128121376,1,0.03896844759583473,1,1.613844752311707,1
02/25/26 21:57:46.572646656,-3.599905014038086,1,-0.9675753116607666,1,-0.9690165519714355,1,-0.2415325790643692,1,0.4512540102005005,1,1.802028298377991,1
02/25/26 21:57:46.582969856,-2.711774110794067,1,-0.8526006937026978,1,-0.6385104656219482,1,-0.2615419328212738,1,0.8949015140533447,1,1.938462376594543,1
02/25/26 21:57:46.593191424,-1.653281807899475,1,-0.7135743498802185,1,-0.3142274618148804,1,-0.2698231935501099,1,1.247541308403015,1,1.982182860374451,1
02/25/26 21:57:46.603321600,-0.737358033657074,1,-0.5366218686103821,1,0.04510210081934929,1,-0.2174414843320847,1,1.45001208782196,1,1.89712381362915,1
02/25/26 21:57:46.613352704,-0.02224371582269669,1,-0.470071405172348,1,0.2844130098819733,1,-0.1201486140489578,1,1.512290120124817,1,1.720622301101685,1
02/25/26 21:57:46.623286528,0.4191990494728088,1,-0.2656895518302917,1,0.3612039089202881,1,-0.02785472571849823,1,1.418294548988342,1,1.452717304229736,1
02/25/26 21:57:46.633124608,0.4532540440559387,1,-0.1173750758171082,1,0.3239802122116089,1,0.05653496086597443,1,1.171770811080933,1,1.131213188171387,1
02/25/26 21:57:46.642866176,4.480499744415283,1,-2.449314117431641,1,-4.410699367523193,1,-0.2079641222953796,1,0.3228587806224823,1,0.8488310575485229,1
02/25/26 21:57:46.652511232,0.4445244669914246,1,-0.2769417762756348,1,-1.023372888565063,1,-0.4122723937034607,1,-2.076265573501587,1,0.5747219324111938,1
02/25/26 21:57:46.662063616,-1.554075360298157,1,-0.7028371095657349,1,0.9958865642547607,1,-0.4764991998672485,1,-3.074431419372559,1,0.4896645545959473,1
02/25/26 21:57:46.671523584,-2.412883043289185,1,-0.7426820993423462,1,2.071135282516479,1,-0.3496561646461487,1,-2.955070018768311,1,0.5900727510452271,1
02/25/26 21:57:46.680890368,-1.214740872383118,1,0.03232015669345856,1,-0.4543226659297943,1,-0.4134708642959595,1,-2.918712854385376,1,0.6569644212722778,1
02/25/26 21:57:46.690542336,-1.604470372200012,1,-1.618505954742432,1,-3.368807315826416,1,-0.5848088264465332,1,-3.242452144622803,1,0.5640460848808289,1
02/25/26 21:57:46.701106432,-0.7993574142456055,1,0.6424128413200378,1,-1.837268233299255,1,-1.040554165840149,1,-1.667402267456055,1,0.3475192487239838,1
02/25/26 21:57:46.711710464,-1.051902174949646,1,0.1294349730014801,1,-1.317347407341003,1,-1.148626565933228,1,-0.8970454931259155,1,0.1431854218244553,1
02/25/26 21:57:46.722211840,-0.6956114172935486,1,-0.06075993925333023,1,-0.8514001965522766,1,-1.130143165588379,1,-0.4871128499507904,1,0.0391986146569252,1
02/25/26 21:57:46.732610560,-0.5769461393356323,1,-0.201418861746788,1,-0.442185640335083,1,-1.098773002624512,1,-0.2575116753578186,1,-0.1206676885485649,1
02/25/26 21:57:46.742908672,-0.5096790194511414,1,-0.269672691822052,1,-0.1415440738201141,1,-1.112462520599365,1,-0.1303088217973709,1,-0.2448094338178635,1
02/25/26 21:57:46.753105920,-0.3357361555099487,1,-0.2345006018877029,1,-0.2646543383598328,1,-1.146803379058838,1,-0.06524985283613205,1,-0.3302519619464874,1
02/25/26 21:57:46.763202560,-0.1062977313995361,1,-0.02165703848004341,1,-1.271532297134399,1,-1.024965047836304,1,0.01715267822146416,1,-0.3406989574432373,1
02/25/26 21:57:46.773200896,0.01268498599529266,1,0.1933185309171677,1,-0.732736349105835,1,-0.6092785596847534,1,0.03361678123474121,1,-0.2933788597583771,1
02/25/26 21:57:46.783100160,0.03193545341491699,1,0.2375358641147614,1,-0.3919074237346649,1,-0.3299187421798706,1,0.01732700318098068,1,-0.2920511662960052,1
02/25/26 21:57:46.792904704,0.09707234799861908,1,0.2209812104701996,1,-0.1927121430635452,1,-0.142204076051712,1,-0.009446990676224232,1,-0.2846428453922272,1
02/25/26 21:57:46.802612736,0.2107324004173279,1,-0.2694542407989502,1,-0.06521506607532501,1,-0.09142335504293442,1,0.0005027633160352707,1,-0.2965793311595917,1
02/25/26 21:57:46.812229632,0.4520550966262817,1,-0.8292888998985291,1,0.02333213947713375,1,-0.08221717923879623,1,0.01654149033129215,1,-0.263706773519516,1
02/25/26 21:57:46.821760512,0.6513574123382568,1,-1.379748702049255,1,0.004694567061960697,1,-0.04724510386586189,1,0.009919725358486176,1,-0.1818089634180069,1
02/25/26 21:57:46.831198208,0.9952449202537537,1,-1.50770890712738,1,0.01537109911441803,1,-0.02887596376240253,1,0.00607495428994298,1,-0.08768291771411896,1
02/25/26 21:57:46.840542976,1.325970768928528,1,-0.9381258487701416,1,0.02426890097558498,1,-0.01853702403604984,1,0.003491848474368453,1,-0.02782460488379002,1
02/25/26 21:57:46.850711808,0.7473963499069214,1,-0.4991590976715088,1,-0.009192719124257565,1,-0.01927994005382061,1,0.001776583143509924,1,-0.01444794796407223,1
02/25/26 21:57:46.861387776,0.4049754440784454,1,-0.2925742864608765,1,-0.03368449956178665,1,-0.03719640895724297,1,0.001404818962328136,1,-0.007929479703307152,1
02/25/26 21:57:46.871960832,0.2199414819478989,1,-0.1273470520973206,1,0.01133518479764462,1,-0.06038512662053108,1,0.001463575288653374,1,-0.004338443744927645,1
02/25/26 21:57:46.882430464,0.1137927994132042,1,-0.03550707921385765,1,0.02196993306279182,1,-0.07475512474775314,1,0.001850819448009133,1,-0.00220655114389956,1
02/25/26 21:57:46.892797696,0.05698445066809654,1,0.03143002465367317,1,0.04377831146121025,1,-0.07923127710819244,1,0.002242711605504155,1,-0.001410844270139933,1
02/25/26 21:57:46.903064576,0.0289032980799675,1,0.07758946716785431,1,0.05940484628081322,1,-0.07151670008897781,1,0.001701721223071218,1,-0.001157993567176163,1
02/25/26 21:57:46.913238784,0.01423061080276966,1,0.09740540385246277,1,0.07158888131380081,1,-0.05835971608757973,1,0.001286228420212865,1,-0.0005835316842421889,1
02/25/26 21:57:46.923315200,0.009340353310108185,1,0.1215441897511482,1,0.084747314453125,1,-0.04052282497286797,1,0.0007010184344835579,1,-0.0001878265757113695,1
02/25/26 21:57:46.933292800,0.003592406632378697,1,0.1070308312773705,1,0.06918449699878693,1,-0.02180199138820171,1,0.0007304571918211877,1,-0.0003242619568482041,1
02/25/26 21:57:46.943174144,-0.0004954455071128905,1,0.08526960015296936,1,0.04724529013037682,1,-0.01410155929625034,1,0.000533330487087369,1,-0.0001844572252593935,1
02/25/26 21:57:46.952958720,-2.426898572593927e-05,1,0.08487175405025482,1,0.05017740651965141,1,-0.008981121703982353,1,0.000344658677931875,1,-8.365340909222141e-05,1
02/25/26 21:57:46.962647552,-0.002480563707649708,1,0.08020903915166855,1,0.04617141559720039,1,-0.005262522026896477,1,0.0004743031167890877,1,-0.000149844228872098,1
02/25/26 21:57:46.972242688,-0.005025096703320742,1,0.07536841183900833,1,0.04260879009962082,1,-0.003028662642464042,1,0.0001296312257181853,1,-9.990557737182826e-05,1
02/25/26 21:57:46.981745408,-0.006690645590424538,1,0.06995347142219543,1,0.03392500430345535,1,-0.004014093894511461,1,0.000212349506909959,1,-1.847746352723334e-05,1
02/25/26 21:57:46.991156224,-0.005148480646312237,1,0.07819204777479172,1,0.04448597505688667,1,-0.0002131703076884151,1,2.127987318090163e-05,1,-2.886932816181798e-05,1
02/25/26 21:57:47.000473600,-0.008467545732855797,1,0.06496027857065201,1,0.03164239227771759,1,-0.001712122349999845,1,7.011917477939278e-05,1,-0.0001012647990137339,1
02/25/26 21:57:47.011236864,-0.008389445021748543,1,0.07269853353500366,1,0.03847407922148705,1,-0.002246767049655318,1,-0.0003149191907141358,1,-0.0001695198443485424,1
02/25/26 21:57:47.021894912,-0.006574818398803473,1,0.07152512669563293,1,0.03891646862030029,1,-0.001925397897139192,1,-0.0003083501651417464,1,-0.0001313333923462778,1
02/25/26 21:57:47.032448256,-0.005602530669420958,1,0.07117220759391785,1,0.03976371511816978,1,-0.002125223865732551,1,-0.0001606094156159088,1,-5.182694440009072e-05,1
02/25/26 21:57:47.042898432,-0.009358552284538746,1,0.08041682839393616,1,0.03691989928483963,1,-0.002445976249873638,1,-0.0003189045528415591,1,-0.0002138708659913391,1
02/25/26 21:57:47.053244928,-0.00750437518581748,1,0.06590370833873749,1,0.03512133285403252,1,-0.00188196508679539,1,-4.973342583980411e-06,1,-0.0002330623392481357,1
02/25/26 21:57:47.063489792,-0.009475155733525753,1,0.06729377806186676,1,0.04427378252148628,1,-0.002345607848837972,1,-2.07846169359982e-05,1,-0.0001184479988296516,1
02/25/26 21:57:47.073633536,-0.01351985801011324,1,0.0640798881649971,1,0.04932807758450508,1,-0.003082489594817162,1,-6.128387030912563e-05,1,-0.0002407282154308632,1
02/25/26 21:57:47.083679744,-0.01364285405725241,1,0.06380766630172729,1,0.03567595034837723,1,-0.003240222577005625,1,-8.976276149041951e-05,1,-7.815374556230381e-05,1
02/25/26 21:57:47.093627648,-0.02004892006516457,1,0.04930928349494934,1,0.05696916207671165,1,-0.004539136774837971,1,-0.0008805470424704254,1,-0.0001055969187291339,1
02/25/26 21:57:47.103476736,-0.03245769441127777,1,0.07624039053916931,1,0.04490228742361069,1,-0.005466101691126823,1,-0.0004711189540103078,1,-3.404018934816122e-05,1
02/25/26 21:57:47.113230080,-0.0181188378483057,1,0.04119117930531502,1,0.0470648892223835,1,-0.005164517555385828,1,-0.0004589476739056408,1,0.0001753875258145854,1
02/25/26 21:57:47.122886400,-0.01008928567171097,1,0.04590872675180435,1,0.008760550990700722,1,-0.007837616838514805,1,0.0001948485733009875,1,0.0001557056821184233,1
02/25/26 21:57:47.132465408,-0.008095966652035713,1,-0.03498117998242378,1,-0.03837323561310768,1,-0.03326789662241936,1,0.0005575982504524291,1,0.0002483732241671532,1
02/25/26 21:57:47.141955840,-0.01187430042773485,1,-0.03585237264633179,1,-0.01879892870783806,1,-0.06834776699542999,1,0.001838978263549507,1,0.000240475099417381,1
02/25/26 21:57:47.151354112,-0.01262429915368557,1,0.012408297508955,1,-0.01825829781591892,1,-0.09284223616123199,1,0.002498649759218097,1,0.0004121755773667246,1
02/25/26 21:57:47.160811776,-0.0122253205627203,1,0.05955314636230469,1,0.02645281329751015,1,-0.1012493371963501,1,0.002428417792543769,1,0.0005425220588222146,1
02/25/26 21:57:47.171545344,-0.01303608622401953,1,0.08936448395252228,1,0.06269370764493942,1,-0.09542697668075562,1,0.002389326458796859,1,0.0004082113446202129,1
02/25/26 21:57:47.182173184,0.002013948978856206,1,0.05901773273944855,1,0.2000838965177536,1,-0.08788697421550751,1,0.0005724788061343133,1,0.001302953227423131,1
02/25/26 21:57:47.192695296,-0.008485890924930573,1,0.1522607356309891,1,-0.01742672547698021,1,-0.0768774077296257,1,0.002123796148225665,1,0.004545672331005335,1
02/25/26 21:57:47.203117056,-0.007128960452973843,1,0.08819267153739929,1,0.005810139700770378,1,-0.06954191625118256,1,0.0022553491871804,1,0.00266118161380291,1
02/25/26 21:57:47.213439488,-0.02272407524287701,1,0.1219891384243965,1,0.0123613253235817,1,-0.06376498192548752,1,0.002109262393787503,1,0.001369627425447106,1
02/25/26 21:57:47.223661568,-0.01143147610127926,1,0.07869011163711548,1,0.0707206204533577,1,-0.06142981722950935,1,0.002075953641906381,1,0.0006651743315160275,1
02/25/26 21:57:47.233781248,-0.00548175722360611,1,0.06091783195734024,1,0.009202884510159492,1,-0.06126148626208305,1,0.002400992903858423,1,0.0004207552701700479,1
02/25/26 21:57:47.243802112,-0.01001568976789713,1,0.05218369886279106,1,0.006740886718034744,1,-0.06327541172504425,1,0.001687170471996069,1,0.0002489028847776353,1
02/25/26 21:57:47.253723392,-0.01626511290669441,1,0.05983936041593552,1,0.05575542151927948,1,-0.06569954007863998,1,0.001696240156888962,1,0.0001235635718330741,1
02/25/26 21:57:47.263546112,-0.01322180218994617,1,0.04885218292474747,1,0.0486612543463707,1,-0.06756579130887985,1,0.002197142690420151,1,0.0001106893541873433,1
02/25/26 21:57:47.273273344,-0.02424455247819424,1,0.06330385059118271,1,0.002866285387426615,1,-0.06970754265785217,1,0.002452135318890214,1,-0.0001679203269304708,1
02/25/26 21:57:47.282903808,-0.03491512686014175,1,0.07374067604541779,1,0.003108672797679901,1,-0.06840017437934875,1,0.002117438009008765,1,-0.0001243891019839793,1
02/25/26 21:57:47.292440576,-0.02358477190136909,1,0.1104212924838066,1,0.01755113527178764,1,-0.07362844049930573,1,0.001918101916089654,1,5.166090704733506e-05,1
02/25/26 21:57:47.301884160,-0.03264700621366501,1,0.1100346148014069,1,0.02115757763385773,1,-0.07354509830474854,1,0.002078566001728177,1,4.279710265109316e-05,1
02/25/26 21:57:47.311234560,-0.03025057166814804,1,0.08411548286676407,1,0.03788786381483078,1,-0.06763805449008942,1,0.001800462952814996,1,-1.474618329666555e-06,1
02/25/26 21:57:47.320954880,-0.01766196079552174,1,0.078551284968853,1,0.05522126704454422,1,-0.06401170045137405,1,0.001435226877219975,1,6.191232387209311e-05,1
02/25/26 21:57:47.331653376,-0.02611097507178783,1,0.07587109506130219,1,0.02844605408608913,1,-0.061661496758461,1,0.001686535077169538,1,0.000184503456694074,1
02/25/26 21:57:47.342248960,-0.01289753802120686,1,0.03836994990706444,1,0.03056726045906544,1,-0.06135953217744827,1,0.001575125381350517,1,0.0002055756631307304,1
02/25/26 21:57:47.352740096,-0.01750079914927483,1,0.07302944362163544,1,0.07729683071374893,1,-0.05960304290056229,1,0.001683921553194523,1,-0.0002037178928731009,1
02/25/26 21:57:47.363128576,-0.001951984828338027,1,0.1087936013936996,1,0.06868892908096313,1,-0.05040456727147102,1,0.002130196196958423,1,0.0009336177026852965,1
02/25/26 21:57:47.373417216,-0.02418936043977737,1,0.07430745661258698,1,0.05592227727174759,1,-0.02795442193746567,1,0.001086625852622092,1,-0.0001542593672638759,1
02/25/26 21:57:47.383610624,-0.01417770236730576,1,0.08109512180089951,1,0.05172302573919296,1,-0.0141677251085639,1,0.001287725521251559,1,0.0003765660803765059,1
02/25/26 21:57:47.393706752,-0.01082540862262249,1,0.0530225895345211,1,0.07348631322383881,1,-0.01705336011946201,1,0.0007266411557793617,1,-0.002089210320264101,1
02/25/26 21:57:47.403705344,-0.02456089109182358,1,0.05386212095618248,1,-0.01943954080343246,1,-0.02098661102354527,1,0.001127464813180268,1,-0.001089554512873292,1
02/25/26 21:57:47.413605888,-0.026998121291399,1,0.09482701122760773,1,0.04807976260781288,1,-0.02906511351466179,1,0.001298031536862254,1,-3.714417107403278e-05,1
02/25/26 21:57:47.423409152,-0.01478610001504421,1,0.08794397860765457,1,0.06875655055046082,1,-0.008445797488093376,1,0.0002658483572304249,1,-0.0001023923105094582,1
02/25/26 21:57:47.433117440,-0.01673426479101181,1,0.0465925969183445,1,0.01523226127028465,1,-0.01188189070671797,1,0.0006637681508436799,1,-0.0001444620284019038,1
02/25/26 21:57:47.442729728,-0.01835408620536327,1,0.0006409869529306889,1,-0.008524529635906219,1,-0.02128792554140091,1,0.001112458412535489,1,-0.002666023327037692,1
02/25/26 21:57:47.452250368,-0.035416379570961,1,0.05886375159025192,1,0.07179649174213409,1,-0.04408665746450424,1,0.000484213640447706,1,-0.001816254225559533,1
02/25/26 21:57:47.461676800,-0.007799011189490557,1,0.1230929791927338,1,0.1208275407552719,1,-0.03172152489423752,1,0.0009806131711229682,1,-0.001052519306540489,1
02/25/26 21:57:47.471011840,-0.009446674957871437,1,0.05934248119592667,1,0.06620240956544876,1,-0.01467110216617584,1,0.0001382806804031134,1,-0.0006253605242818594,1
02/25/26 21:57:47.481324288,-0.0171519760042429,1,0.08612725883722305,1,0.0688522532582283,1,-0.01023920439183712,1,-0.0002445566060487181,1,-0.0003634804452303797,1
02/25/26 21:57:47.491993856,-0.01576679572463036,1,0.05108411982655525,1,0.0492604598402977,1,-0.001905548153445125,1,0.0002438126393826678,1,-0.0002293338184244931,1
02/25/26 21:57:47.502559232,-0.01126373000442982,1,0.03013252466917038,1,0.05566322803497314,1,-0.01032194495201111,1,0.0002220695314463228,1,-0.0001395716099068522,1
02/25/26 21:57:47.513021440,-0.01233624666929245,1,0.04550357162952423,1,0.02077887393534184,1,-0.01186536811292171,1,0.0001107764401240274,1,-0.0004196465597487986,1
02/25/26 21:57:47.523384832,-0.01258257124572992,1,0.06368093192577362,1,0.07865747809410095,1,-0.01301466673612595,1,0.0001642684801481664,1,0.0001704150345176458,1
02/25/26 21:57:47.533650432,-0.01152966171503067,1,0.0679977759718895,1,0.0522976852953434,1,-0.003318237839266658,1,-9.600126213626936e-05,1,-2.180948649765924e-05,1
02/25/26 21:57:47.543814400,-0.009555205702781677,1,0.09012830257415771,1,0.07625684887170792,1,-0.001632276107557118,1,0.0002147684717783704,1,-0.0001363541814498603,1
02/25/26 21:57:47.553878528,-0.007366287522017956,1,0.03919003903865814,1,0.01775858551263809,1,0.003281707875430584,1,0.0002576516999397427,1,-8.316579624079168e-05,1
02/25/26 21:57:47.563844864,-0.01208322495222092,1,0.07293408364057541,1,0.06193684414029121,1,0.001302559743635356,1,6.697841308778152e-05,1,-0.0001471194846089929,1
02/25/26 21:57:47.573712128,-0.01906966231763363,1,0.03351494297385216,1,0.02459400519728661,1,-0.001206869259476662,1,0.0001344020565738901,1,-0.0002760176721494645,1
02/25/26 21:57:47.583483136,-0.01401984784752131,1,0.0708397850394249,1,0.04903017356991768,1,-0.001240370911546052,1,0.00023851272999309,1,-0.0002128509659087285,1
02/25/26 21:57:47.593160192,-0.01437477767467499,1,0.03976292908191681,1,0.03661381453275681,1,-0.003513856790959835,1,0.000155389920109883,1,-0.0003092084662057459,1
02/25/26 21:57:47.602740992,-0.01198122929781675,1,0.06763067096471786,1,0.049334816634655,1,-0.001338648842647672,1,-0.000131531895021908,1,4.090552101843059e-05,1
02/25/26 21:57:47.612228096,-0.01020621322095394,1,0.05228341370820999,1,0.04010768607258797,1,-0.0003041411400772631,1,8.012414036784321e-05,1,-7.05341954017058e-05,1
02/25/26 21:57:47.621621248,-0.01094511989504099,1,0.0536511167883873,1,0.04026545956730843,1,0.002071962459012866,1,-0.0001210225891554728,1,-2.567067531344946e-05,1
02/25/26 21:57:47.630922752,-0.01224968582391739,1,0.04714092612266541,1,0.03914404660463333,1,0.001453330274671316,1,0.0001011401909636334,1,-0.0001330928062088788,1
02/25/26 21:57:47.641680128,-0.0142095098271966,1,0.06189092248678207,1,0.04494955390691757,1,-0.0007869836990721524,1,2.60026499745436e-05,1,-0.0001306284102611244,1
02/25/26 21:57:47.652332544,-0.01714802533388138,1,0.05055642873048782,1,0.02923672832548618,1,0.00142733205575496,1,-0.0001025425663101487,1,3.527515946188942e-05,1
02/25/26 21:57:47.662882304,-0.01412235759198666,1,0.05058197304606438,1,0.03592169657349586,1,0.001436343649402261,1,-0.0001471182185923681,1,-4.827964585274458e-05,1
02/25/26 21:57:47.673329408,-0.01438654307276011,1,0.04264674708247185,1,0.03765249624848366,1,0.0008198539726436138,1,-0.0001482524385210127,1,-3.632812877185643e-06,1
02/25/26 21:57:47.683674368,-0.0161094143986702,1,0.05458768084645271,1,0.04332375898957253,1,0.0001731837692204863,1,0.0001303981989622116,1,-6.128440872998908e-05,1
02/25/26 21:57:47.693923072,-0.01235147565603256,1,0.04654743149876595,1,0.03896713629364967,1,0.0003817642573267221,1,0.0002748826809693128,1,-5.005112689104863e-05,1
02/25/26 21:57:47.704073472,-0.0109955808147788,1,0.05200735479593277,1,0.04696153104305267,1,0.0003984467475675046,1,-0.0001347419747617096,1,-0.0001081008449546061,1
02/25/26 21:57:47.714124800,-0.01336348801851273,1,0.04820240661501884,1,0.04504160583019257,1,0.0006206377875059843,1,-6.246336852200329e-05,1,-0.0002032112679444253,1
02/25/26 21:57:47.724078336,-0.0130903460085392,1,0.06939280033111572,1,0.06013421714305878,1,0.005723230540752411,1,8.0144964158535e-06,1,0.0002080534613924101,1
02/25/26 21:57:47.733935360,-0.01639580726623535,1,0.02559833042323589,1,0.01916720159351826,1,0.001797982375137508,1,9.307393338531256e-05,1,-7.062213990138844e-05,1
02/25/26 21:57:47.743695360,-0.01155677624046803,1,0.06459854543209076,1,0.04935062304139137,1,0.001344011863693595,1,0.0004022745706606656,1,0.0002122074365615845,1
02/25/26 21:57:47.753360640,0.04249406605958939,1,-0.06095981597900391,1,-0.004085097461938858,1,-0.01124954968690872,1,0.000592344906181097,1,-0.002929171547293663,1
02/25/26 21:57:47.762934528,0.1799162775278091,1,-0.1146761700510979,1,0.1390057653188705,1,0.00508398562669754,1,0.001110962009988725,1,-0.05878743901848793,1
02/25/26 21:57:47.772414464,0.2887656390666962,1,-0.4792503118515015,1,-0.021502286195755,1,0.006029868498444557,1,0.003746798727661371,1,-0.1655870676040649,1
02/25/26 21:57:47.781800960,0.418488085269928,1,-0.7217547297477722,1,-0.001868306891992688,1,-0.01058035902678967,1,0.005768847186118364,1,-0.2817708849906921,1
02/25/26 21:57:47.791249152,0.4646659791469574,1,-0.8633291125297546,1,-0.03242635354399681,1,-0.02013031579554081,1,0.008647329173982143,1,-0.3689286708831787,1
02/25/26 21:57:47.801975040,0.6764839887619019,1,-1.132395386695862,1,0.02372363954782486,1,-0.03301366418600082,1,0.01101885177195072,1,-0.4756591320037842,1
02/25/26 21:57:47.812596224,0.9390822052955627,1,-1.451514720916748,1,0.007650703191757202,1,-0.02091158740222454,1,0.01707622967660427,1,-0.6504490375518799,1
02/25/26 21:57:47.823118592,1.188794016838074,1,-1.727400302886963,1,-0.1275109648704529,1,-0.04528984799981117,1,0.02239678427577019,1,-0.860765278339386,1
02/25/26 21:57:47.833538816,1.509397506713867,1,-2.0815589427948,1,-0.2064594626426697,1,-0.1093474850058556,1,0.02611630968749523,1,-1.122528553009033,1
02/25/26 21:57:47.843857408,1.467674255371094,1,-2.173401594161987,1,-0.2807070016860962,1,-0.2045164853334427,1,0.02790564484894276,1,-1.409176707267761,1
02/25/26 21:57:47.854076160,1.388630390167236,1,-1.966766595840454,1,-0.4674745798110962,1,-0.3441041111946106,1,0.0461113415658474,1,-1.660621285438538,1
02/25/26 21:57:47.864195072,1.060691237449646,1,-1.60741662979126,1,-0.4109133780002594,1,-0.4974077939987183,1,0.05803360790014267,1,-1.832170248031616,1
02/25/26 21:57:47.874215424,0.6020069122314453,1,-1.208819627761841,1,-0.1969349086284637,1,-0.6064693331718445,1,0.08333607763051987,1,-1.881834626197815,1
02/25/26 21:57:47.884139264,0.004401661455631256,1,-0.6213046908378601,1,0.2374046146869659,1,-0.6637618541717529,1,0.0938418060541153,1,-1.803652286529541,1
02/25/26 21:57:47.893968128,-0.2769370973110199,1,0.4416746497154236,1,1.3339524269104,1,-0.2765790522098541,1,0.0900995284318924,1,-1.624411225318909,1
02/25/26 21:57:47.903700736,-0.7027392387390137,1,0.4089674949645996,1,0.06561518460512161,1,-0.03278851881623268,1,0.07903527468442917,1,-1.401002526283264,1
02/25/26 21:57:47.913352704,-0.8235026001930237,1,0.8265299201011658,1,0.0487288199365139,1,-0.09393581748008728,1,0.07063206285238266,1,-1.19520890712738,1
02/25/26 21:57:47.922913024,-0.9930058717727661,1,1.109092473983765,1,0.2129125744104385,1,-0.01111500523984432,1,0.05648631229996681,1,-1.026153683662415,1
02/25/26 21:57:47.932380160,-0.9785263538360596,1,1.147777199745178,1,-0.008034192025661469,1,-0.02766666933894157,1,0.04940351471304893,1,-0.9054529666900635,1
02/25/26 21:57:47.941756160,-0.9723412394523621,1,1.30743408203125,1,0.1765556931495667,1,-0.002837755251675844,1,0.04702850431203842,1,-0.8257899284362793,1
02/25/26 21:57:47.951641856,-0.9973521828651428,1,1.274412393569946,1,0.02275168895721436,1,-0.0119512090459466,1,0.0451652780175209,1,-0.770874559879303,1
02/25/26 21:57:47.962330368,-0.9782339334487915,1,1.26607072353363,1,0.09560231119394302,1,-0.0008031614706851542,1,0.04088908433914185,1,-0.7276462912559509,1
02/25/26 21:57:47.972912384,-0.9546049237251282,1,1.297603964805603,1,0.1070884391665459,1,-0.01138962246477604,1,0.03778041526675224,1,-0.6981164216995239,1
02/25/26 21:57:47.983390720,-0.9565378427505493,1,1.23579728603363,1,0.1327357888221741,1,-0.0008919467218220234,1,0.03457240760326385,1,-0.6603450775146484,1
02/25/26 21:57:47.993766144,-0.9550278782844543,1,1.146911978721619,1,0.08171497285366058,1,-0.008463607169687748,1,0.0314137265086174,1,-0.6185663938522339,1
02/25/26 21:57:48.004038656,-0.9112361669540405,1,1.204793691635132,1,0.06292479485273361,1,-0.003353322623297572,1,0.03177394345402718,1,-0.5756329298019409,1
02/25/26 21:57:48.014209792,-0.9352540969848633,1,1.111100554466248,1,0.09172799438238144,1,-0.007081039249897003,1,0.0255439504981041,1,-0.5187525153160095,1
02/25/26 21:57:48.024282624,-1.005074262619019,1,0.9230203032493591,1,0.1478829383850098,1,0.00268992967903614,1,0.02251067571341991,1,-0.4224657416343689,1
02/25/26 21:57:48.034255616,-0.7743146419525146,1,0.6137620210647583,1,0.06818713992834091,1,0.01174629013985395,1,0.01308778766542673,1,-0.24998639523983,1
02/25/26 21:57:48.044129280,-0.4478297233581543,1,0.3393888175487518,1,0.04222641885280609,1,0.008884000591933727,1,0.006915915757417679,1,-0.1354702115058899,1
02/25/26 21:57:48.053904640,-0.2628775537014008,1,0.2100780457258224,1,0.05552123486995697,1,0.006222606170922518,1,0.003313280176371336,1,-0.07340030372142792,1
02/25/26 21:57:48.063585024,-0.1509312987327576,1,0.1283977031707764,1,0.04088066890835762,1,0.004331612959504128,1,0.001747262780554593,1,-0.03980516642332077,1
02/25/26 21:57:48.073169152,-0.09565521776676178,1,0.08893303573131561,1,0.04358334094285965,1,0.002760929288342595,1,0.001392196863889694,1,-0.02164464071393013,1
02/25/26 21:57:48.082658048,-0.06661359965801239,1,0.07271669805049896,1,0.04166402667760849,1,0.001947235665284097,1,0.0009050939697772264,1,-0.01168787200003862,1
02/25/26 21:57:48.092054528,-0.04591783508658409,1,0.0538284033536911,1,0.04462537914514542,1,0.0007654648507013917,1,0.0003237380587961525,1,-0.006496851332485676,1
02/25/26 21:57:48.101357824,-0.04305853322148323,1,0.07002762705087662,1,0.02797217294573784,1,0.0008305350784212351,1,0.0001848940155468881,1,-0.003755988320335746,1
02/25/26 21:57:48.111657984,-0.02245555073022842,1,0.04980368167161942,1,0.04377228394150734,1,0.001368354889564216,1,-1.4103738067206e-05,1,-0.001972704194486141,1
02/25/26 21:57:48.122322944,-0.02337368577718735,1,0.04898323863744736,1,0.04806756228208542,1,0.0009077193099074066,1,4.372007970232517e-05,1,-0.001038456452079117,1
02/25/26 21:57:48.132881920,-0.02463722974061966,1,0.036698117852211,1,0.04742918163537979,1,-0.001012184307910502,1,-0.0001668000768404454,1,-0.0002952768700197339,1
02/25/26 21:57:48.143338496,-0.01198906823992729,1,0.0472504198551178,1,0.04109992831945419,1,-0.0004817491862922907,1,-0.0002685151703190058,1,4.925789471599273e-05,1
02/25/26 21:57:48.153692416,-0.02708015963435173,1,0.04040928184986115,1,0.05642041191458702,1,-0.002227786462754011,1,-0.0004458928597159684,1,0.0001392487611155957,1
02/25/26 21:57:48.163945216,-0.01347160711884499,1,0.05592069774866104,1,0.04881517961621284,1,-0.0007895252201706171,1,5.956933455308899e-05,1,-0.0001159401144832373,1
02/25/26 21:57:48.174103808,-0.01983549073338509,1,0.0505988746881485,1,0.04270325973629951,1,-0.0009735178900882602,1,4.075158358318731e-05,1,-0.0002437887451378629,1
02/25/26 21:57:48.184162560,-0.01550358813256025,1,0.03934329003095627,1,0.03555409610271454,1,-0.0001120168599300086,1,0.0001701196015346795,1,-0.0002745981910265982,1
02/25/26 21:57:48.194123776,-0.02234830893576145,1,0.04139954224228859,1,0.03840308263897896,1,0.0006134958239272237,1,0.0003313797642476857,1,-0.000237719708820805,1
02/25/26 21:57:48.203987712,-0.03572900965809822,1,0.07527530938386917,1,0.06857176125049591,1,0.0001703623565845191,1,0.0003412025980651379,1,-6.75669070915319e-05,1
02/25/26 21:57:48.213754368,-0.03684317693114281,1,0.03053949028253555,1,0.02798286452889442,1,-0.001950285979546607,1,2.157284325221553e-05,1,-0.0002734107547439635,1
02/25/26 21:57:48.223425024,-0.0342969074845314,1,0.05108208209276199,1,0.0235835388302803,1,0.002757036592811346,1,0.0002702563942875713,1,-0.0001465682289563119,1
02/25/26 21:57:48.233001984,-0.03494738042354584,1,0.07212615013122559,1,0.04305888339877129,1,-5.13786799274385e-05,1,0.0005231958930380642,1,2.267110903630964e-05,1
02/25/26 21:57:48.242484736,-0.02174749039113522,1,0.04414909705519676,1,0.03697959333658218,1,-0.0006352902855724096,1,0.00075915438355878,1,5.821201193612069e-05,1
02/25/26 21:57:48.251874560,-0.02096402831375599,1,0.03433937579393387,1,0.02699146047234535,1,-0.0003038532449863851,1,0.0002827740390785038,1,-6.926750211277977e-05,1
02/25/26 21:57:48.261171968,-0.01788779720664024,1,0.04402705281972885,1,0.03128128498792648,1,0.001400982961058617,1,0.0004287097253836691,1,-0.0001776600838638842,1
02/25/26 21:57:48.271923712,-0.01022286992520094,1,0.05311921238899231,1,0.06348026543855667,1,-0.0004017377214040607,1,7.089608698152006e-05,1,-0.0002046522567979991,1
02/25/26 21:57:48.282571264,-0.02008211426436901,1,0.03599795699119568,1,0.02984611503779888,1,-0.0006102991756051779,1,3.005399412359111e-05,1,-0.0002345286484342068,1
02/25/26 21:57:48.293114624,-0.02178930677473545,1,0.03726405650377274,1,0.0375543050467968,1,0.0003505622735247016,1,-0.000230249177548103,1,-0.0003029500658158213,1
02/25/26 21:57:48.303553792,-0.02527259662747383,1,0.04303424060344696,1,0.04532092064619064,1,0.0002755309396889061,1,3.813957300735638e-05,1,-1.120188971981406e-05,1
02/25/26 21:57:48.313888512,-0.02602045424282551,1,0.03847156465053558,1,0.04379307106137276,1,-0.0001119332519010641,1,-0.0003255353949498385,1,-3.897841088473797e-05,1
02/25/26 21:57:48.324122880,-0.02789381518959999,1,0.03478241339325905,1,0.04032324627041817,1,8.505398000124842e-06,1,-0.0004114059556741267,1,-7.32238549971953e-05,1
02/25/26 21:57:48.334255360,-0.02840502001345158,1,0.03416021913290024,1,0.03441368788480759,1,0.0004143731785006821,1,-0.0002343662490602583,1,-7.348656072281301e-05,1
02/25/26 21:57:48.344288768,-0.02304190210998058,1,0.04222651571035385,1,0.03768855333328247,1,-0.0001819030148908496,1,-0.0001355453860014677,1,-0.0002492790808901191,1
02/25/26 21:57:48.354223360,-0.02876092307269573,1,0.04266566783189774,1,0.03655092790722847,1,-1.178195816464722e-05,1,5.601182783721015e-05,1,-6.103148189140484e-05,1
02/25/26 21:57:48.364064256,-0.02423223108053207,1,0.03632352128624916,1,0.04232367128133774,1,0.0002002152323257178,1,0.0002162755117751658,1,6.808730540797114e-05,1
02/25/26 21:57:48.373814528,-0.03156139701604843,1,0.04742033779621124,1,0.03821944072842598,1,0.0002535225648898631,1,0.0002191235835198313,1,-5.373593376134522e-05,1
02/25/26 21:57:48.383468032,-0.03242634981870651,1,0.0350690484046936,1,0.0496070496737957,1,0.0001258483098354191,1,0.0002106220053974539,1,5.853697075508535e-05,1
02/25/26 21:57:48.393025792,-0.02926605567336082,1,0.04289695620536804,1,0.04616923630237579,1,-6.316572398645803e-05,1,0.000307328678900376,1,8.471009641652927e-05,1
02/25/26 21:57:48.402490624,-0.03356827422976494,1,0.02744137682020664,1,0.03968018665909767,1,0.0002618809230625629,1,0.00035830307751894,1,0.0001311888336203992,1
02/25/26 21:57:48.411861504,-0.03236854448914528,1,0.02941399812698364,1,0.03755649924278259,1,0.0004132876347284764,1,0.0004591913020703942,1,-0.0003952207625843585,1
02/25/26 21:57:48.421293056,-0.02620627544820309,1,0.04552352800965309,1,0.04079073667526245,1,0.0003648026613518596,1,0.000679513206705451,1,-0.0003583761572372168,1
02/25/26 21:57:48.432013312,-0.04426071792840958,1,0.02527584135532379,1,0.03539686650037766,1,0.0008339037885889411,1,0.0003489972732495517,1,-3.121429472230375e-05,1
02/25/26 21:57:48.442629632,-0.01603575795888901,1,0.04454680532217026,1,0.06618434190750122,1,-0.001666658907197416,1,-0.0001706063339952379,1,0.0003373225627001375,1
02/25/26 21:57:48.453142272,-0.01547941844910383,1,0.04369108378887177,1,0.03700227290391922,1,-0.000192457577213645,1,-0.0005331176216714084,1,2.982660589623265e-06,1
02/25/26 21:57:48.463553024,-0.01622205786406994,1,0.04223839938640594,1,0.02136404439806938,1,0.0003177805338054895,1,-6.138435855973512e-05,1,-5.250017420621589e-05,1
02/25/26 21:57:48.473859584,-0.01654965244233608,1,0.01761449128389359,1,0.05963671207427979,1,-0.0003410907229408622,1,0.0001511845039203763,1,0.000446963676949963,1
02/25/26 21:57:48.484065024,-0.01992938295006752,1,0.0375598669052124,1,0.04815848171710968,1,0.0002357346238568425,1,0.0001162130065495148,1,0.0004431360284797847,1
02/25/26 21:57:48.494172416,-0.02892484702169895,1,0.03597021847963333,1,0.03987329453229904,1,0.0004944428219459951,1,-3.311518230475485e-05,1,0.0005504595465026796,1
02/25/26 21:57:48.504182272,-0.03173651918768883,1,0.03750311583280563,1,0.03416338562965393,1,0.0005757175385951996,1,0.0005563984159380198,1,0.001068840501829982,1
02/25/26 21:57:48.514092544,-0.02424792945384979,1,0.02652733586728573,1,0.02731030993163586,1,0.0005955458036623895,1,0.0001682678121142089,1,0.0008103863219730556,1
02/25/26 21:57:48.523905024,-0.02260616980493069,1,0.033210389316082,1,0.03715984150767326,1,0.0002707430103328079,1,0.0004455435846466571,1,0.0004181388940196484,1
02/25/26 21:57:48.533621504,-0.0007740156725049019,1,0.02667443081736565,1,0.04382589086890221,1,0.0002915911318268627,1,0.0002714269503485411,1,0.00090103066759184,1
02/25/26 21:57:48.543241472,-0.009022995829582214,1,0.04340919107198715,1,0.01915478706359863,1,0.0005391084123402834,1,0.0005630141822621226,1,0.001388615113683045,1
02/25/26 21:57:48.552766720,-0.03883111104369164,1,0.03952716290950775,1,0.04731499776244164,1,-0.0003562946512829512,1,-0.0002142873127013445,1,0.001694996259175241,1
02/25/26 21:57:48.562198272,-0.05972866341471672,1,0.1328832060098648,1,0.0644955039024353,1,0.0004516033222898841,1,-0.0002402242680545896,1,0.009615170769393444,1
02/25/26 21:57:48.571537664,-0.0300542488694191,1,0.0265561044216156,1,-0.002883275039494038,1,0.002403087448328733,1,0.0002139889111276716,1,0.006083698477596045,1
02/25/26 21:57:48.581402624,-0.02234326861798763,1,0.05191684514284134,1,0.05721130222082138,1,-0.0002082614228129387,1,0.0001180316758109257,1,0.003930069506168365,1
02/25/26 21:57:48.592091136,0.01015524566173553,1,-0.02189746871590614,1,0.06497545540332794,1,0.0006204060628078878,1,-0.00062490941490978,1,0.002872703829780221,1
02/25/26 21:57:48.602675712,-0.02711015567183495,1,0.04537232220172882,1,0.0470384880900383,1,-0.0003219360660295933,1,-0.000699173950124532,1,0.002021580934524536,1
02/25/26 21:57:48.613156608,-0.001031994819641113,1,0.01060483045876026,1,0.01790411770343781,1,0.0007255692034959793,1,0.0001603248529136181,1,0.003392767161130905,1
02/25/26 21:57:48.623535104,-0.01343158446252346,1,0.04851376265287399,1,0.06322003155946732,1,-0.002284892369061708,1,-0.001015980145893991,1,0.003977462183684111,1
02/25/26 21:57:48.633810944,-0.04139832407236099,1,0.08266631513834,1,0.08308199048042297,1,0.0002785942633636296,1,-0.001455525169149041,1,0.003242834005504847,1
