FILE_INFO
ListSeparator=,
DecimalSeparator=.

SESSION_INFO
TimeZone,UTC
TimeZoneOffset,0
DateTimeFormat,MM/DD/YY h:mm:ss.nnnnnnnnn
StartTime,03/09/26 14:44:45.004733184
TimeFormat,Standard

DEVICE_INFO
Address,*

CHANNEL_INFO
Channel,Type,SampleRate,Equation,Coefficients,Unit,UnitSymbol,WhereApplied,WhenApplied
inertial-6286.188861:estLinearAccelX,Timeseries,100Hz,,,,,,
inertial-6286.188861:estLinearAccelX:valid,ValidFlag,100Hz,,,,,,
inertial-6286.188861:estLinearAccelY,Timeseries,100Hz,,,,,,
inertial-6286.188861:estLinearAccelY:valid,ValidFlag,100Hz,,,,,,
inertial-6286.188861:estLinearAccelZ,Timeseries,100Hz,,,,,,
inertial-6286.188861:estLinearAccelZ:valid,ValidFlag,100Hz,,,,,,
inertial-6286.188861:estAngularRateX,Timeseries,100Hz,,,,,,
inertial-6286.188861:estAngularRateX:valid,ValidFlag,100Hz,,,,,,
inertial-6286.188861:estAngularRateY,Timeseries,100Hz,,,,,,
inertial-6286.188861:estAngularRateY:valid,ValidFlag,100Hz,,,,,,
inertial-6286.188861:estAngularRateZ,Timeseries,100Hz,,,,,,
inertial-6286.188861:estAngularRateZ:valid,ValidFlag,100Hz,,,,,,

DATA_START
Time,inertial-6286.188861:estLinearAccelX,inertial-6286.188861:estLinearAccelX:valid,inertial-6286.188861:estLinearAccelY,inertial-6286.188861:estLinearAccelY:valid,inertial-6286.188861:estLinearAccelZ,inertial-6286.188861:estLinearAccelZ:valid,inertial-6286.188861:estAngularRateX,inertial-6286.188861:estAngularRateX:valid,inertial-6286.188861:estAngularRateY,inertial-6286.188861:estAngularRateY:valid,inertial-6286.188861:estAngularRateZ,inertial-6286.188861:estAngularRateZ:valid
03/09/26 14:44:45.004733184,0.01088622026145458,1,0.01511344034224749,1,0.03670547157526016,1,-0.0001661650312598795,1,0.0002246078656753525,1,0.0007207139278762043,1
03/09/26 14:44:45.014324224,0.01304924301803112,1,0.0127257714048028,1,0.03563516587018967,1,-8.452717156615108e-05,1,-7.241396815516055e-05,1,0.0009337018709629774,1
03/09/26 14:44:45.023821312,0.01305206678807735,1,0.0123688941821456,1,0.03323709592223167,1,-7.057670154608786e-05,1,4.361976243671961e-05,1,0.0009246547124348581,1
03/09/26 14:44:45.033225216,0.01140820514410734,1,0.01309897191822529,1,0.03345561027526855,1,0.000328569149132818,1,-4.099742363905534e-05,1,0.0009327284642495215,1
03/09/26 14:44:45.042537472,0.009358999319374561,1,0.01288912259042263,1,0.03432826325297356,1,0.0001725312322378159,1,-0.000199281916138716,1,0.0006864768802188337,1
03/09/26 14:44:45.052972800,0.008447871543467045,1,0.01179564837366343,1,0.03406718000769615,1,0.0006246978300623596,1,0.0001124155533034354,1,0.0008187047205865383,1
03/09/26 14:44:45.063611136,0.008606525138020515,1,0.01011013519018888,1,0.04077474772930145,1,0.0007417037850245833,1,-0.000236063584452495,1,0.0005872201290912926,1
03/09/26 14:44:45.074149376,0.008679203689098358,1,0.01102393586188555,1,0.04437072947621346,1,0.0007777310092933476,1,-9.694279287941754e-05,1,0.0006373074138537049,1
03/09/26 14:44:45.084585216,0.01104808319360018,1,0.008435327559709549,1,0.04325497522950172,1,0.0007054953020997345,1,-6.494364788522944e-05,1,0.000401658471673727,1
03/09/26 14:44:45.094917888,0.01075029652565718,1,0.005563955754041672,1,0.04456812888383865,1,0.0002063241554424167,1,0.0001640300470171496,1,0.0005036743241362274,1
03/09/26 14:44:45.105150976,0.0109239611774683,1,0.005457210820168257,1,0.04673101380467415,1,0.000289651652565226,1,-8.604163303971291e-05,1,0.0006095574353821576,1
03/09/26 14:44:45.115283456,0.01026458200067282,1,0.004210326354950666,1,0.04831511527299881,1,-0.0001182587438961491,1,-0.000138527131639421,1,0.0007155528292059898,1
03/09/26 14:44:45.125326336,0.01211774256080389,1,0.005867156200110912,1,0.0481877364218235,1,-0.0004384223720990121,1,1.497686207585502e-05,1,0.0006445392500609159,1
03/09/26 14:44:45.135272960,0.01517139747738838,1,0.00827340129762888,1,0.05144229531288147,1,-0.0008701354963704944,1,-0.0001562833931529894,1,0.0006535843131132424,1
03/09/26 14:44:45.145124352,0.0148255992680788,1,0.01238077785819769,1,0.0475340373814106,1,-0.0002778498455882072,1,-0.0001657495449762791,1,0.0007406228105537593,1
03/09/26 14:44:45.154881536,0.01291194744408131,1,0.01047373283654451,1,0.04243256896734238,1,8.270096441265196e-05,1,0.0001035161840263754,1,0.0008309949189424515,1
03/09/26 14:44:45.164545280,0.01373598910868168,1,0.01332495268434286,1,0.04716484993696213,1,0.000116742798127234,1,-0.0002958417753688991,1,0.0010123485699296,1
03/09/26 14:44:45.174115584,0.01117892563343048,1,0.009338139556348324,1,0.04710537567734718,1,0.0002831835299730301,1,-0.0001435732410755008,1,0.0007590494933538139,1
03/09/26 14:44:45.183595264,0.01122166030108929,1,0.006380205042660236,1,0.03939686343073845,1,0.0001285380567423999,1,-9.968385711545125e-05,1,0.0009163575596176088,1
03/09/26 14:44:45.192985856,0.01005449518561363,1,0.004551502875983715,1,0.03905144333839417,1,0.0002671195252332836,1,-0.0003050021477974951,1,0.0008386389235965908,1
03/09/26 14:44:45.202437376,0.008493118919432163,1,0.007162352092564106,1,0.04291431978344917,1,0.0001964486145880073,1,-0.0004262032452970743,1,0.0008065541042014956,1
03/09/26 14:44:45.213158656,0.004525243304669857,1,0.007460122928023338,1,0.04299010336399078,1,-0.0001848379615694284,1,-0.0003271390160080045,1,0.0009587920503690839,1
03/09/26 14:44:45.223777280,0.001015237299725413,1,0.00813651829957962,1,0.04129233583807945,1,-0.0007770227966830134,1,-0.0001335005508735776,1,0.0009847544133663177,1
03/09/26 14:44:45.234297600,-0.0003779172257054597,1,0.01201656647026539,1,0.04551719501614571,1,-0.0009536363650113344,1,0.000134842935949564,1,0.0008002818794921041,1
03/09/26 14:44:45.244722432,0.001267688698135316,1,0.01342520210891962,1,0.0479445792734623,1,-0.0003621235664468259,1,0.0001145801725215279,1,0.00063014414627105,1
03/09/26 14:44:45.255049728,0.003657402936369181,1,0.01853251829743385,1,0.03928882628679276,1,-0.0003454481775406748,1,0.000267267256276682,1,0.0006683850660920143,1
03/09/26 14:44:45.265279232,0.007734803948551416,1,0.01460169069468975,1,0.03248361498117447,1,0.0001214154253830202,1,0.000324795168126002,1,0.0005957260727882385,1
03/09/26 14:44:45.275411712,0.009494887664914131,1,0.01340583432465792,1,0.03112977743148804,1,0.0001503847452113405,1,0.0005246209329925478,1,0.0005892320768907666,1
03/09/26 14:44:45.285446656,0.01077474746853113,1,0.01077105384320021,1,0.02975601144134998,1,0.0005080947303213179,1,0.0001724549365462735,1,0.0007834733696654439,1
03/09/26 14:44:45.295386368,0.008500457741320133,1,0.0111526558175683,1,0.03478993847966194,1,0.0001808273082133383,1,5.578232230618596e-05,1,0.0008314399747177958,1
03/09/26 14:44:45.305235456,0.01002880744636059,1,0.01039860956370831,1,0.04118291288614273,1,-3.587582614272833e-05,1,0.0001006409147521481,1,0.0007387327495962381,1
03/09/26 14:44:45.314990848,0.01106614898890257,1,0.01101251598447561,1,0.04468261450529099,1,-4.652882489608601e-05,1,-1.639588663238101e-05,1,0.0007382375188171864,1
03/09/26 14:44:45.324673024,0.01308621093630791,1,0.01218206528574228,1,0.04268961772322655,1,-0.0001695864775683731,1,0.0003471515374258161,1,0.0008916842052713037,1
03/09/26 14:44:45.334277632,0.01585929095745087,1,0.01347372122108936,1,0.03915804624557495,1,-4.488582817430142e-06,1,0.0002477024681866169,1,0.0009426395408809185,1
03/09/26 14:44:45.343791616,0.01660353690385818,1,0.01501310709863901,1,0.03793434426188469,1,0.0004656661185435951,1,0.0002128562482539564,1,0.001123799127526581,1
03/09/26 14:44:45.353215488,0.01661169901490211,1,0.01311260834336281,1,0.03360782936215401,1,0.0005817573401145637,1,-7.629053288837895e-05,1,0.001010274048894644,1
03/09/26 14:44:45.362840064,0.0165282916277647,1,0.01244979444891214,1,0.0364406630396843,1,0.0004686762113124132,1,-0.0002869853924494237,1,0.000767555960919708,1
03/09/26 14:44:45.373523200,0.01796466484665871,1,0.01455681398510933,1,0.03931313380599022,1,0.000552773242816329,1,-0.0005685805808752775,1,0.0007582007674500346,1
03/09/26 14:44:45.384105472,0.01660485193133354,1,0.01455917954444885,1,0.03898798301815987,1,0.0006113315466791391,1,-0.0003974922001361847,1,0.0008169723441824317,1
03/09/26 14:44:45.394584576,0.01378659717738628,1,0.01306542381644249,1,0.04455997049808502,1,0.0004964123945683241,1,-0.0007592834299430251,1,0.0009095001732930541,1
03/09/26 14:44:45.404961280,0.01183864753693342,1,0.01193097233772278,1,0.04762932658195496,1,0.0004944971296936274,1,-0.0005136929685249925,1,0.0009678516653366387,1
03/09/26 14:44:45.415245056,0.007763923145830631,1,0.01239113602787256,1,0.04995296150445938,1,0.0006283242837525904,1,-0.0006976493168622255,1,0.0007708821794949472,1
03/09/26 14:44:45.425436416,0.007639213930815458,1,0.01092010457068682,1,0.04923556745052338,1,0.0002086009917547926,1,-0.000139374184072949,1,0.0006844268064014614,1
03/09/26 14:44:45.435531008,0.007392252795398235,1,0.00914361048489809,1,0.04525306820869446,1,-0.0001270061620743945,1,-0.0001004979130811989,1,0.0007664771983399987,1
03/09/26 14:44:45.445530368,0.008738751523196697,1,0.01112132798880339,1,0.04255210235714912,1,-0.0005033143679611385,1,0.0001512875314801931,1,0.0009931859094649553,1
03/09/26 14:44:45.455436032,0.01164175756275654,1,0.01171502936631441,1,0.04019158706068993,1,-0.0004851655685342848,1,-9.909727668855339e-05,1,0.0008696956792846322,1
03/09/26 14:44:45.465246720,0.0124700078740716,1,0.009599965065717697,1,0.0362359806895256,1,0.0004889083793386817,1,-0.0001224291772814468,1,0.0006157417665235698,1
03/09/26 14:44:45.474973440,0.06011046469211578,1,0.0280058104544878,1,0.06603453308343887,1,0.002639494137838483,1,-0.005388254765421152,1,0.0006982904742471874,1
03/09/26 14:44:45.484606976,0.3776638507843018,1,0.08992798626422882,1,0.01882949471473694,1,0.01728716865181923,1,-0.06940364092588425,1,0.0009795068763196468,1
03/09/26 14:44:45.494146304,0.788254976272583,1,0.195357084274292,1,-0.2215483486652374,1,0.06595735996961594,1,-0.2922260761260986,1,0.001780492253601551,1
03/09/26 14:44:45.503594240,-0.6647494435310364,1,-0.01421709358692169,1,0.4417756497859955,1,0.05613233149051666,1,-0.2037217020988464,1,0.01147538516670465,1
03/09/26 14:44:45.512952064,-0.5275673866271973,1,-0.1760437786579132,1,0.4224124252796173,1,0.04489608854055405,1,-0.1214690655469894,1,0.008580386638641357,1
03/09/26 14:44:45.522961920,-0.3222183585166931,1,-0.02957457676529884,1,0.09001652896404266,1,0.0217725895345211,1,-0.06921907514333725,1,0.004273159429430962,1
03/09/26 14:44:45.533615616,-0.2132705301046371,1,0.005399400368332863,1,0.0804433673620224,1,0.01367925107479095,1,-0.03606078401207924,1,0.001744852983392775,1
03/09/26 14:44:45.544170752,-0.01634238660335541,1,-0.03510513156652451,1,-0.05699707195162773,1,0.008659126237034798,1,-0.01561513263732195,1,0.0006038749124854803,1
03/09/26 14:44:45.554628352,-0.004491724073886871,1,-0.003128638491034508,1,-0.02659816481173038,1,0.0005413982435129583,1,-0.01131853740662336,1,-0.0002936177770607173,1
03/09/26 14:44:45.564988416,-0.05985862016677856,1,-0.01194464135915041,1,0.0031056790612638,1,-0.001760700950399041,1,-0.002966925036162138,1,-0.007369855884462595,1
03/09/26 14:44:45.575251456,-0.1723970770835876,1,0.07143709063529968,1,-0.04834946617484093,1,-0.002543119480833411,1,-0.007902284152805805,1,-0.04796292632818222,1
03/09/26 14:44:45.585420544,-0.3239979147911072,1,0.1202429085969925,1,0.04715782031416893,1,-0.001992546953260899,1,-0.01033197902143002,1,-0.1390713900327682,1
03/09/26 14:44:45.595492864,-0.1771777719259262,1,0.08108901232481003,1,-0.009549823589622974,1,-0.002225921489298344,1,-0.01057855319231749,1,-0.232259064912796,1
03/09/26 14:44:45.605467648,-0.09072959423065186,1,0.07888168841600418,1,-0.00632026419043541,1,-0.004749155137687922,1,-0.01412324048578739,1,-0.2936112284660339,1
03/09/26 14:44:45.615346688,0.04480832815170288,1,0.005510109011083841,1,0.0005253730341792107,1,-0.003621170995756984,1,-0.005591628607362509,1,-0.3087513148784637,1
03/09/26 14:44:45.625130752,0.260200709104538,1,-0.0512051060795784,1,-0.0500665083527565,1,-0.004137933254241943,1,-0.006720741279423237,1,-0.2647725045681,1
03/09/26 14:44:45.634819584,0.2990009784698486,1,-0.06325967609882355,1,-0.02066921629011631,1,-0.003637568326666951,1,-0.00849463976919651,1,-0.1600437313318253,1
03/09/26 14:44:45.644414720,0.05851024016737938,1,-0.04258215799927711,1,0.05229431390762329,1,-0.004159911535680294,1,0.006663850508630276,1,-0.08588709682226181,1
03/09/26 14:44:45.653917184,-0.1596714109182358,1,-0.0759093388915062,1,0.1757703572511673,1,-0.02082274295389652,1,0.0972200483083725,1,-0.03542142733931541,1
03/09/26 14:44:45.663334656,0.2118313014507294,1,0.06644622981548309,1,0.08449917286634445,1,-0.01131457462906837,1,0.04367121309041977,1,-0.01763295941054821,1
03/09/26 14:44:45.672667904,0.03799543529748917,1,-0.01152775995433331,1,0.1088335663080215,1,-0.01056759338825941,1,0.05264312773942947,1,-0.009243940934538841,1
03/09/26 14:44:45.683107328,0.02804062329232693,1,0.01437162142246962,1,0.04726022481918335,1,-0.003686151932924986,1,0.03110932745039463,1,-0.004625187255442142,1
03/09/26 14:44:45.693746176,0.06178231537342072,1,0.03485598415136337,1,0.06836289912462234,1,-0.003355310298502445,1,0.015591393224895,1,-0.001827942673116922,1
03/09/26 14:44:45.704282368,0.07597871124744415,1,0.0265506524592638,1,0.07373802363872528,1,0.0002663764462340623,1,0.009191537275910378,1,-0.0007971834857016802,1
03/09/26 14:44:45.714715136,0.05651536583900452,1,-0.01230297982692719,1,-0.01800667122006416,1,0.0008006750140339136,1,0.006105562672019005,1,9.00684462976642e-05,1
03/09/26 14:44:45.725057536,0.02646299079060555,1,0.005466282367706299,1,-0.01454174891114235,1,-0.001267863437533379,1,0.002469985745847225,1,0.000363793398719281,1
03/09/26 14:44:45.735305216,0.01836487837135792,1,0.003914736211299896,1,0.03655683249235153,1,-0.00125342735555023,1,0.001480468432419002,1,0.0006900662556290627,1
03/09/26 14:44:45.745452544,0.012177849188447,1,0.006220794748514891,1,0.02500896528363228,1,-0.002027943963184953,1,0.0002223244518972933,1,0.000748376187402755,1
03/09/26 14:44:45.755499520,0.000730032566934824,1,0.007739305030554533,1,0.03228759765625,1,-0.002342888154089451,1,-0.0009707339340820909,1,0.0006604393129236996,1
03/09/26 14:44:45.765448192,0.007508773356676102,1,0.005400591529905796,1,0.05725101381540298,1,-0.0009868787601590157,1,-0.001285673584789038,1,0.0008973461226560175,1
03/09/26 14:44:45.775300096,0.00330499978736043,1,0.0128021240234375,1,0.08116109669208527,1,-8.194365364033729e-05,1,-0.0005702997441403568,1,0.0006650983123108745,1
03/09/26 14:44:45.785055744,-0.001695110928267241,1,3.979087341576815e-05,1,0.06162553653120995,1,-6.881373701617122e-05,1,1.408479329256807e-05,1,0.0004791989049408585,1
03/09/26 14:44:45.794717696,-0.001264987047761679,1,3.374979132786393e-05,1,0.02995889820158482,1,-0.0001467544061597437,1,-0.0001184440334327519,1,0.0005761842476204038,1
03/09/26 14:44:45.804284672,0.006001785863190889,1,3.718095831573009e-05,1,0.02619427256286144,1,0.0004641573177650571,1,-0.000680634577292949,1,0.0008109471527859569,1
03/09/26 14:44:45.813757696,0.01056057214736938,1,-0.008256892673671246,1,0.0302034355700016,1,0.0002180124283768237,1,-0.001124957459978759,1,0.0006234699976630509,1
03/09/26 14:44:45.823138304,0.007450962904840708,1,-0.008663213811814785,1,0.03425637260079384,1,-0.0009034821414388716,1,-0.001352051738649607,1,0.0008370971772819757,1
03/09/26 14:44:45.832579072,-0.0002966779284179211,1,-0.009023681282997131,1,0.0458555743098259,1,-0.00223412225022912,1,-0.001485281041823328,1,0.0009263285901397467,1
03/09/26 14:44:45.843297024,-0.002551815006881952,1,-0.007062485441565514,1,0.06090785935521126,1,-0.003355418099090457,1,-0.001693406840786338,1,0.0009832736104726791,1
03/09/26 14:44:45.853911296,-0.003442588495090604,1,0.003668601624667645,1,0.07205066084861755,1,-0.003841241123154759,1,-0.001686961972154677,1,0.001098726177588105,1
03/09/26 14:44:45.864424448,-0.003198759630322456,1,0.009272500872612,1,0.06680525094270706,1,-0.002939395373687148,1,-0.0009787962771952152,1,0.001187998917885125,1
03/09/26 14:44:45.874835968,-0.003568216226994991,1,0.01383640989661217,1,0.05608175322413445,1,-0.001627678982913494,1,-0.0008300621411763132,1,0.001498939818702638,1
03/09/26 14:44:45.885145344,-0.001737498911097646,1,0.01278916280716658,1,0.04973367601633072,1,-0.0003565584484022111,1,-0.0001910822174977511,1,0.001404700451530516,1
03/09/26 14:44:45.895354112,-0.00225035659968853,1,0.01131151709705591,1,0.04365439340472221,1,-0.0003448599018156528,1,-6.058647704776376e-05,1,0.001034339773468673,1
03/09/26 14:44:45.905464576,0.00155928498134017,1,0.006882621441036463,1,0.03488263860344887,1,-0.0002606649650260806,1,0.0003051103849429637,1,0.0009387149475514889,1
03/09/26 14:44:45.915475456,0.004399930592626333,1,0.003337652189657092,1,0.03166509419679642,1,-0.0008008326403796673,1,0.0003150381962768734,1,0.001057709334418178,1
03/09/26 14:44:45.925393920,0.00501211965456605,1,0.003468503942713141,1,0.03512878715991974,1,-0.0008808771381154656,1,0.0002426634018775076,1,0.0006404161104001105,1
03/09/26 14:44:45.935227392,0.00550013454630971,1,0.008303952403366566,1,0.03939387202262878,1,-0.0009689460275694728,1,5.057601083535701e-05,1,0.0007889350526966155,1
03/09/26 14:44:45.944968960,0.002912594703957438,1,0.0102086216211319,1,0.04524706304073334,1,-0.0004596642393153161,1,5.11679445480695e-06,1,0.0006531652179546654,1
03/09/26 14:44:45.954618112,0.00339706358499825,1,0.01378302555531263,1,0.04377968236804008,1,-0.0001070986909326166,1,0.0001838844764279202,1,0.000688672240357846,1
03/09/26 14:44:45.964176128,0.007364383898675442,1,0.0136584835126996,1,0.0395187996327877,1,0.0001050978753482923,1,0.0005739466869272292,1,0.0006720263627357781,1
03/09/26 14:44:45.973640704,0.01041738875210285,1,0.01241196040064096,1,0.03334774076938629,1,0.000236203835811466,1,0.0006770641775801778,1,0.0006998841417953372,1
03/09/26 14:44:45.983013376,0.0191184189170599,1,0.01222668960690498,1,0.02977594919502735,1,0.000164028606377542,1,0.0005709838005714118,1,0.0006316060898825526,1
03/09/26 14:44:45.992597504,0.01842896267771721,1,0.01048732735216618,1,0.03137648105621338,1,0.0001881200878415257,1,0.0001570654276292771,1,0.0009878618875518441,1
03/09/26 14:44:46.003284480,0.01864260248839855,1,0.009879052639007568,1,0.03866836801171303,1,-0.0003081499016843736,1,-0.0002096453827107325,1,0.001188786700367928,1
03/09/26 14:44:46.013870080,0.01356776151806116,1,0.01145603414624929,1,0.0477040596306324,1,-0.0007179522654041648,1,-0.0008301896741613746,1,0.001151973381638527,1
03/09/26 14:44:46.024354560,0.01078495569527149,1,0.01198849827051163,1,0.05333960056304932,1,-0.0008131403592415154,1,-0.0011388756101951,1,0.001258147414773703,1
03/09/26 14:44:46.034740992,0.008479373529553413,1,0.0120873749256134,1,0.05723010003566742,1,-0.0007453602156601846,1,-0.000804573530331254,1,0.001240647630766034,1
03/09/26 14:44:46.045027328,0.00640785088762641,1,0.009897881187498569,1,0.05704681202769279,1,-0.0004577530780807137,1,-0.000675755669362843,1,0.001391661004163325,1
03/09/26 14:44:46.055213568,0.003970620688050985,1,0.009871105663478374,1,0.0547642894089222,1,-0.0005969589692540467,1,-0.0004170440952293575,1,0.00108498556073755,1
03/09/26 14:44:46.065299200,0.003906869795173407,1,0.0091760428622365,1,0.04934399574995041,1,-0.0003302569384686649,1,-0.0003680179361253977,1,0.0007712316582910717,1
03/09/26 14:44:46.075287296,0.00409263838082552,1,0.008538765832781792,1,0.04864346608519554,1,-0.0003877156705129892,1,-2.208123623859137e-05,1,0.0007416532607749104,1
03/09/26 14:44:46.085176832,0.002363351872190833,1,0.007917287759482861,1,0.04654435813426971,1,-7.539860962424427e-05,1,7.587327854707837e-05,1,0.001009739120490849,1
03/09/26 14:44:46.094971648,0.002801603637635708,1,0.009322402067482471,1,0.04430824890732765,1,-0.0002241112088086084,1,0.000128410683828406,1,0.0008877301006577909,1
03/09/26 14:44:46.104670208,0.0003317879163660109,1,0.007668489124625921,1,0.04037056118249893,1,4.632943091564812e-05,1,0.0002169868384953588,1,0.000932910421397537,1
03/09/26 14:44:46.114274816,0.002682644408196211,1,0.006820572074502707,1,0.03496816009283066,1,0.000168973405379802,1,0.0003991693374700844,1,0.001047655241563916,1
03/09/26 14:44:46.123784448,0.004125790204852819,1,0.006934703327715397,1,0.03252171725034714,1,0.0003388255427125841,1,0.0003523701161611825,1,0.001016466645523906,1
03/09/26 14:44:46.133201408,0.006617207545787096,1,0.02102398686110973,1,0.05500102788209915,1,0.001084674149751663,1,-0.0007576103089377284,1,0.001149431453086436,1
03/09/26 14:44:46.142541824,0.007392315194010735,1,0.03323129937052727,1,0.1272485256195068,1,0.005596013274043798,1,-0.002656681928783655,1,0.0009840585989877582,1
03/09/26 14:44:46.152543744,0.2236516922712326,1,0.04891682043671608,1,0.05995189398527145,1,0.01434855815023184,1,-0.03525322675704956,1,0.0009322242112830281,1
03/09/26 14:44:46.163195648,-0.1538486778736115,1,0.008050091564655304,1,0.1164395064115524,1,0.02842230536043644,1,-0.1164279878139496,1,0.002481878502294421,1
03/09/26 14:44:46.173748224,-0.05776502192020416,1,0.03337972611188889,1,0.1103339418768883,1,0.01779631711542606,1,-0.05598489195108414,1,0.002348391804844141,1
03/09/26 14:44:46.184200448,0.03641479834914207,1,-0.01259756926447153,1,0.02358436025679111,1,0.01138580124825239,1,-0.02498515695333481,1,0.001170383533462882,1
03/09/26 14:44:46.194553088,0.05128954723477364,1,-0.01782126538455486,1,0.01652255654335022,1,0.005195027682930231,1,-0.01318423449993134,1,0.0003158386680297554,1
03/09/26 14:44:46.204808448,0.03056303597986698,1,-0.03008496947586536,1,-0.0008282484486699104,1,0.002915519988164306,1,-0.003923636861145496,1,-0.0005572136724367738,1
03/09/26 14:44:46.214980864,0.01399700343608856,1,0.001504407846368849,1,-0.01410723477602005,1,0.0008899725507944822,1,0.0003460738225840032,1,-0.000938104058150202,1
03/09/26 14:44:46.225056000,0.003384705632925034,1,0.02423348091542721,1,0.008172886446118355,1,0.001656921114772558,1,0.004921664949506521,1,-0.001622633775696158,1
03/09/26 14:44:46.235035904,0.01932289637625217,1,0.01720328815281391,1,-0.034488745033741,1,0.003840108867734671,1,0.006525378208607435,1,-0.001419855048879981,1
03/09/26 14:44:46.244921344,0.02269762568175793,1,0.01057688239961863,1,-0.0387064591050148,1,0.005327999591827393,1,0.00527432793751359,1,-0.0004450319684110582,1
03/09/26 14:44:46.254711040,0.0404675304889679,1,-0.006316804327070713,1,-0.0310891792178154,1,0.004998866934329271,1,0.003656030865386128,1,1.531605084892362e-05,1
03/09/26 14:44:46.264406784,0.05455035343766212,1,-0.00469634123146534,1,-0.03162901476025581,1,0.002989622065797448,1,-0.0001872131542768329,1,0.0003901901072822511,1
03/09/26 14:44:46.274011392,0.04111381992697716,1,-0.002061241306364536,1,0.001968946773558855,1,0.002039314480498433,1,-0.004455801099538803,1,0.0005581873701885343,1
03/09/26 14:44:46.283524096,0.02239558659493923,1,0.002908117370679975,1,0.01992556639015675,1,0.001218119170516729,1,-0.006925784051418304,1,0.0004121538368053734,1
03/09/26 14:44:46.292945664,0.004531088285148144,1,0.01105978898704052,1,0.009250868111848831,1,3.581880446290597e-05,1,-0.008076042868196964,1,0.0004622836131602526,1
03/09/26 14:44:46.302276096,-0.0001586094731464982,1,0.005159955471754074,1,0.001571446191519499,1,-0.0005610203370451927,1,-0.007684431038796902,1,0.0006568925455212593,1
03/09/26 14:44:46.312864512,0.01155536249279976,1,0.002479731570929289,1,-0.002686458174139261,1,-0.001337631023488939,1,-0.006974659860134125,1,0.000758887326810509,1
03/09/26 14:44:46.323500288,0.01432803086936474,1,-0.0008873734041117132,1,0.007398842368274927,1,-0.002821393543854356,1,-0.005397822242230177,1,0.0008674644632264972,1
03/09/26 14:44:46.334033408,0.009050899185240269,1,0.005323976278305054,1,0.02456518262624741,1,-0.004319189582020044,1,-0.004215197172015905,1,0.001336989109404385,1
03/09/26 14:44:46.344467968,0.004599290434271097,1,0.02009827643632889,1,0.07617403566837311,1,-0.00395860243588686,1,-0.003337644040584564,1,0.002241822658106685,1
03/09/26 14:44:46.354811136,0.02661217004060745,1,0.04687271267175674,1,0.1317239552736282,1,-0.002165637677535415,1,-0.00183257379103452,1,0.00566209526732564,1
03/09/26 14:44:46.365055744,0.2024472951889038,1,0.251837819814682,1,0.1694488972425461,1,-0.0001155517529696226,1,0.002974739298224449,1,0.01843668892979622,1
03/09/26 14:44:46.375202304,0.3550185263156891,1,0.2507025301456451,1,0.1296139657497406,1,0.001398557797074318,1,-0.005758757703006268,1,0.06342417001724243,1
03/09/26 14:44:46.385254400,0.1979882419109344,1,0.1544561833143234,1,0.1290490627288818,1,-0.000887984992004931,1,-0.003805610118433833,1,0.09506208449602127,1
03/09/26 14:44:46.395209728,-0.1196686252951622,1,-0.08088149875402451,1,0.07313866913318634,1,0.001065986230969429,1,0.001966902753338218,1,0.08790301531553268,1
03/09/26 14:44:46.405069056,-0.1260555535554886,1,-0.06687295436859131,1,-0.01093902625143528,1,0.0002370780566707253,1,-0.003400710644200444,1,0.04885955899953842,1
03/09/26 14:44:46.414835456,-0.1185647770762444,1,0.01625869795680046,1,0.05736455693840981,1,-8.84298060555011e-05,1,-0.0059183812700212,1,0.007180979941040277,1
03/09/26 14:44:46.424507392,-0.04265882447361946,1,0.01276948768645525,1,0.09765676409006119,1,0.001556164468638599,1,0.00172123487573117,1,-0.02992873266339302,1
03/09/26 14:44:46.434084608,0.06627324968576431,1,0.05029969662427902,1,0.07188038527965546,1,0.001662160619162023,1,0.007849198766052723,1,-0.05493656918406487,1
03/09/26 14:44:46.443578624,-0.1336409002542496,1,-0.1455970704555511,1,0.07542203366756439,1,0.002798407804220915,1,0.005513921845704317,1,-0.05299505218863487,1
03/09/26 14:44:46.452986880,-0.1601725220680237,1,-0.1653315871953964,1,0.05202005058526993,1,0.005285259336233139,1,0.003368721110746264,1,-0.0353219211101532,1
03/09/26 14:44:46.462454528,-0.09112854301929474,1,-0.08432459831237793,1,0.03237950801849365,1,0.005436149425804615,1,0.0009881611913442612,1,-0.01933412253856659,1
03/09/26 14:44:46.473174528,-0.03687183186411858,1,-0.05462529510259628,1,-0.002270319731906056,1,0.003615316934883595,1,-0.000521539943292737,1,-0.01087633892893791,1
03/09/26 14:44:46.483793920,-0.01777382753789425,1,-0.03607039153575897,1,-0.02272508852183819,1,0.001279675168916583,1,-0.0008251049439422786,1,-0.006294515915215015,1
03/09/26 14:44:46.494315008,0.0007928236154839396,1,-0.01556599047034979,1,-0.02019543200731277,1,-0.0002192607498727739,1,-0.001100606634281576,1,-0.003810521680861712,1
03/09/26 14:44:46.504735744,-0.009387540630996227,1,0.005390104372054338,1,0.04430504143238068,1,-0.0007276507094502449,1,-0.001009341678582132,1,-0.002006582915782928,1
03/09/26 14:44:46.515063296,-0.02018523588776588,1,0.01973133720457554,1,0.08463472127914429,1,0.001027987687848508,1,0.0009335733484476805,1,-0.0008781091892160475,1
03/09/26 14:44:46.525294336,-0.02557795122265816,1,0.02298395521938801,1,0.09494989365339279,1,0.003005776088684797,1,0.002288932912051678,1,-0.0003672953462228179,1
03/09/26 14:44:46.535428096,-0.01563853584229946,1,0.02279562689363956,1,0.09690388292074203,1,0.005271048285067081,1,0.002678744727745652,1,-0.0002517557004466653,1
03/09/26 14:44:46.545469440,0.002161737531423569,1,0.01065296493470669,1,0.06401956081390381,1,0.00727932108566165,1,0.00358668458648026,1,-0.0002900918480008841,1
03/09/26 14:44:46.555417344,0.01165492366999388,1,-0.008844563737511635,1,-0.008632002398371696,1,0.005714654922485352,1,0.003425475209951401,1,-0.0001552676258143038,1
03/09/26 14:44:46.565269248,0.01420084107667208,1,-0.01362535730004311,1,-0.04153692722320557,1,0.002427029889076948,1,0.002079517114907503,1,0.0002334027085453272,1
03/09/26 14:44:46.575025152,0.01796853542327881,1,-0.004934167955070734,1,-0.02200353145599365,1,0.0007444916991516948,1,0.001271515851840377,1,0.0004976060590706766,1
03/09/26 14:44:46.584687104,0.006313303019851446,1,0.005059617105871439,1,0.01138376258313656,1,-0.0001598539820406586,1,0.001416875282302499,1,0.0004949063877575099,1
03/09/26 14:44:46.594254592,-0.0005464939749799669,1,0.01329134777188301,1,0.04022812843322754,1,0.0006014226237311959,1,0.002044071676209569,1,0.0006055240519344807,1
03/09/26 14:44:46.603728384,0.002142529003322124,1,0.02279927581548691,1,0.07315853238105774,1,0.002063493710011244,1,0.001125893322750926,1,0.0005960497073829174,1
03/09/26 14:44:46.613112832,0.004879042506217957,1,0.0191282145678997,1,0.1036439687013626,1,0.004557892680168152,1,0.001618837704882026,1,0.0005570026696659625,1
03/09/26 14:44:46.622703104,0.007453279569745064,1,0.004508437588810921,1,0.07844920456409454,1,0.005154532380402088,1,0.002116320421919227,1,0.0004484601086005569,1
03/09/26 14:44:46.633383168,0.005036376416683197,1,-0.004112671595066786,1,0.0463641993701458,1,0.004344700369983912,1,0.001766917994245887,1,4.529952275333926e-05,1
03/09/26 14:44:46.643961088,0.01224749535322189,1,-0.0161184873431921,1,0.01618706248700619,1,0.002642510225996375,1,0.001323932898230851,1,0.0003559226170182228,1
03/09/26 14:44:46.654442752,0.01677755825221539,1,-0.01787461712956429,1,0.00683743879199028,1,-4.052833537571132e-05,1,-0.0001107374046114273,1,0.00046009078505449,1
03/09/26 14:44:46.664822784,0.01568184792995453,1,-0.01125956885516644,1,0.01006852556020021,1,-0.002401680219918489,1,-0.0008190097869373858,1,0.000770353595726192,1
03/09/26 14:44:46.675101184,0.007261963561177254,1,0.003118535736575723,1,0.02497327886521816,1,-0.003710751887410879,1,-0.001703824498690665,1,0.0008756720926612616,1
03/09/26 14:44:46.685281024,-0.00230266572907567,1,0.01337388344109058,1,0.05968818813562393,1,-0.00243210606276989,1,-0.001190772978588939,1,0.0008704877109266818,1
03/09/26 14:44:46.695360768,-0.01391489431262016,1,0.01751692779362202,1,0.08474178612232208,1,-0.001019713585264981,1,0.0006202920922078192,1,0.0003835241659544408,1
03/09/26 14:44:46.705341696,-0.01472370326519012,1,0.01009492948651314,1,0.06916747242212296,1,-0.000323160900734365,1,0.00167686608619988,1,0.0004009719996247441,1
03/09/26 14:44:46.715227136,-0.006660850718617439,1,0.005255681462585926,1,0.04483279585838318,1,-0.0002827676071319729,1,0.002081497339531779,1,0.0005666250945068896,1
03/09/26 14:44:46.725017088,0.004060984589159489,1,0.003387719858437777,1,0.03152823820710182,1,-0.00043012312380597,1,0.002603585133329034,1,0.0005709383403882384,1
03/09/26 14:44:46.734711552,0.008721663616597652,1,0.002024324610829353,1,0.04378510266542435,1,-0.001086019910871983,1,0.001978960353881121,1,0.0005448753363452852,1
03/09/26 14:44:46.744311552,0.006151385605335236,1,0.007804209366440773,1,0.0515352189540863,1,-0.001094268052838743,1,0.001760694547556341,1,0.0005551528302021325,1
03/09/26 14:44:46.753818112,-0.000619715079665184,1,0.014184245839715,1,0.06779120117425919,1,-0.0008533697691746056,1,0.001145825255662203,1,0.0007349579245783389,1
03/09/26 14:44:46.763232512,0.001176625490188599,1,0.01845676638185978,1,0.07890991121530533,1,0.0005928768659941852,1,0.0004054911842104048,1,0.0006930027739144862,1
03/09/26 14:44:46.772560640,0.003520088735967875,1,0.01688654534518719,1,0.07326347380876541,1,0.002113244729116559,1,-0.0001162409025710076,1,0.0005613240646198392,1
03/09/26 14:44:46.782723072,0.02640139870345592,1,-0.002386207459494472,1,0.0290165226906538,1,0.001233663642778993,1,-0.002112819813191891,1,0.0006217015907168388,1
03/09/26 14:44:46.793373184,0.07140807062387466,1,-0.02571544609963894,1,-0.04513944685459137,1,-0.005687872879207134,1,-0.01724318601191044,1,0.00078456976916641,1
03/09/26 14:44:46.803921664,0.0726640447974205,1,-0.02446510642766953,1,-0.05296723544597626,1,-0.01687713526189327,1,-0.04357495903968811,1,0.0009878798155114055,1
03/09/26 14:44:46.814368256,0.02641154825687408,1,-0.001718238461762667,1,0.004321062006056309,1,-0.02358617633581161,1,-0.06028100103139877,1,0.0009550427203066647,1
03/09/26 14:44:46.824711936,-0.01883231662213802,1,0.01796370930969715,1,0.04799095541238785,1,-0.02342737838625908,1,-0.05824770778417587,1,0.0007227947935461998,1
03/09/26 14:44:46.834956544,-0.02942072972655296,1,0.02505937963724136,1,0.06033043190836906,1,-0.0185078326612711,1,-0.04644660651683807,1,0.0008679375750944018,1
03/09/26 14:44:46.845102592,-0.0111380061134696,1,0.02204721979796886,1,0.0600038468837738,1,-0.01338440924882889,1,-0.03520428016781807,1,0.0009429295314475894,1
03/09/26 14:44:46.855157248,0.002657758072018623,1,0.01091180369257927,1,0.04400958493351936,1,-0.01093491911888123,1,-0.02943750657141209,1,0.0008853273466229439,1
03/09/26 14:44:46.865113856,0.01877572946250439,1,-0.001340213813818991,1,0.01769592612981796,1,-0.01181425433605909,1,-0.03144115209579468,1,0.001017523230984807,1
03/09/26 14:44:46.874973184,0.03140074387192726,1,-0.003287979867309332,1,-0.003978569991886616,1,-0.01501421444118023,1,-0.04054821655154228,1,0.0009887907654047012,1
03/09/26 14:44:46.884737024,0.02136535197496414,1,0.006660374347120523,1,0.008603334426879883,1,-0.01848916336894035,1,-0.05215908214449883,1,0.0007774049299769104,1
03/09/26 14:44:46.894405120,-0.03270622715353966,1,0.02457783557474613,1,0.06167140603065491,1,-0.01778884790837765,1,-0.05287057161331177,1,0.0008680609171278775,1
03/09/26 14:44:46.903979520,-0.1191657185554504,1,0.05134636163711548,1,0.1382881700992584,1,-0.008618748746812344,1,-0.02695913054049015,1,0.0006763104465790093,1
03/09/26 14:44:46.913461760,-0.1945486664772034,1,0.07199652493000031,1,0.2147938311100006,1,0.01001040451228619,1,0.02995620481669903,1,0.0004006547096651047,1
03/09/26 14:44:46.922851328,-0.2341011166572571,1,0.08676297962665558,1,0.2668305039405823,1,0.03657252714037895,1,0.1108779460191727,1,0.0001386310032103211,1
03/09/26 14:44:46.932150016,-0.04259274899959564,1,0.01654943078756332,1,0.07923445105552673,1,0.06254197657108307,1,0.1791908740997314,1,-0.0002692582202143967,1
03/09/26 14:44:46.942735616,0.2260036468505859,1,-0.1109014898538589,1,-0.3132716417312622,1,0.02739003114402294,1,0.09057416766881943,1,0.0001691998186288401,1
03/09/26 14:44:46.953372928,0.1613533943891525,1,-0.02158074826002121,1,-0.1596178114414215,1,0.01684905029833317,1,0.05081348866224289,1,0.0009003150626085699,1
03/09/26 14:44:46.963911936,0.12325569242239,1,-0.02076551504433155,1,-0.1178203150629997,1,0.008272159844636917,1,0.03062674775719643,1,0.0007830433314666152,1
03/09/26 14:44:46.974352128,0.07242680341005325,1,-0.02998307347297668,1,-0.1469659060239792,1,-0.003595166141167283,1,0.01413881778717041,1,0.001642474671825767,1
03/09/26 14:44:46.984692736,0.02295901253819466,1,-0.03985186666250229,1,-0.1089954450726509,1,-0.009144225157797337,1,0.005818556994199753,1,0.001898156828247011,1
03/09/26 14:44:46.994938624,0.03553317487239838,1,-0.04344358295202255,1,-0.09152037650346756,1,-0.01355309598147869,1,-0.001825800631195307,1,0.00224472745321691,1
03/09/26 14:44:47.005089792,-0.008666183799505234,1,-0.001569629414007068,1,0.02394667454063892,1,-0.01809796504676342,1,-0.005181033164262772,1,0.002277337713167071,1
03/09/26 14:44:47.015144960,0.03488165512681007,1,0.01143088191747665,1,0.04924002289772034,1,-0.02157806605100632,1,-0.00363104185089469,1,-0.001145685790106654,1
03/09/26 14:44:47.025103104,0.3497176468372345,1,0.2253209054470062,1,0.07995069026947021,1,-0.02348771877586842,1,-0.00574433384463191,1,-0.05778464674949646,1
03/09/26 14:44:47.034965504,0.07946129143238068,1,0.2860211133956909,1,0.3518814444541931,1,-0.02071086131036282,1,0.02328717708587646,1,-0.2104360461235046,1
03/09/26 14:44:47.044732416,-0.8054736256599426,1,-0.1540900468826294,1,0.556007444858551,1,-0.05212196707725525,1,0.2234597653150558,1,-0.2363537102937698,1
03/09/26 14:44:47.054405632,-0.03134536743164062,1,-0.1751158833503723,1,0.08488063514232635,1,-0.07767610996961594,1,0.3626744449138641,1,-0.1282868087291718,1
03/09/26 14:44:47.063988480,0.3666805624961853,1,0.0005076418165117502,1,-0.1554616391658783,1,-0.015782305970788,1,0.08278632909059525,1,-0.06059836968779564,1
03/09/26 14:44:47.073478656,-0.006253559142351151,1,0.004508556332439184,1,0.005162933375686407,1,0.01040755957365036,1,-0.02464741468429565,1,-0.02557570859789848,1
03/09/26 14:44:47.082877184,-0.1488909870386124,1,-0.1158487945795059,1,0.04324289038777351,1,0.008981261402368546,1,-0.002228830009698868,1,-0.01282702293246984,1
03/09/26 14:44:47.092334848,-0.2038245499134064,1,-0.07187732309103012,1,-0.02393030375242233,1,-0.01429044641554356,1,0.07013072818517685,1,-0.004658578429371119,1
03/09/26 14:44:47.103046656,0.2685392200946808,1,0.05397351458668709,1,-0.03904373198747635,1,-0.02506948821246624,1,0.1134313270449638,1,6.069469964131713e-05,1
03/09/26 14:44:47.113654016,0.1200847551226616,1,-0.02428621426224709,1,-0.01000181585550308,1,-0.005667940247803926,1,0.00681467168033123,1,0.005773886106908321,1
03/09/26 14:44:47.124158720,-0.06742604076862335,1,0.02951264195144176,1,0.1155226603150368,1,-0.004855407401919365,1,-0.005693338811397552,1,0.009029492735862732,1
03/09/26 14:44:47.134569728,-0.1427483111619949,1,0.00484092254191637,1,0.1533438712358475,1,-0.008275882340967655,1,0.03199915960431099,1,0.01334477867931128,1
03/09/26 14:44:47.144880128,0.221080556511879,1,0.06285499781370163,1,0.05107418447732925,1,-0.003417784348130226,1,0.02775838784873486,1,0.01068584155291319,1
03/09/26 14:44:47.155089152,-0.02201704308390617,1,0.01203869748860598,1,0.0807698667049408,1,0.004086908418685198,1,0.005742327310144901,1,0.01306380704045296,1
03/09/26 14:44:47.165200896,0.06431096792221069,1,0.007456296123564243,1,0.0077995415776968,1,-0.0001083367096725851,1,0.02270609326660633,1,0.01321562472730875,1
03/09/26 14:44:47.175213568,-0.03133554011583328,1,-0.013459462672472,1,-0.01581610180437565,1,-0.003277103882282972,1,0.008973587304353714,1,0.009360713884234428,1
03/09/26 14:44:47.185127424,0.01668416522443295,1,0.01510547567158937,1,-0.005621008109301329,1,-0.003531113965436816,1,0.00273178075440228,1,0.005932370666414499,1
03/09/26 14:44:47.194946560,0.05214893072843552,1,0.005787587724626064,1,0.004822703078389168,1,-0.003039896488189697,1,0.002176860813051462,1,0.004334606230258942,1
03/09/26 14:44:47.204671232,0.03305715322494507,1,0.02873572334647179,1,0.05267434567213058,1,-0.002082459861412644,1,0.002117580734193325,1,0.003331735963001847,1
03/09/26 14:44:47.214300928,-0.005362583324313164,1,0.02010315097868443,1,0.08744428306818008,1,0.001090660924091935,1,0.001732130534946918,1,0.0025205013807863,1
03/09/26 14:44:47.223835648,-0.02270146645605564,1,0.008927549235522747,1,0.07865544408559799,1,0.002260750159621239,1,0.0007130115991458297,1,0.002033515833318233,1
03/09/26 14:44:47.233278720,-0.01769973523914814,1,0.001667594769969583,1,0.05499790236353874,1,0.001738623948767781,1,0.001348089193925261,1,0.001497255871072412,1
03/09/26 14:44:47.242651648,0.01073867548257113,1,-0.003024518024176359,1,0.01827593334019184,1,-0.0005385039839893579,1,0.001697447500191629,1,0.0010407161898911,1
03/09/26 14:44:47.252385024,0.02924332022666931,1,0.005564083345234394,1,-0.002745024859905243,1,-0.001425930997356772,1,0.001145034562796354,1,0.0008494863868691027,1
03/09/26 14:44:47.263065600,0.03083399683237076,1,0.008192178793251514,1,-0.009873468428850174,1,-0.0008141318103298545,1,0.0005612954264506698,1,0.0007685882737860084,1
03/09/26 14:44:47.273642752,0.01348982565104961,1,0.01303388178348541,1,0.0117874126881361,1,-0.0001582249533385038,1,-0.0003780302067752928,1,0.000887752918060869,1
03/09/26 14:44:47.284116224,-0.001827740692533553,1,0.01119120139628649,1,0.04839226230978966,1,0.0004969903966411948,1,-0.0004750612715724856,1,0.0008056159131228924,1
03/09/26 14:44:47.294489856,-0.006555124185979366,1,0.007182725239545107,1,0.05907117575407028,1,0.0007058075862005353,1,2.485211007297039e-05,1,0.001024576835334301,1
03/09/26 14:44:47.304763392,-0.001757436781190336,1,0.006225336343050003,1,0.06210775300860405,1,0.0006637289188802242,1,2.019917883444577e-05,1,0.0009511476382613182,1
03/09/26 14:44:47.314936832,0.006991355214267969,1,0.006196867674589157,1,0.05647103115916252,1,0.0003633892629295588,1,0.0003032884560525417,1,0.0007612584158778191,1
03/09/26 14:44:47.325010432,0.01160489022731781,1,0.004910033661872149,1,0.04547650367021561,1,0.0002104519080603495,1,-0.0001970339362742379,1,0.0009394923108629882,1
03/09/26 14:44:47.334985472,0.01050580479204655,1,0.003482042578980327,1,0.04032041504979134,1,-6.729365850333124e-05,1,-0.0002540853747632354,1,0.0009561387123540044,1
03/09/26 14:44:47.344862976,0.006695779506117105,1,0.006066261325031519,1,0.03872203081846237,1,-0.0004267507174517959,1,-9.558120655128732e-05,1,0.0009166008094325662,1
03/09/26 14:44:47.354644480,0.008540516719222069,1,0.009081701748073101,1,0.04279216006398201,1,-0.0007317767012864351,1,1.090289879357442e-05,1,0.001173079828731716,1
03/09/26 14:44:47.364331264,0.01361147500574589,1,0.01405896153301001,1,0.0458194799721241,1,-0.0002682737831491977,1,0.0001377399457851425,1,0.001355029060505331,1
03/09/26 14:44:47.373923072,0.0225071981549263,1,0.0183420367538929,1,0.0505480095744133,1,2.658920857356861e-05,1,0.00042396952630952,1,0.0009786078007891774,1
03/09/26 14:44:47.383420672,0.02360705099999905,1,0.02492750436067581,1,0.04842280596494675,1,0.0007565607083961368,1,0.0001287476916331798,1,0.001206425949931145,1
03/09/26 14:44:47.392826624,0.0243032518774271,1,0.0221308246254921,1,0.03880219534039497,1,0.00127019954379648,1,0.0001588319428265095,1,0.0007759229047223926,1
03/09/26 14:44:47.402151168,0.02839086204767227,1,0.02440742403268814,1,0.02947407774627209,1,0.001599593204446137,1,-0.0003924618067685515,1,0.001123154419474304,1
03/09/26 14:44:47.412299520,0.03462697938084602,1,0.02197729237377644,1,0.02168198302388191,1,0.001874830923043191,1,-0.0004799524322152138,1,0.001218338031321764,1
03/09/26 14:44:47.422953728,0.03578806295990944,1,0.01782486215233803,1,0.01546451635658741,1,0.001272263703867793,1,-0.001003800192847848,1,0.001411436824128032,1
03/09/26 14:44:47.433507072,0.03341981023550034,1,0.01445867773145437,1,0.02063366770744324,1,0.0009951072279363871,1,-0.001177439815364778,1,0.001249143620952964,1
03/09/26 14:44:47.443962880,0.02451786212623119,1,0.009947983548045158,1,0.04178354144096375,1,0.0007887380197644234,1,-0.001836997224017978,1,0.00154814135748893,1
03/09/26 14:44:47.454319616,0.015489112585783,1,0.03328439220786095,1,0.05217608436942101,1,-0.00034081976627931,1,-0.001897857058793306,1,0.001687700627371669,1
03/09/26 14:44:47.464577536,0.009413644671440125,1,0.01876259967684746,1,0.0726541131734848,1,-0.001565173384733498,1,-0.001450728392228484,1,0.001489382819272578,1
03/09/26 14:44:47.474737152,0.01137746497988701,1,0.01825716532766819,1,0.06409198790788651,1,-0.001247355248779058,1,-0.0006927027134224772,1,0.001040058792568743,1
03/09/26 14:44:47.484797440,-0.008502458222210407,1,0.04252860695123672,1,0.0572965107858181,1,-0.0006338874227367342,1,-0.0003858921700157225,1,0.0004886313108727336,1
03/09/26 14:44:47.494760704,-3.721623215824366e-05,1,0.009201165288686752,1,0.06159702688455582,1,-0.001289812731556594,1,-0.001006866805255413,1,0.0002707045059651136,1
03/09/26 14:44:47.504631808,-0.01147876679897308,1,0.03033415228128433,1,0.0844743400812149,1,-0.0003411885118111968,1,8.504245488438755e-05,1,0.0003095516003668308,1
03/09/26 14:44:47.514421504,-0.01133491657674313,1,0.00627807155251503,1,0.05510576069355011,1,0.001421163091436028,1,0.001437666011042893,1,0.0001876481255749241,1
03/09/26 14:44:47.524119040,-5.414511542767286e-05,1,0.02707628346979618,1,0.04501817375421524,1,0.0004660029662773013,1,0.0002706828818190843,1,-0.0002253760758321732,1
03/09/26 14:44:47.533724672,0.006346368696540594,1,0.01163269951939583,1,0.07144466042518616,1,0.0001127560826716945,1,0.000803325092419982,1,-0.0004639849648810923,1
03/09/26 14:44:47.543240960,0.02339503355324268,1,-0.02189729548990726,1,0.05009200423955917,1,0.001275052316486835,1,0.0004684712621383369,1,-0.0005319436313584447,1
03/09/26 14:44:47.552666880,0.02022930607199669,1,-0.01616627536714077,1,0.03881343826651573,1,0.004196326714009047,1,0.0006975753931328654,1,0.0001838075695559382,1
03/09/26 14:44:47.562002688,0.03882666677236557,1,-0.0402955561876297,1,-0.001338307047262788,1,0.004069859627634287,1,0.0004411603440530598,1,0.001016537076793611,1
03/09/26 14:44:47.572592384,0.03105505369603634,1,-0.02360745519399643,1,0.008961239829659462,1,0.00156515627168119,1,-0.0008201945456676185,1,0.001280135591514409,1
03/09/26 14:44:47.583229696,0.02244208566844463,1,-0.02413617260754108,1,0.01491484325379133,1,8.289924880955368e-05,1,-0.0008959273691289127,1,0.001165624125860631,1
03/09/26 14:44:47.593765120,0.01046469621360302,1,-0.02081800997257233,1,0.02972759306430817,1,-0.002088252222165465,1,-0.00166971911676228,1,0.001396610401570797,1
03/09/26 14:44:47.604198400,-0.001215191907249391,1,0.002678477670997381,1,0.06266924738883972,1,-0.0021526541095227,1,-0.001234887633472681,1,0.001512346556410193,1
03/09/26 14:44:47.614531584,0.0009668729035183787,1,0.008502240292727947,1,0.06419388949871063,1,-0.001024849247187376,1,-6.204914097907022e-05,1,0.0009440174326300621,1
03/09/26 14:44:47.624771328,-0.006835639011114836,1,0.008069583214819431,1,0.06205621361732483,1,-0.0004798866575583816,1,0.001053976244293153,1,0.00100709730759263,1
03/09/26 14:44:47.634913024,0.004418020136654377,1,-0.0001609151950106025,1,0.04216615110635757,1,0.0005641192547045648,1,0.001800535479560494,1,0.0006082961917854846,1
03/09/26 14:44:47.644957184,0.01070295553654432,1,0.0004939300706610084,1,0.01944577135145664,1,0.0002199643931817263,1,0.001924528041854501,1,0.0005721886409446597,1
03/09/26 14:44:47.654907392,0.01463325414806604,1,0.002721793716773391,1,0.008571281097829342,1,-0.0005923752323724329,1,0.001445893198251724,1,0.0001636031083762646,1
03/09/26 14:44:47.664761344,0.02224132977426052,1,-0.001262403326109052,1,-0.00115322507917881,1,-0.001726323505863547,1,0.001373957027681172,1,7.155644198064692e-06,1
03/09/26 14:44:47.674520832,0.01507857628166676,1,0.009613444097340107,1,0.01510827615857124,1,-0.0014735774602741,1,0.0005191416130401194,1,0.0003122860507573932,1
03/09/26 14:44:47.684189440,0.01494165137410164,1,0.01390089280903339,1,0.03090172447264194,1,-0.0005337649490684271,1,0.0002951091446448117,1,0.0004034843295812607,1
03/09/26 14:44:47.693773568,0.008654957637190819,1,0.01242907997220755,1,0.05179840326309204,1,0.0001439151674276218,1,0.0002900774125009775,1,0.0003184314991813153,1
03/09/26 14:44:47.703272448,0.007309209555387497,1,0.01071194093674421,1,0.05899398028850555,1,0.001268824096769094,1,0.0005806187400594354,1,0.0005431167664937675,1
03/09/26 14:44:47.712680704,0.01117295492440462,1,0.008551247417926788,1,0.05475316569209099,1,0.00158661836758256,1,0.0005409333971329033,1,0.0007234656950458884,1
03/09/26 14:44:47.722148352,0.0159829743206501,1,0.01058886107057333,1,0.05147532746195793,1,0.001792082563042641,1,0.0003894943802151829,1,0.0008411950548179448,1
03/09/26 14:44:47.732860160,0.02679533883929253,1,0.01573672704398632,1,0.04013945162296295,1,0.001070625497959554,1,-0.0002563204034231603,1,0.001110836397856474,1
03/09/26 14:44:47.743468288,0.03024002723395824,1,0.02351156249642372,1,0.04118817672133446,1,5.931116174906492e-05,1,-0.0007242361898534,1,0.001177920028567314,1
03/09/26 14:44:47.753976064,0.02741163969039917,1,0.02295871451497078,1,0.04630191624164581,1,-0.0003887275815941393,1,-0.001195588847622275,1,0.001274562207981944,1
03/09/26 14:44:47.764382464,0.02113687247037888,1,0.04427917674183846,1,0.04803484678268433,1,-4.13659363402985e-05,1,-0.001243028324097395,1,0.001133739249780774,1
03/09/26 14:44:47.774686208,0.01646608859300613,1,-0.001755262026563287,1,0.07201581448316574,1,0.0004794390115421265,1,-0.0009797937236726284,1,0.001286833779886365,1
03/09/26 14:44:47.784890112,0.01959327608346939,1,0.05322863534092903,1,0.06072376668453217,1,0.001388457720167935,1,6.511887477245182e-05,1,0.001340345363132656,1
03/09/26 14:44:47.794995456,0.02354258112609386,1,-0.01752384379506111,1,0.05624914914369583,1,0.0009897260461002588,1,-0.0005386766279116273,1,0.0009530069073662162,1
03/09/26 14:44:47.805000960,0.006306224502623081,1,0.05149833112955093,1,0.06444196403026581,1,0.001532336580567062,1,0.0004783341428264976,1,0.001466803019866347,1
03/09/26 14:44:47.814917376,0.0413920134305954,1,0.01504090148955584,1,0.02032576873898506,1,0.0007901621283963323,1,-0.001113833975978196,1,0.0007994506158865988,1
03/09/26 14:44:47.824743168,0.01159423217177391,1,0.007489058189094067,1,0.07754185795783997,1,6.089752787374891e-05,1,-0.0001312728127231821,1,0.0007980613154359162,1
03/09/26 14:44:47.834474752,0.02331726625561714,1,0.02968993782997131,1,0.02107506431639194,1,0.001639461959712207,1,0.0004756120033562183,1,0.0008286181255243719,1
03/09/26 14:44:47.844111872,0.003047839738428593,1,0.003567524719983339,1,0.04431096836924553,1,0.0009892663219943643,1,-0.000748791906516999,1,0.0007444288348779082,1
03/09/26 14:44:47.853655808,-0.001357826986350119,1,0.01537428982555866,1,0.0565386489033699,1,0.001899549504742026,1,0.0006303993286564946,1,0.0008159881108440459,1
03/09/26 14:44:47.863106048,0.009738484397530556,1,0.009932761080563068,1,0.02756500244140625,1,0.002480119001120329,1,0.0003580725751817226,1,0.0007657135720364749,1
03/09/26 14:44:47.872464128,-0.009401643648743629,1,0.006155756302177906,1,0.05188795551657677,1,0.00205848878249526,1,-1.799425444914959e-05,1,0.0007987341959960759,1
03/09/26 14:44:47.882187264,2.516387030482292e-05,1,0.01184321288019419,1,0.03571781143546104,1,0.001876230700872838,1,0.0007770922966301441,1,0.0006931660464033484,1
03/09/26 14:44:47.892871680,-0.002736609196290374,1,0.001653147861361504,1,0.03701566904783249,1,0.0007201334810815752,1,0.0006279373192228377,1,0.0005906557198613882,1
03/09/26 14:44:47.903454208,-0.008233838714659214,1,0.008144848048686981,1,0.03674713894724846,1,0.001258234609849751,1,0.001315659144893289,1,0.0007392198895104229,1
03/09/26 14:44:47.913933312,0.002558207139372826,1,-0.003617108566686511,1,0.0115174725651741,1,0.001198123558424413,1,0.0007124768453650177,1,0.0007381350733339787,1
03/09/26 14:44:47.924310272,-0.0009435572428628802,1,0.00482330285012722,1,0.02482122741639614,1,0.0005420040688477457,1,1.851316483225673e-06,1,0.0008270893595181406,1
03/09/26 14:44:47.934592256,0.0135197639465332,1,-0.008860929869115353,1,0.01973093301057816,1,0.0004406562366057187,1,0.0006683041574433446,1,0.000991602661088109,1
03/09/26 14:44:47.944776192,0.01398103032261133,1,-0.000951710157096386,1,0.02020050399005413,1,-0.0004853297141380608,1,1.071719270839822e-05,1,0.0009258643258363008,1
03/09/26 14:44:47.954860032,0.01639589294791222,1,-0.003828020533546805,1,0.02221091650426388,1,-0.000385488907340914,1,0.000254373939242214,1,0.0007848970708437264,1
03/09/26 14:44:47.964847616,0.02286814898252487,1,0.001108244643546641,1,0.01439686678349972,1,-0.0008790119900368154,1,-0.0002520988928154111,1,0.001106166746467352,1
03/09/26 14:44:47.974738176,0.02291748113930225,1,0.00113552319817245,1,0.02973967418074608,1,-0.000756311637815088,1,-0.0003719574306160212,1,0.0008742482750676572,1
03/09/26 14:44:47.984532224,0.02510020509362221,1,0.01326760649681091,1,0.02244067192077637,1,-0.0003933535481337458,1,-0.0001717435952741653,1,0.0009689021972008049,1
03/09/26 14:44:47.994232064,0.02984295971691608,1,-0.01420861575752497,1,0.03136631473898888,1,-0.0005154050886631012,1,-0.0008420944213867188,1,0.0007587384898215532,1
03/09/26 14:44:48.003839232,0.02089300937950611,1,0.01523165684193373,1,0.03737510740756989,1,8.321220957441255e-05,1,-0.0005828053108416498,1,0.0007748487987555563,1
03/09/26 14:44:48.013352960,0.02212231606245041,1,0.001839279429987073,1,0.04206012561917305,1,-0.00033337197965011,1,-0.0005421355017460883,1,0.0006226348341442645,1
03/09/26 14:44:48.022780928,0.0162765234708786,1,0.006454156711697578,1,0.05754484608769417,1,-0.0008883497794158757,1,-0.0001434934238204733,1,0.0008243824122473598,1
03/09/26 14:44:48.032123648,0.01762066967785358,1,0.02374996431171894,1,0.05608560889959335,1,9.687889541964978e-05,1,0.0003318717353977263,1,0.0008513269713148475,1
03/09/26 14:44:48.042277632,0.01979855261743069,1,0.01345485635101795,1,0.05610545352101326,1,0.0003627740952651948,1,0.0004579630040097982,1,0.0009316645446233451,1
03/09/26 14:44:48.052933632,0.01604263857007027,1,0.01750528998672962,1,0.05991845577955246,1,0.0009591850102879107,1,0.0007560099475085735,1,0.0007539447396993637,1
03/09/26 14:44:48.063488768,0.01619252376258373,1,0.01541124656796455,1,0.04590845480561256,1,0.001353374915197492,1,0.0007391304243355989,1,0.0007167693693190813,1
03/09/26 14:44:48.073944064,0.01376116462051868,1,0.0172759722918272,1,0.04734975099563599,1,0.001377949607558548,1,0.0005526067689061165,1,0.0008887830772437155,1
03/09/26 14:44:48.084298752,0.01929040998220444,1,0.0119126345962286,1,0.04384146630764008,1,0.001491718692705035,1,0.0004024932277388871,1,0.001020881463773549,1
03/09/26 14:44:48.094555392,0.0237814337015152,1,0.01234682649374008,1,0.03847962990403175,1,0.0009907205821946263,1,-9.165330266114324e-05,1,0.001119135762564838,1
03/09/26 14:44:48.104714240,0.02422968298196793,1,0.01036116294562817,1,0.04114843159914017,1,0.001360507099889219,1,-0.0004228617763146758,1,0.001316424924880266,1
03/09/26 14:44:48.114774272,0.02024092338979244,1,0.00768358027562499,1,0.03956843912601471,1,0.0006604359950870275,1,-0.001260430668480694,1,0.00126252812333405,1
03/09/26 14:44:48.124736000,0.009383843280375004,1,0.014015207067132,1,0.05111560225486755,1,6.318804662441835e-05,1,-0.001575983711518347,1,0.001298358547501266,1
03/09/26 14:44:48.134613760,0.0008060227846726775,1,0.01025201380252838,1,0.05342139676213264,1,-9.90817352430895e-05,1,-0.001290814951062202,1,0.0011336007155478,1
03/09/26 14:44:48.144396800,-0.002978090895339847,1,0.01411341223865747,1,0.05097609385848045,1,-0.0003681224479805678,1,-0.0007173515623435378,1,0.001033486565575004,1
03/09/26 14:44:48.154085632,-0.003448168281465769,1,0.01542115863412619,1,0.04748751223087311,1,0.0001578568771947175,1,-0.0004079466743860394,1,0.001016543479636312,1
03/09/26 14:44:48.163680256,0.003178126644343138,1,0.01272801123559475,1,0.03736581653356552,1,0.000422147917561233,1,0.0004250160127412528,1,0.0007841915939934552,1
03/09/26 14:44:48.173182720,0.008104161359369755,1,0.011796317063272,1,0.02848714962601662,1,0.0002173800603486598,1,0.0004519495705608279,1,0.0008617142448201776,1
03/09/26 14:44:48.182592512,0.0122319832444191,1,0.01029787585139275,1,0.02158459275960922,1,0.0001294177782256156,1,0.0005263655330054462,1,0.000963088998105377,1
03/09/26 14:44:48.191911680,0.0164960939437151,1,0.006322795525193214,1,0.01695565320551395,1,-0.0002643069310579449,1,0.0002693378482945263,1,0.0008475120412185788,1
03/09/26 14:44:48.202499584,0.01733536832034588,1,0.00435935240238905,1,0.0161883719265461,1,-0.0008958025136962533,1,0.0002926489687524736,1,0.0006733653717674315,1
03/09/26 14:44:48.213138432,0.01920177787542343,1,0.003927247133105993,1,0.0159591194242239,1,-0.001230119494721293,1,-5.273147689877078e-05,1,0.0007573517505079508,1
03/09/26 14:44:48.223675392,0.01903442293405533,1,0.007225764915347099,1,0.02297484874725342,1,-0.001142969820648432,1,-0.000284450885374099,1,0.0009807884925976396,1
03/09/26 14:44:48.234109696,0.01861788146197796,1,0.004772626329213381,1,0.02887530066072941,1,-0.0004786690406035632,1,-0.0002447628066875041,1,0.0009186891838908195,1
03/09/26 14:44:48.244441088,0.0165520291775465,1,0.007923392578959465,1,0.02992044575512409,1,-5.773891098215245e-05,1,-0.0002489173493813723,1,0.0009434542735107243,1
03/09/26 14:44:48.254671872,0.009661071002483368,1,0.007082651369273663,1,0.03625582531094551,1,-0.0001866577076725662,1,-0.0002893649507313967,1,0.0007950466242618859,1
03/09/26 14:44:48.264804096,0.004648677539080381,1,0.007919120602309704,1,0.04355905950069427,1,-0.0002962933795060962,1,-0.0005059408722445369,1,0.0008290836121886969,1
03/09/26 14:44:48.274837504,0.00278000975959003,1,0.0129734855145216,1,0.05219234898686409,1,-7.446671952493489e-05,1,-0.0005492283962666988,1,0.0008217041031457484,1
03/09/26 14:44:48.284784384,0.003691494697704911,1,0.01050215028226376,1,0.0564289316534996,1,-0.0002450634492561221,1,-4.77131616207771e-05,1,0.001060592825524509,1
03/09/26 14:44:48.294638592,0.005316789261996746,1,0.01051321532577276,1,0.05798477306962013,1,-1.323330798186362e-05,1,0.0001302390883211046,1,0.000875287048984319,1
03/09/26 14:44:48.304397056,0.01113074366003275,1,0.005868849810212851,1,0.04989100620150566,1,0.000920410209801048,1,0.0005712752463296056,1,0.0009722770191729069,1
03/09/26 14:44:48.314059776,0.01525906473398209,1,0.01217772159725428,1,0.04434114322066307,1,0.0004483374359551817,1,0.000851387158036232,1,0.001029411447234452,1
03/09/26 14:44:48.323629312,0.01717256940901279,1,0.007432090118527412,1,0.04315048456192017,1,0.0003052728134207428,1,0.0005890331231057644,1,0.001196640194393694,1
03/09/26 14:44:48.333104384,0.01590735465288162,1,0.005595059599727392,1,0.04434183612465858,1,0.000540616107173264,1,0.0008684993954375386,1,0.001070471247658134,1
03/09/26 14:44:48.342488832,0.01892596669495106,1,0.01029869075864553,1,0.04046222940087318,1,0.0006123737548477948,1,0.0004960186779499054,1,0.0009921626187860966,1
03/09/26 14:44:48.351933440,0.01817597448825836,1,0.0118732238188386,1,0.04667365923523903,1,0.0002169516519643366,1,0.000349968031514436,1,0.000813751423265785,1
03/09/26 14:44:48.362648832,0.02041992917656898,1,0.01355130225419998,1,0.04329045861959457,1,0.0006729747983627021,1,0.0007215281948447227,1,0.0008140962454490364,1
03/09/26 14:44:48.373262336,0.02505426481366158,1,0.006705909036099911,1,0.03325323760509491,1,0.0009839340345934033,1,0.0005951424827799201,1,0.0007452143472619355,1
03/09/26 14:44:48.383775488,0.02603100799024105,1,0.001516313059255481,1,0.03482020273804665,1,0.001281676697544754,1,-0.000107409454358276,1,0.001091368962079287,1
03/09/26 14:44:48.394196224,0.02834969386458397,1,0.004054345190525055,1,0.03312822431325912,1,0.001035421970300376,1,-0.0002184659824706614,1,0.001364934956654906,1
03/09/26 14:44:48.404516352,0.02286764793097973,1,0.005308412946760654,1,0.03538602963089943,1,-8.54331738082692e-05,1,-0.0002962944854516536,1,0.001481912331655622,1
03/09/26 14:44:48.414735872,0.01470893248915672,1,0.007406506687402725,1,0.04074399173259735,1,-0.001185545464977622,1,-0.0006242662784643471,1,0.001239787554368377,1
03/09/26 14:44:48.424857344,0.007534516043961048,1,0.01327445544302464,1,0.05009755492210388,1,-0.00116624019574374,1,-0.0007788943476043642,1,0.001507559092715383,1
03/09/26 14:44:48.434881792,0.0004919057246297598,1,0.02207601442933083,1,0.05958495289087296,1,-0.00121550215408206,1,-0.0006723767728544772,1,0.001475841039791703,1
03/09/26 14:44:48.444808704,0.001493571326136589,1,0.01903005875647068,1,0.05628133565187454,1,-0.0005473163910210133,1,0.0001696365216048434,1,0.001205182634294033,1
03/09/26 14:44:48.454641152,0.002663675462827086,1,0.0207680482417345,1,0.0470893606543541,1,0.0002238347660750151,1,0.0006867243209853768,1,0.001398362568579614,1
03/09/26 14:44:48.464378624,0.007632738444954157,1,0.01695744879543781,1,0.0388079509139061,1,0.0005389821599237621,1,0.00128759047947824,1,0.001100771478377283,1
03/09/26 14:44:48.474020352,0.01341999229043722,1,0.01642145216464996,1,0.02650661952793598,1,0.0003847292391583323,1,0.001012551947496831,1,0.0009798285318538547,1
03/09/26 14:44:48.483568128,0.01778899878263474,1,0.009557775221765041,1,0.02158277668058872,1,0.0002311116259079427,1,0.0005211833631619811,1,0.0009578451863490045,1
03/09/26 14:44:48.493023232,0.01958833262324333,1,0.007828643545508385,1,0.02361125499010086,1,0.0003659567737486213,1,0.0001873450528364629,1,0.000842604786157608,1
03/09/26 14:44:48.502406656,0.01930343359708786,1,0.005068119615316391,1,0.02913949452340603,1,9.697327914182097e-05,1,-0.0003654421889223158,1,0.0006499426672235131,1
03/09/26 14:44:48.512166144,0.01822048053145409,1,0.003062818665057421,1,0.03855233639478683,1,-1.524497110949596e-05,1,-0.0004586489812936634,1,0.0005205452325753868,1
03/09/26 14:44:48.522850560,0.01455085072666407,1,0.005304284393787384,1,0.04481605067849159,1,-0.0001242711441591382,1,-0.0006319747772067785,1,0.0006319610984064639,1
03/09/26 14:44:48.533433600,0.01127221900969744,1,0.003982448019087315,1,0.04735103249549866,1,-0.0004554273036774248,1,-0.0005146660842001438,1,0.0007212641648948193,1
03/09/26 14:44:48.543916032,0.01073878444731236,1,0.007562766317278147,1,0.04917575791478157,1,-0.0007400743197649717,1,-0.0002554694947320968,1,0.000709108542650938,1
03/09/26 14:44:48.554302720,0.01019186526536942,1,0.006792906206101179,1,0.05046898499131203,1,-0.001106057548895478,1,-0.0001685159804765135,1,0.0006879078573547304,1
03/09/26 14:44:48.564593664,0.007825586944818497,1,0.00666455365717411,1,0.04808234050869942,1,-0.001235370058566332,1,6.719490920659155e-05,1,0.0006347667658701539,1
03/09/26 14:44:48.574786816,0.01099574565887451,1,0.01001291442662477,1,0.04530517756938934,1,-0.001191323390230536,1,0.0004615744983311743,1,0.0006820334820076823,1
03/09/26 14:44:48.584880128,0.01252254098653793,1,0.01203745789825916,1,0.04342974722385406,1,-0.001049953745678067,1,0.0003554586146492511,1,0.0007748336647637188,1
03/09/26 14:44:48.594876928,0.01301112771034241,1,0.01087270677089691,1,0.04040726646780968,1,-0.0009189369156956673,1,0.0002033418422797695,1,0.0008465104037895799,1
03/09/26 14:44:48.604779008,0.01033130194991827,1,0.008430018089711666,1,0.03891393914818764,1,-0.001020709052681923,1,-5.748472176492214e-06,1,0.0008301057969219983,1
03/09/26 14:44:48.614593792,0.01113955769687891,1,0.01056069880723953,1,0.04450219869613647,1,-0.0006096998695284128,1,1.026278187055141e-05,1,0.0007669957121834159,1
03/09/26 14:44:48.624313600,0.00686252024024725,1,0.001661188434809446,1,0.03780128061771393,1,-0.0001094761319109239,1,0.0003149345866404474,1,0.001264072488993406,1
03/09/26 14:44:48.633937920,0.007084833458065987,1,0.01032478082925081,1,0.03552055358886719,1,-0.001132518285885453,1,1.34174115373753e-05,1,0.001266644103452563,1
03/09/26 14:44:48.643469056,0.01176469121128321,1,0.01068014185875654,1,0.04629123955965042,1,-1.543408143334091e-05,1,0.0001528716675238684,1,0.001214701333083212,1
03/09/26 14:44:48.652907520,0.02063439227640629,1,0.003852810710668564,1,0.03350881114602089,1,0.00117188086733222,1,0.0003498875303193927,1,0.001222693012095988,1
03/09/26 14:44:48.662253824,0.02143234387040138,1,0.001389079028740525,1,0.02084989845752716,1,0.0007743632304482162,1,0.0001767305802786723,1,0.001261319266632199,1
03/09/26 14:44:48.672406272,0.02527370676398277,1,0.001061366870999336,1,0.01649599336087704,1,0.0003173825098201632,1,9.062652679858729e-05,1,0.00145752914249897,1
03/09/26 14:44:48.683056384,0.02492161467671394,1,0.002277583116665483,1,0.01522488426417112,1,-0.0004201148403808475,1,-0.0005751818534918129,1,0.001554655376821756,1
03/09/26 14:44:48.693603328,0.01830152422189713,1,0.003641845658421516,1,0.02815886400640011,1,-0.001322722528129816,1,-0.0007352428510785103,1,0.00147726689465344,1
03/09/26 14:44:48.704050688,0.01387162413448095,1,0.008605130948126316,1,0.03269556909799576,1,-0.001811127178370953,1,-0.000837925763335079,1,0.001423553447239101,1
03/09/26 14:44:48.714398464,0.007818210870027542,1,0.01338696852326393,1,0.04558046534657478,1,-0.001988054253160954,1,-0.0004874755686614662,1,0.001145980204455554,1
03/09/26 14:44:48.724643584,0.005258033983409405,1,0.01120939198881388,1,0.05166307836771011,1,-0.001387628959491849,1,-0.0001464820088585839,1,0.0009822144638746977,1
03/09/26 14:44:48.734792192,0.00444728834554553,1,0.01099789701402187,1,0.04955843836069107,1,-0.001147061702795327,1,-0.0001454382436349988,1,0.0009080771706067026,1
03/09/26 14:44:48.744841728,0.004135137423872948,1,0.01054808404296637,1,0.04677297547459602,1,-0.0008524171425960958,1,-0.0001006216407404281,1,0.0007938282215036452,1
03/09/26 14:44:48.754793472,0.00456482358276844,1,0.01083320286124945,1,0.04449545592069626,1,-0.0001475439203204587,1,3.10461109620519e-05,1,0.0005313953734003007,1
03/09/26 14:44:48.764651776,0.008340194821357727,1,0.004598097410053015,1,0.04166752845048904,1,0.0001451924035791308,1,4.983896360499784e-05,1,0.0005206969217397273,1
03/09/26 14:44:48.774424064,0.01205826830118895,1,0.003852270543575287,1,0.04023813083767891,1,5.933640204602852e-05,1,0.0001178389356937259,1,0.0004067542031407356,1
03/09/26 14:44:48.784101376,0.01692393235862255,1,0.004784394986927509,1,0.04100943729281425,1,0.0001352552062598988,1,5.045288344263099e-05,1,0.0005661116447299719,1
03/09/26 14:44:48.793683968,0.01818297803401947,1,0.005281571764498949,1,0.04370120167732239,1,-3.495243799989112e-05,1,6.076538556953892e-05,1,0.0007687058532610536,1
03/09/26 14:44:48.803173888,0.01708866842091084,1,0.006924155168235302,1,0.04218823462724686,1,0.0001882192736957222,1,0.0002886925940401852,1,0.0007037900504656136,1
03/09/26 14:44:48.812572160,0.01410961337387562,1,0.01231967285275459,1,0.0448317863047123,1,0.0002004665439017117,1,-5.412799509940669e-05,1,0.000704136211425066,1
03/09/26 14:44:48.821877504,0.01147055625915527,1,0.01688825152814388,1,0.04954075813293457,1,0.0001903628144646063,1,-0.0001513956813141704,1,0.0007960292277857661,1
03/09/26 14:44:48.832465152,0.01313953660428524,1,0.02012373879551888,1,0.04641690477728844,1,0.0001266075269086286,1,-0.000235456129303202,1,0.0006773776840418577,1
03/09/26 14:44:48.843104512,0.01455531548708677,1,0.01948821358382702,1,0.04299770668148994,1,-2.408849832136184e-05,1,0.0001628851750865579,1,0.0007484045927412808,1
03/09/26 14:44:48.853642496,0.01657423377037048,1,0.01548543386161327,1,0.03926720097661018,1,0.0003651459410320967,1,0.0003243069804739207,1,0.001031664316542447,1
03/09/26 14:44:48.864085504,0.01819336786866188,1,0.01436839997768402,1,0.03960743546485901,1,0.0004538804350886494,1,0.0003690762969199568,1,0.001026047626510262,1
03/09/26 14:44:48.874430720,0.01741518639028072,1,0.01388046238571405,1,0.0402199849486351,1,-9.023181337397546e-05,1,0.0007447869284078479,1,0.0009818689431995153,1
03/09/26 14:44:48.884677120,0.01681177318096161,1,0.01145431399345398,1,0.03918562456965446,1,-0.000553837395273149,1,0.0004097840865142643,1,0.001076593995094299,1
03/09/26 14:44:48.894827520,0.01283982954919338,1,0.01332718972116709,1,0.04044875502586365,1,-0.001049366896040738,1,8.943371358327568e-05,1,0.001210363465361297,1
03/09/26 14:44:48.904881920,0.01029478944838047,1,0.01478313002735376,1,0.04132411628961563,1,-0.001000169548206031,1,-0.0002961736463475972,1,0.001365566742606461,1
03/09/26 14:44:48.914840064,0.009261184372007847,1,0.01556734926998615,1,0.04172676801681519,1,-0.001055464847013354,1,-4.998706936021335e-05,1,0.001090856152586639,1
03/09/26 14:44:48.924707584,0.008406302891671658,1,0.01329372823238373,1,0.03602189943194389,1,-0.0006513349944725633,1,0.0003813626826740801,1,0.0008856991189531982,1
03/09/26 14:44:48.934483456,0.01023709028959274,1,0.007791784591972828,1,0.03013834543526173,1,-0.0003284905687905848,1,0.0005046700825914741,1,0.0006923007895238698,1
03/09/26 14:44:48.944191488,0.01388272363692522,1,0.006239972542971373,1,0.0288859847933054,1,-0.0003823848091997206,1,5.6298820709344e-05,1,0.0007010895060375333,1
03/09/26 14:44:48.953810176,0.014001140370965,1,0.004878364503383636,1,0.02565292455255985,1,-0.0004088176938239485,1,-3.776139783440158e-05,1,0.0008112223003990948,1
03/09/26 14:44:48.963336704,0.008333101868629456,1,0.002969417488202453,1,0.03245935216546059,1,-0.0007937191985547543,1,-0.0006130477413535118,1,0.000793087703641504,1
03/09/26 14:44:48.972773376,0.00452098436653614,1,0.003965480253100395,1,0.03798075392842293,1,-0.00106126768514514,1,-0.0003407812619116157,1,0.0005180883454158902,1
03/09/26 14:44:48.982265600,0.003745381953194737,1,0.009180177003145218,1,0.0428280383348465,1,-0.0007445356459356844,1,-0.0004965724656358361,1,0.0006844810559414327,1
03/09/26 14:44:48.992975616,0.006689601112157106,1,0.01033599209040403,1,0.04512926936149597,1,-0.0004969723522663116,1,-0.0005454986821860075,1,0.0008224568446166813,1
03/09/26 14:44:49.003584512,0.01043445616960526,1,0.01203502342104912,1,0.0408165417611599,1,3.074840060435236e-05,1,-0.0001943391398526728,1,0.0008215958368964493,1
03/09/26 14:44:49.014098176,0.0139126367866993,1,0.007556409575045109,1,0.03566208854317665,1,0.0001053737287293188,1,-0.0001265682512894273,1,0.001019287039525807,1
03/09/26 14:44:49.024512000,0.0156436488032341,1,0.00348513456992805,1,0.03720626980066299,1,1.655040250625461e-05,1,-0.0001325609919149429,1,0.0009895013645291328,1
03/09/26 14:44:49.034826752,0.01445289049297571,1,0.003953250125050545,1,0.04083026200532913,1,-0.0005542555591091514,1,0.0001848012179834768,1,0.0009078436414711177,1
03/09/26 14:44:49.045044224,0.01242021843791008,1,0.001584231737069786,1,0.04224349930882454,1,-0.0007438783068209887,1,0.0004315614642109722,1,0.001136305509135127,1
03/09/26 14:44:49.055162112,0.0127798467874527,1,0.002282079542055726,1,0.0446879155933857,1,-0.0006131733534857631,1,0.0006715885829180479,1,0.0008739736513234675,1
03/09/26 14:44:49.065185024,0.01453457586467266,1,0.0009963836055248976,1,0.04879983514547348,1,-9.344141290057451e-05,1,0.000624920183327049,1,0.001201811712235212,1
03/09/26 14:44:49.075127296,0.0152691313996911,1,0.005261347629129887,1,0.0489981584250927,1,0.0002421492390567437,1,0.0005058431997895241,1,0.001052493928000331,1
03/09/26 14:44:49.084984832,0.02105849049985409,1,0.00456281378865242,1,0.03769876807928085,1,0.0005561421276070178,1,0.0004021250642836094,1,0.001067909994162619,1
03/09/26 14:44:49.094748672,0.02248089946806431,1,0.003558926284313202,1,0.03255020827054977,1,0.001014039386063814,1,0.0003108915698248893,1,0.001110648270696402,1
03/09/26 14:44:49.104420096,0.02387540973722935,1,0.00342806032858789,1,0.03270368650555611,1,0.0006285523995757103,1,0.0001268924097530544,1,0.001034733722917736,1
03/09/26 14:44:49.113999872,0.01816816814243793,1,0.0007361792377196252,1,0.03568682819604874,1,0.0001258603006135672,1,-0.000194074134924449,1,0.0009128617239184678,1
03/09/26 14:44:49.123488512,0.01375505514442921,1,0.003680454334244132,1,0.04149572178721428,1,-8.660768799018115e-05,1,-0.0002360010548727587,1,0.0009239381761290133,1
03/09/26 14:44:49.132886528,0.008997133933007717,1,0.007199006620794535,1,0.04840881377458572,1,1.456844984204508e-06,1,-0.0001156034122686833,1,0.0008349643903784454,1
03/09/26 14:44:49.142637568,0.007662597112357616,1,0.006672380492091179,1,0.0508839525282383,1,0.0001202952116727829,1,0.0001089417128241621,1,0.001004206598736346,1
03/09/26 14:44:49.153314048,0.008870657533407211,1,0.006394898518919945,1,0.04840793833136559,1,5.659469388774596e-05,1,0.0003573940775822848,1,0.001063896925188601,1
03/09/26 14:44:49.163890688,0.01192937884479761,1,0.005474936682730913,1,0.04682229831814766,1,-0.0002532335638534278,1,0.0004569155862554908,1,0.0009051740635186434,1
03/09/26 14:44:49.174365184,0.0120950797572732,1,0.004493121523410082,1,0.04513081535696983,1,-0.0003631093131843954,1,0.0005092366482131183,1,0.0008037491934373975,1
03/09/26 14:44:49.184738560,0.01203145924955606,1,0.00736922537907958,1,0.03889086097478867,1,-0.0008385077235288918,1,0.0003044477198272943,1,0.0008830567239783704,1
03/09/26 14:44:49.195014144,0.01294611766934395,1,0.01024277601391077,1,0.03844393417239189,1,-0.00129155267495662,1,-7.159843517001718e-05,1,0.0007797136204317212,1
03/09/26 14:44:49.205191424,0.01431612856686115,1,0.01308844331651926,1,0.03605762124061584,1,-0.001125251525081694,1,8.931045886129141e-05,1,0.000491719285491854,1
03/09/26 14:44:49.215285760,0.01665797457098961,1,0.02052314952015877,1,0.03155704587697983,1,-0.0007023268844932318,1,-9.05622509890236e-05,1,0.000658148608636111,1
03/09/26 14:44:49.225287424,0.01692317426204681,1,0.01930996589362621,1,0.03072317503392696,1,-0.0002648060908541083,1,-0.0001758632424753159,1,0.000696135510224849,1
03/09/26 14:44:49.235194368,0.01627656072378159,1,0.01879771612584591,1,0.02915754728019238,1,0.0004711028304882348,1,-9.672532905824482e-05,1,0.0009550522081553936,1
03/09/26 14:44:49.245007616,0.01292615476995707,1,0.01735137030482292,1,0.02975355461239815,1,0.0009118896559812129,1,-0.0003165199304930866,1,0.001123628346249461,1
03/09/26 14:44:49.254728192,0.01127654779702425,1,0.01896820403635502,1,0.03306736797094345,1,0.0008600055007264018,1,-5.660504393745214e-05,1,0.001016161870211363,1
03/09/26 14:44:49.264355072,0.01084181386977434,1,0.01887074671685696,1,0.03633203357458115,1,0.000222782909986563,1,-3.580513293854892e-06,1,0.001049935235641897,1
03/09/26 14:44:49.273892096,0.006593422964215279,1,0.02048231288790703,1,0.04046995565295219,1,0.0001505691034253687,1,-0.0001465091918362305,1,0.0009476024424657226,1
03/09/26 14:44:49.283340544,0.003946155775338411,1,0.01842322014272213,1,0.04233258962631226,1,0.0003302525437902659,1,-0.0001442781940568238,1,0.0006078313454054296,1
03/09/26 14:44:49.292698624,0.00286753592081368,1,0.01534525118768215,1,0.04759515076875687,1,0.0004876320308540016,1,0.0002524345472920686,1,0.0009554314892739058,1
03/09/26 14:44:49.302852864,0.004400640726089478,1,0.0132559398189187,1,0.04547466710209846,1,0.0008086675079539418,1,0.0006034629186615348,1,0.0009511877433396876,1
03/09/26 14:44:49.313497344,0.007556290365755558,1,0.01005010306835175,1,0.0421302355825901,1,0.0003900497395079583,1,0.00052443373715505,1,0.001160386484116316,1
03/09/26 14:44:49.324040960,0.01217144541442394,1,0.01000805664807558,1,0.03780752420425415,1,0.0004829396784771234,1,0.0005885828868485987,1,0.001311535364948213,1
03/09/26 14:44:49.334481920,0.0163678415119648,1,0.007207934744656086,1,0.03605685755610466,1,0.0001107032294385135,1,0.000314820179482922,1,0.0009969262173399329,1
03/09/26 14:44:49.344820480,0.01774236559867859,1,0.007293224334716797,1,0.03784270212054253,1,0.0003441031731199473,1,0.0003426835173740983,1,0.0009191666031256318,1
03/09/26 14:44:49.355059200,0.01941308751702309,1,0.005736459512263536,1,0.03889375925064087,1,0.0005866932333447039,1,0.0005563213489949703,1,0.001133230864070356,1
03/09/26 14:44:49.365196800,0.01695268787443638,1,0.00389852118678391,1,0.04000130668282509,1,0.000484124175272882,1,0.0002388163993600756,1,0.00116900447756052,1
03/09/26 14:44:49.375235840,0.01930601708590984,1,0.005684887524694204,1,0.04503453895449638,1,0.0006375272059813142,1,8.657316357130185e-06,1,0.001302680815570056,1
03/09/26 14:44:49.385177600,0.01889102719724178,1,0.004944039508700371,1,0.04676970466971397,1,0.0007651726482436061,1,-0.0005843503749929368,1,0.001337260473519564,1
03/09/26 14:44:49.395023104,0.01839298382401466,1,0.005157778039574623,1,0.04907478392124176,1,0.0005373036256060004,1,-0.0006357094389386475,1,0.001206058310344815,1
03/09/26 14:44:49.404778240,0.01783237606287003,1,0.005537337157875299,1,0.04914146661758423,1,0.0001049771599355154,1,-0.0005073570646345615,1,0.001111151534132659,1
03/09/26 14:44:49.414464512,0.01692680642008781,1,0.003608542494475842,1,0.04711473360657692,1,4.740569784189574e-05,1,-0.0005896949442103505,1,0.0007985668489709496,1
03/09/26 14:44:49.424059392,0.01624369062483311,1,0.001807452761568129,1,0.04769409075379372,1,-0.0001789596426533535,1,-0.0002797469787765294,1,0.0008096290985122323,1
03/09/26 14:44:49.433563392,0.01650754176080227,1,0.002813315019011497,1,0.04768256470561028,1,-0.0006411771755665541,1,-0.0002784637617878616,1,0.0006321801920421422,1
03/09/26 14:44:49.442979840,0.01643096655607224,1,0.004623719956725836,1,0.0453885979950428,1,-0.0005466975271701813,1,-0.0004295932012610137,1,0.0006469069048762321,1
03/09/26 14:44:49.452307200,0.01379483006894588,1,0.002644906518980861,1,0.041830874979496,1,-0.0008323874790221453,1,-0.0004419232136569917,1,0.0005455789505504072,1
03/09/26 14:44:49.463042048,0.01032928843051195,1,0.003227504203096032,1,0.04395038634538651,1,-0.000649221648927778,1,-0.0003825072199106216,1,0.0005763615481555462,1
03/09/26 14:44:49.473674240,0.009593416936695576,1,0.005065165460109711,1,0.04302310943603516,1,-0.0003247119020670652,1,-2.155069523723796e-05,1,0.0006396541721187532,1
03/09/26 14:44:49.484209408,0.006963441614061594,1,0.005708469077944756,1,0.03648509457707405,1,-0.0002260867768200114,1,0.0004437753814272583,1,0.0006423671147786081,1
03/09/26 14:44:49.494643968,0.008211049251258373,1,0.009028931148350239,1,0.03499621897935867,1,0.0001580964308232069,1,0.000367001659469679,1,0.0007682697614654899,1
03/09/26 14:44:49.504977664,0.01058908645063639,1,0.008039188571274281,1,0.03209627419710159,1,0.0002461615658830851,1,0.0002888288581743836,1,0.0008389290305785835,1
03/09/26 14:44:49.515211520,0.01072870939970016,1,0.008092408999800682,1,0.02874284610152245,1,0.0003249649307690561,1,0.0002680277975741774,1,0.0005610187072306871,1
03/09/26 14:44:49.525346304,0.01338251587003469,1,0.008649205788969994,1,0.02712009474635124,1,9.040740405907854e-05,1,0.0001178306702058762,1,0.0005197649006731808,1
03/09/26 14:44:49.535382784,0.01379627268761396,1,0.01036431174725294,1,0.02971561439335346,1,0.0004881487693637609,1,0.0001050767823471688,1,0.0006317534134723246,1
03/09/26 14:44:49.545324800,0.01076416112482548,1,0.01176870334893465,1,0.02819140069186687,1,0.0007981456001289189,1,0.0001740721636451781,1,0.0007288649212568998,1
03/09/26 14:44:49.555173888,0.01153538934886456,1,0.01360095106065273,1,0.02740976214408875,1,0.0008424532716162503,1,0.0001603705604793504,1,0.001074037048965693,1
03/09/26 14:44:49.564927488,0.01206617243587971,1,0.01275780517607927,1,0.02982936799526215,1,0.001115341437980533,1,0.0003312592161819339,1,0.0006446072366088629,1
03/09/26 14:44:49.574586112,0.01492346450686455,1,0.009497064165771008,1,0.03312128037214279,1,0.001143100671470165,1,0.0003837420663330704,1,0.0008942238055169582,1
03/09/26 14:44:49.584149248,0.01760091073811054,1,0.00746654300019145,1,0.03843489661812782,1,0.0003253820759709924,1,0.0001822061458369717,1,0.001172544434666634,1
03/09/26 14:44:49.593620736,0.01454934012144804,1,0.007101327646523714,1,0.04002007469534874,1,-0.0003750301839318126,1,-0.000175829729414545,1,0.001136249047704041,1
03/09/26 14:44:49.603001344,0.01003447454422712,1,0.007250993512570858,1,0.04623619467020035,1,-0.000752330117393285,1,-0.0003331937768962234,1,0.001203415216878057,1
03/09/26 14:44:49.612481792,0.00520264683291316,1,0.01016943342983723,1,0.05758049339056015,1,-0.001108188065700233,1,-0.0002697324380278587,1,0.0008621366578154266,1
03/09/26 14:44:49.623187200,0.004801409319043159,1,0.01607329398393631,1,0.06319019943475723,1,-0.0008489424362778664,1,-0.0002463837736286223,1,0.0007540412480011582,1
03/09/26 14:44:49.633787904,0.004100230522453785,1,0.0211283415555954,1,0.06146351993083954,1,-0.0007523453678004444,1,3.007964187418111e-05,1,0.0007594299968332052,1
03/09/26 14:44:49.644288256,0.007058557122945786,1,0.02177493646740913,1,0.05177072435617447,1,2.260164183098823e-05,1,0.0002833440958056599,1,0.0006331762415356934,1
03/09/26 14:44:49.654688512,0.009684275835752487,1,0.01709746941924095,1,0.04770337045192719,1,0.001226807595230639,1,0.0006154329748824239,1,0.0005626613856293261,1
03/09/26 14:44:49.664988928,0.01397243980318308,1,0.01284973043948412,1,0.03993309661746025,1,0.001557066454552114,1,0.0004639597318600863,1,0.0005767674883827567,1
03/09/26 14:44:49.675190528,0.01646768674254417,1,0.01141975447535515,1,0.03133761137723923,1,0.001096755731850863,1,0.0004515492764767259,1,0.0006105772918090224,1
03/09/26 14:44:49.685294592,0.01976743899285793,1,0.009365769103169441,1,0.03189592808485031,1,0.0008454813505522907,1,4.78730071336031e-05,1,0.0006291127647273242,1
03/09/26 14:44:49.695300864,0.02300526387989521,1,0.009605106897652149,1,0.03344039618968964,1,0.0004425012157298625,1,0.0002750791609287262,1,0.0008210026426240802,1
03/09/26 14:44:49.705214976,0.02268345467746258,1,0.008080294355750084,1,0.03301063925027847,1,0.000530439312569797,1,-0.0001048339763656259,1,0.0006377043901011348,1
03/09/26 14:44:49.715042048,0.02334487810730934,1,0.008876437321305275,1,0.0338459275662899,1,0.0005077010137028992,1,-0.0002577089471742511,1,0.0007216434460133314,1
03/09/26 14:44:49.724773888,0.02207577042281628,1,0.006150121800601482,1,0.03252387419342995,1,0.001120262430049479,1,-0.0002014234923990443,1,0.0008297429303638637,1
03/09/26 14:44:49.734411520,0.01900895312428474,1,0.00465408293530345,1,0.02760197781026363,1,0.001313518150709569,1,-0.0003088386438321322,1,0.000798605615273118,1
03/09/26 14:44:49.743954688,0.01603940315544605,1,0.003020049538463354,1,0.02921166084706783,1,0.0008928745519369841,1,-0.0001142503606388345,1,0.0009607989923097193,1
03/09/26 14:44:49.753404160,0.01630945689976215,1,0.0008729765540920198,1,0.03311153501272202,1,0.0007541422382928431,1,-0.0005614492692984641,1,0.0009110114770010114,1
03/09/26 14:44:49.762761984,0.0153686972334981,1,0.004221978597342968,1,0.03836208209395409,1,0.0006319753592833877,1,-0.0004570372402667999,1,0.0009547373047098517,1
03/09/26 14:44:49.772480256,0.01270554680377245,1,0.003778165206313133,1,0.04641092196106911,1,0.0005986208561807871,1,-0.0005626711645163596,1,0.0009658474009484053,1
03/09/26 14:44:49.783153920,0.01233634632080793,1,0.006173737812787294,1,0.05400800704956055,1,0.0007424069917760789,1,-0.0004009694093838334,1,0.000836248742416501,1
03/09/26 14:44:49.793726976,0.01006908155977726,1,0.0030722098890692,1,0.05511820316314697,1,0.0003861011064145714,1,8.689948299434036e-05,1,0.0009897117270156741,1
03/09/26 14:44:49.804201216,0.01139120571315289,1,0.000637430464848876,1,0.05029981955885887,1,0.0002765733515843749,1,5.00270034535788e-05,1,0.0008553414372727275,1
03/09/26 14:44:49.814576896,0.01322674099355936,1,0.002213839441537857,1,0.0438159666955471,1,-0.0001474202144891024,1,0.0001304204924963415,1,0.0009741487447172403,1
03/09/26 14:44:49.824856320,0.01508482079952955,1,0.005104597192257643,1,0.03902219980955124,1,-3.903345350408927e-05,1,1.36145517899422e-05,1,0.00100993609521538,1
03/09/26 14:44:49.835037952,0.0112699568271637,1,0.008560118265450001,1,0.03584670275449753,1,-0.0005686564836651087,1,-0.0002943834697362036,1,0.0008786558173596859,1
03/09/26 14:44:49.845124096,0.01054783910512924,1,0.007445233408361673,1,0.04099633172154427,1,-0.0008659864543005824,1,-0.0005538908299058676,1,0.001154165714979172,1
03/09/26 14:44:49.855122176,0.007213197648525238,1,0.0134155098348856,1,0.04419999197125435,1,-0.0006481260061264038,1,-1.12829602585407e-05,1,0.0009514570119790733,1
03/09/26 14:44:49.865025280,0.008317021653056145,1,0.01486124470829964,1,0.04342286661267281,1,-0.001038793125189841,1,-9.483670874033123e-05,1,0.0009434270323254168,1
03/09/26 14:44:49.874832896,0.008709901012480259,1,0.01497278083115816,1,0.0471046157181263,1,-0.0009190171840600669,1,2.268848038511351e-05,1,0.0008634726400487125,1
03/09/26 14:44:49.884547840,0.01355054602026939,1,0.01271095778793097,1,0.04110260680317879,1,-0.0002487212768755853,1,-0.0001812999980757013,1,0.0009930594824254513,1
03/09/26 14:44:49.894168832,0.0139224398881197,1,0.01036136504262686,1,0.03798983991146088,1,-4.03084559366107e-05,1,-7.026773528195918e-05,1,0.0008625941118225455,1
03/09/26 14:44:49.903697152,0.01717797853052616,1,0.01284155901521444,1,0.03551238030195236,1,-0.0002398461219854653,1,-8.126322063617408e-05,1,0.0009350469335913658,1
03/09/26 14:44:49.913137664,0.01894345320761204,1,0.01147898845374584,1,0.0357835590839386,1,-0.0006795540684834123,1,-7.078408089000732e-06,1,0.001041523297317326,1
03/09/26 14:44:49.922487296,0.01748477481305599,1,0.01065265573561192,1,0.0375271737575531,1,-0.001073013991117477,1,-0.0006200165371410549,1,0.001313757733441889,1
03/09/26 14:44:49.932786176,0.01678676530718803,1,0.01220930553972721,1,0.03951119631528854,1,-0.001172959338873625,1,-0.0007725571631453931,1,0.001416932907886803,1
03/09/26 14:44:49.943431168,0.01371992379426956,1,0.01761027611792088,1,0.04723389446735382,1,-0.001261405181139708,1,-0.0006469576037488878,1,0.001294714282266796,1
03/09/26 14:44:49.953973248,0.009634264744818211,1,0.0162152573466301,1,0.05439509451389313,1,-0.0006038117571733892,1,-0.0003163829678669572,1,0.001091739046387374,1
03/09/26 14:44:49.964412928,0.005141451023519039,1,0.01923670805990696,1,0.05064214766025543,1,2.635428245412186e-05,1,-0.0001577034709043801,1,0.0009703607647679746,1
03/09/26 14:44:49.974749696,0.004995410796254873,1,0.01166823133826256,1,0.04907466471195221,1,0.0002798274217639118,1,1.511945811216719e-05,1,0.0009313361370004714,1
03/09/26 14:44:49.984985344,0.008777852170169353,1,0.01128771807998419,1,0.04473258182406425,1,0.0004591424949467182,1,0.0008368316339328885,1,0.0009554041316732764,1
03/09/26 14:44:49.995120896,0.01599512994289398,1,0.007576405070722103,1,0.03719213232398033,1,0.0004886401584371924,1,0.0008351421565748751,1,0.0007331291562877595,1
03/09/26 14:44:50.005162752,0.01564952172338963,1,0.004301906563341618,1,0.03501494601368904,1,0.0001306508056586608,1,0.0005502566345967352,1,0.0009389771148562431,1
03/09/26 14:44:50.015111680,0.01849175617098808,1,0.001980340573936701,1,0.03247133642435074,1,-8.555954264011234e-05,1,5.974971281830221e-05,1,0.0009316875948570669,1
03/09/26 14:44:50.024963328,0.01818595826625824,1,0.007255820091813803,1,0.03929246589541435,1,-0.0002720602205954492,1,-0.0003122631460428238,1,0.0006015134276822209,1
03/09/26 14:44:50.034719232,0.01797684095799923,1,0.004229043610394001,1,0.04145200550556183,1,-0.0001564644189784303,1,-0.0001251252833753824,1,0.0004303474561311305,1
03/09/26 14:44:50.044380672,0.01889477670192719,1,0.006117028184235096,1,0.03568341583013535,1,0.0002921583945862949,1,6.182183278724551e-05,1,0.0005671617109328508,1
03/09/26 14:44:50.053946368,0.01549319922924042,1,0.006291747093200684,1,0.03676943853497505,1,0.0005956678069196641,1,-0.0005705498624593019,1,0.0007021262426860631,1
03/09/26 14:44:50.063419136,0.01309115253388882,1,0.004924082197248936,1,0.03737957775592804,1,0.0007544701802544296,1,-0.0003105574869550765,1,0.0008745288942009211,1
03/09/26 14:44:50.072800256,0.008892586454749107,1,0.00670513603836298,1,0.03647353500127792,1,0.0004369689268060029,1,1.668727054493502e-05,1,0.0008037835359573364,1
03/09/26 14:44:50.082091264,0.009444241411983967,1,0.00577307865023613,1,0.03879792243242264,1,0.000331739749526605,1,9.971786494133994e-05,1,0.0007156659848988056,1
03/09/26 14:44:50.092826368,0.006566156633198261,1,0.006895966827869415,1,0.04506924748420715,1,0.0001826174702728167,1,0.0005145937320776284,1,0.0006612951983697712,1
03/09/26 14:44:50.103460608,0.006073541007936001,1,0.003331797895953059,1,0.04450314119458199,1,2.944800144177862e-05,1,0.0005233699921518564,1,0.0006303612608462572,1
03/09/26 14:44:50.113995264,0.007748341653496027,1,0.007929977029561996,1,0.04338303953409195,1,0.0003601790522225201,1,0.0008379769278690219,1,0.0005560815334320068,1
03/09/26 14:44:50.124428032,0.01115276385098696,1,0.003511037211865187,1,0.04057115316390991,1,0.0004924038075841963,1,0.0008634674013592303,1,0.0003937978181056678,1
03/09/26 14:44:50.134758144,0.01461961958557367,1,0.004769798368215561,1,0.03816849365830421,1,0.0006007110932841897,1,0.0008820873918011785,1,0.000545179471373558,1
03/09/26 14:44:50.144991488,0.01582536846399307,1,0.002656162949278951,1,0.03572805225849152,1,-9.442458394914865e-05,1,0.0002203377225669101,1,0.0006739366217516363,1
03/09/26 14:44:50.155127040,0.01636256650090218,1,0.006247054319828749,1,0.03830110281705856,1,-0.0005376343615353107,1,0.0004205275909043849,1,0.000731153239030391,1
03/09/26 14:44:50.165164800,0.01490188762545586,1,0.007210051640868187,1,0.0416765920817852,1,-0.0006492040120065212,1,0.0001501896476838738,1,0.0006263554096221924,1
03/09/26 14:44:50.175103744,0.01583517156541348,1,0.009734831750392914,1,0.04425328597426414,1,-0.0003780267143156379,1,-0.0001182979831355624,1,0.0005585553590208292,1
03/09/26 14:44:50.184946944,0.01345125772058964,1,0.01478979922831059,1,0.04816178232431412,1,-2.297199534950778e-05,1,-0.0002863584377337247,1,0.0007965031545609236,1
03/09/26 14:44:50.194692864,0.01200306974351406,1,0.01072539482265711,1,0.04659914970397949,1,8.938548853620887e-05,1,-0.0002288487157784402,1,0.0005768398987129331,1
03/09/26 14:44:50.204344576,0.01222001854330301,1,0.01153519563376904,1,0.0472336933016777,1,-5.567562766373158e-05,1,-7.771293167024851e-05,1,0.0004284652532078326,1
03/09/26 14:44:50.213903872,0.0131144979968667,1,0.006893331650644541,1,0.04517620801925659,1,-0.0006473439862020314,1,0.0002374831819906831,1,0.0007817727164365351,1
03/09/26 14:44:50.223368960,0.014298633672297,1,0.009329706430435181,1,0.0455247201025486,1,-0.001188626745715737,1,0.000308680726448074,1,0.000846032693516463,1
03/09/26 14:44:50.232742400,0.01360635831952095,1,0.01114266365766525,1,0.04790625721216202,1,-0.001452977187000215,1,-5.512640200322494e-05,1,0.0009325647843070328,1
03/09/26 14:44:50.242176000,0.01549901906400919,1,0.01565682888031006,1,0.05236412584781647,1,-0.001527002081274986,1,0.000184534044819884,1,0.0007341767195612192,1
03/09/26 14:44:50.252883712,0.01378808356821537,1,0.01444373466074467,1,0.05030465871095657,1,-0.0017162358853966,1,0.0005936894449405372,1,0.0006647761911153793,1
03/09/26 14:44:50.263493120,0.01591725647449493,1,0.0158652737736702,1,0.04326101019978523,1,-0.001600236515514553,1,0.000341830775141716,1,0.0009344327263534069,1
03/09/26 14:44:50.274005504,0.01701508276164532,1,0.01721267960965633,1,0.03649934753775597,1,-0.001070888014510274,1,-2.538281660235953e-05,1,0.001159931649453938,1
03/09/26 14:44:50.284419072,0.01841694116592407,1,0.01907560788094997,1,0.02886996045708656,1,-0.0004527784476522356,1,-5.905750367674045e-05,1,0.001173419994302094,1
03/09/26 14:44:50.294732032,0.0190372746437788,1,0.01770596206188202,1,0.02693470008671284,1,-0.0002584944013506174,1,-0.0002797877823468298,1,0.0008784791571088135,1
03/09/26 14:44:50.304947712,0.01679612882435322,1,0.0173939373344183,1,0.03204257041215897,1,-7.944969547679648e-05,1,-5.177544153411873e-05,1,0.0008480470860376954,1
03/09/26 14:44:50.315069952,0.01677603647112846,1,0.0136029738932848,1,0.02772935479879379,1,0.000582801119890064,1,-0.0002067518216790631,1,0.0006860837456770241,1
03/09/26 14:44:50.325116160,0.0184556357562542,1,0.01099568139761686,1,0.02596076764166355,1,0.0003856076800730079,1,-0.0003270324668847024,1,0.0007985113770700991,1
03/09/26 14:44:50.335067392,0.01857300661504269,1,0.009280446916818619,1,0.02469219826161861,1,0.000881955842487514,1,-0.0005191799718886614,1,0.0008131874492391944,1
03/09/26 14:44:50.344923392,0.01627283357083797,1,0.00311293313279748,1,0.03176802396774292,1,0.0009855438256636262,1,-0.0006672660820186138,1,0.00125643948558718,1
03/09/26 14:44:50.354686976,0.007614222355186939,1,0.006272363476455212,1,0.0380743220448494,1,0.0004889775882475078,1,-0.0004941586521454155,1,0.001223271246999502,1
03/09/26 14:44:50.364357120,0.002403173362836242,1,0.006002507172524929,1,0.04915519058704376,1,-0.0004201700794510543,1,-6.657119956798851e-05,1,0.0009455133113078773,1
03/09/26 14:44:50.373934336,-0.00333292642608285,1,0.01020319666713476,1,0.062605120241642,1,-0.0005375565378926694,1,0.0001189923204947263,1,0.0009532641852274537,1
03/09/26 14:44:50.383422976,-0.001936791581101716,1,0.009501367807388306,1,0.06487728655338287,1,3.972872946178541e-05,1,0.0002929592737928033,1,0.0005836794152855873,1
03/09/26 14:44:50.392822272,0.002196572721004486,1,0.01432467438280582,1,0.05838309600949287,1,0.0002736223104875535,1,0.001107058953493834,1,0.0004209180187899619,1
03/09/26 14:44:50.402715392,0.01026776805520058,1,0.00943561177700758,1,0.04448428377509117,1,0.001714534242637455,1,0.001278418465517461,1,0.0005402916576713324,1
03/09/26 14:44:50.413386752,0.01711729727685452,1,-0.0002350001013837755,1,0.02577763795852661,1,0.002794435014948249,1,0.00135451927781105,1,0.0003568714018911123,1
03/09/26 14:44:50.423957248,0.02183743380010128,1,-0.002311761025339365,1,0.01930240914225578,1,0.002667921362444758,1,0.0007011834532022476,1,0.0004641619452740997,1
03/09/26 14:44:50.434430464,0.02084986120462418,1,-0.004770605359226465,1,0.02454143948853016,1,0.001585274469107389,1,0.0001786132343113422,1,0.000642326835077256,1
03/09/26 14:44:50.444806656,0.01761017367243767,1,-0.001831338973715901,1,0.03282248973846436,1,0.0004652427160181105,1,-9.666225378168747e-05,1,0.0007810776587575674,1
03/09/26 14:44:50.455084544,0.01454212423413992,1,0.003182411659508944,1,0.04520131275057793,1,-0.0003445858019404113,1,-0.0003960174799431115,1,0.0008913925848901272,1
03/09/26 14:44:50.465263872,0.01031943596899509,1,0.007165750022977591,1,0.0598360151052475,1,-0.000572822755202651,1,-9.726914868224412e-05,1,0.0009690503939054906,1
03/09/26 14:44:50.475346688,0.007613249123096466,1,0.01227081753313541,1,0.06633232533931732,1,-0.000857522536534816,1,1.603353302925825e-05,1,0.001182098058052361,1
03/09/26 14:44:50.485332992,0.007189232390373945,1,0.01333201304078102,1,0.05936672538518906,1,-0.0001025425008265302,1,0.0004732026427518576,1,0.0009858437115326524,1
03/09/26 14:44:50.495223552,0.01112989243119955,1,0.01430256757885218,1,0.04526336118578911,1,0.000366239546565339,1,0.0005014899070374668,1,0.0007872663554735482,1
03/09/26 14:44:50.505022720,0.01327421609312296,1,0.01069276034832001,1,0.03648241981863976,1,0.0005923977005295455,1,0.000770464597735554,1,0.0009576041484251618,1
03/09/26 14:44:50.514736384,0.01830108277499676,1,0.007896851748228073,1,0.03228222206234932,1,0.0001954445178853348,1,0.0007245379965752363,1,0.001144538633525372,1
03/09/26 14:44:50.524371200,0.01841058395802975,1,0.007909481413662434,1,0.0339282900094986,1,-0.000226442440180108,1,0.0005297774914652109,1,0.001248185872100294,1
03/09/26 14:44:50.533916160,0.01860989816486835,1,0.008981055580079556,1,0.04326765611767769,1,-0.0003869357460644096,1,0.0004524193645920604,1,0.0009472312522120774,1
03/09/26 14:44:50.543370496,0.01355750765651464,1,0.01024343073368073,1,0.04929625988006592,1,-0.0005436117062345147,1,0.0002482412673998624,1,0.001041088602505624,1
03/09/26 14:44:50.552736256,0.01201008819043636,1,0.01188085693866014,1,0.04950974881649017,1,-0.0008460028329864144,1,0.0004338870639912784,1,0.001147515838965774,1
03/09/26 14:44:50.563038720,0.0148734962567687,1,0.01454788446426392,1,0.0416208803653717,1,-0.0008396375924348831,1,0.001011777319945395,1,0.001184490160085261,1
03/09/26 14:44:50.573682432,0.01738258823752403,1,0.01375967171043158,1,0.02655743062496185,1,-0.0004167126608081162,1,0.0007470368873327971,1,0.001180819701403379,1
03/09/26 14:44:50.584225536,0.01941544190049171,1,0.01484357751905918,1,0.01749143563210964,1,-0.0002832816098816693,1,0.0001929112040670589,1,0.001024531316943467,1
03/09/26 14:44:50.594667776,0.01489654276520014,1,0.01574856229126453,1,0.01552316918969154,1,-0.0004617903032340109,1,6.811450293753296e-05,1,0.001300306292250752,1
03/09/26 14:44:50.605022208,0.01333065796643496,1,0.0160452201962471,1,0.02132752910256386,1,-0.0003932733088731766,1,-1.062983119481942e-05,1,0.001257252064533532,1
03/09/26 14:44:50.615278080,0.01101093553006649,1,0.01876150816679001,1,0.03140696510672569,1,-0.0003632643492892385,1,-0.0002710246481001377,1,0.001213668030686677,1
03/09/26 14:44:50.625435136,0.009389464743435383,1,0.01684387214481831,1,0.03755053877830505,1,-0.0001991526078199968,1,4.647599052987061e-05,1,0.0009888409404084086,1
03/09/26 14:44:50.635499008,0.01038532145321369,1,0.01775319688022137,1,0.04476979002356529,1,-0.0001879813644336537,1,-0.0001787462970241904,1,0.001130995922721922,1
03/09/26 14:44:50.645465856,0.008973675779998302,1,0.01712578907608986,1,0.04692671820521355,1,0.0002119688433595002,1,-0.0002325221430510283,1,0.0010628008749336,1
03/09/26 14:44:50.655337216,0.004736009053885937,1,0.01231193821877241,1,0.04284555464982986,1,0.000260961678577587,1,0.0002034764183918014,1,0.001049304730258882,1
03/09/26 14:44:50.665116672,0.005150459706783295,1,0.008046086877584457,1,0.04019686207175255,1,0.0002634405100252479,1,0.0002455258218105882,1,0.001017184113152325,1
03/09/26 14:44:50.674803712,0.01115738041698933,1,0.006810545455664396,1,0.04420691728591919,1,-4.812048064195551e-05,1,0.0001351662940578535,1,0.0009708435973152518,1
03/09/26 14:44:50.684400640,0.01506802905350924,1,0.003304452868178487,1,0.04262089356780052,1,-0.0005699912435375154,1,0.0001747626229189336,1,0.001031662570312619,1
03/09/26 14:44:50.693926144,0.01633930951356888,1,0.004478981718420982,1,0.04174957424402237,1,-0.0004884966765530407,1,0.0001987164578167722,1,0.0009680206421762705,1
03/09/26 14:44:50.703361792,0.01544522121548653,1,0.004204485565423965,1,0.04598077386617661,1,-0.0002734852023422718,1,-9.973481792258099e-05,1,0.0009370977059006691,1
03/09/26 14:44:50.712706304,0.01155770849436522,1,0.006060580257326365,1,0.05121054500341415,1,-0.0004542575334198773,1,-0.0005803226376883686,1,0.001026724348776042,1
03/09/26 14:44:50.723434752,0.008558090776205063,1,0.005520718637853861,1,0.04716959595680237,1,-0.0005980134592391551,1,-0.0005124338204041123,1,0.00110735057387501,1
03/09/26 14:44:50.734063872,0.008797517977654934,1,0.00438104709610343,1,0.04696741327643394,1,-0.0004987376742064953,1,-0.0002838208456523716,1,0.0007377790752798319,1
03/09/26 14:44:50.744592128,0.01146335620433092,1,0.004808187950402498,1,0.04362829029560089,1,-0.0005175777478143573,1,1.751115451043006e-05,1,0.0006350132171064615,1
03/09/26 14:44:50.755027712,0.01242377422749996,1,0.004018093459308147,1,0.03996418416500092,1,-0.0004504193784669042,1,2.029092138400301e-05,1,0.0007878472097218037,1
03/09/26 14:44:50.765364480,0.01343145221471786,1,0.003075255779549479,1,0.04124119132757187,1,-0.0003485672641545534,1,-1.699504355201498e-05,1,0.0008136235410347581,1
03/09/26 14:44:50.775603712,0.01222139596939087,1,0.004091620910912752,1,0.04020301252603531,1,0.0005773474695160985,1,0.0001583156990818679,1,0.0008710834663361311,1
03/09/26 14:44:50.785746688,0.008319680579006672,1,0.003298472613096237,1,0.02153204008936882,1,-0.0002158762799808756,1,0.0005419593653641641,1,0.000932956812903285,1
03/09/26 14:44:50.795792896,0.01657791063189507,1,0.00206111348234117,1,0.03750640898942947,1,-0.0002387547865509987,1,-0.0002554232196416706,1,0.0007873679860495031,1
03/09/26 14:44:50.805743616,0.01788708381354809,1,0.01381629426032305,1,0.05699232593178749,1,0.0008200266165658832,1,1.655838423175737e-05,1,0.0008249700767919421,1
03/09/26 14:44:50.815614464,0.006130411755293608,1,9.573018178343773e-05,1,0.02048972435295582,1,0.0009365760488435626,1,0.0002854724589269608,1,0.0008300243061967194,1
03/09/26 14:44:50.825407232,0.008230994455516338,1,0.00116928294301033,1,0.01292355824261904,1,-0.0002387739368714392,1,-0.0004017629544250667,1,0.0007245890446938574,1
03/09/26 14:44:50.835108096,0.01617743447422981,1,0.008727480657398701,1,0.03607809171080589,1,0.00111190730240196,1,-0.0003477893769741058,1,0.0008359633502550423,1
03/09/26 14:44:50.844717056,0.01884040609002113,1,-0.0007683606236241758,1,0.03169947862625122,1,0.001378893852233887,1,-1.871889253379777e-05,1,0.0006336893420666456,1
03/09/26 14:44:50.854235648,0.01881556771695614,1,0.003371824976056814,1,0.02223718911409378,1,0.0002291083801537752,1,-0.0001134107078542002,1,0.0007806228823028505,1
03/09/26 14:44:50.863663616,0.01894697174429893,1,0.005129331722855568,1,0.02865706942975521,1,0.0002872778859455138,1,-7.835204451112077e-05,1,0.0007122047827579081,1
03/09/26 14:44:50.873145856,0.01949740201234818,1,0.007890734821557999,1,0.04269727319478989,1,0.0001788820372894406,1,-0.0002499948313925415,1,0.0006201501819305122,1
03/09/26 14:44:50.883838720,0.01573841646313667,1,0.01042325422167778,1,0.04210400953888893,1,3.689673030748963e-05,1,0.000120269411127083,1,0.0003576604649424553,1
03/09/26 14:44:50.894430720,0.01652324199676514,1,0.01151914149522781,1,0.03640712797641754,1,-0.0004867459938395768,1,-9.050135849975049e-05,1,0.0003726195427589118,1
03/09/26 14:44:50.904926208,0.01583505049347878,1,0.01184008363634348,1,0.04166128858923912,1,0.0003474733675830066,1,-0.0004063611559104174,1,0.0007207654998637736,1
03/09/26 14:44:50.915322112,0.01819995790719986,1,0.008866296149790287,1,0.04953631013631821,1,3.372393985046074e-05,1,-0.0005466993898153305,1,0.0006789430044591427,1
03/09/26 14:44:50.925617920,0.01189376320689917,1,0.01062418799847364,1,0.05120225995779037,1,-0.0005156158003956079,1,-0.0002082300779875368,1,0.0005976024549454451,1
03/09/26 14:44:50.935817728,0.01025201659649611,1,0.006002010777592659,1,0.05312590673565865,1,-0.0004968966240994632,1,-0.0001943312672665343,1,0.0008531829225830734,1
03/09/26 14:44:50.945919232,0.008674724958837032,1,0.00738921482115984,1,0.05975112318992615,1,-0.0008012407924979925,1,-0.0006899421568959951,1,0.0009433527593500912,1
03/09/26 14:44:50.955923968,0.005850952584296465,1,0.01379393227398396,1,0.06697079539299011,1,-0.001097839558497071,1,4.197225644020364e-05,1,0.0005024783895350993,1
03/09/26 14:44:50.965836032,0.00529465964064002,1,0.01346972864121199,1,0.06188663095235825,1,-0.0007573007605969906,1,0.0001245892781298608,1,0.0003748605668079108,1
03/09/26 14:44:50.975676160,0.004171652719378471,1,0.01617458835244179,1,0.05571573600172997,1,0.0001358606241410598,1,0.0005352419102564454,1,0.0004938815254718065,1
03/09/26 14:44:50.985425408,0.00731695955619216,1,0.0162862129509449,1,0.05004852265119553,1,0.0007156398496590555,1,0.000827428069896996,1,0.0006709032459184527,1
03/09/26 14:44:50.995081216,0.01126149948686361,1,0.01371779385954142,1,0.04109667241573334,1,0.001009657280519605,1,0.0008269979152828455,1,0.0007149116136133671,1
03/09/26 14:44:51.004646144,0.01398223917931318,1,0.01173795852810144,1,0.03111694194376469,1,0.0009212486911565065,1,0.001078377244994044,1,0.0006145278457552195,1
03/09/26 14:44:51.014119168,0.01822274923324585,1,0.009935127571225166,1,0.0267484150826931,1,0.0009668334969319403,1,0.0009944181656464934,1,0.00060666399076581,1
03/09/26 14:44:51.023500800,0.02074994705617428,1,0.009566091932356358,1,0.02437703870236874,1,0.0003577608440537006,1,0.0006207067635841668,1,0.0007256736280396581,1
03/09/26 14:44:51.033380608,0.0219702236354351,1,0.008654462173581123,1,0.02638745307922363,1,7.952894520713016e-05,1,0.0001836348383221775,1,0.0008615762344561517,1
03/09/26 14:44:51.044044544,0.0207839198410511,1,0.01094735972583294,1,0.02659054473042488,1,-6.069754454074427e-05,1,-8.382376108784229e-07,1,0.0008637438295409083,1
03/09/26 14:44:51.054607104,0.01720424368977547,1,0.01321997307240963,1,0.02237660065293312,1,-0.000210509286262095,1,-0.0001909444399643689,1,0.0009971194667741656,1
03/09/26 14:44:51.065074944,0.01404010783880949,1,0.0152937164530158,1,0.02645423263311386,1,-0.0004299789143260568,1,-0.0001900994830066338,1,0.001137044630013406,1
03/09/26 14:44:51.075444992,0.009407211095094681,1,0.01815894432365894,1,0.03369775414466858,1,-0.0004900246276520193,1,-0.0002220654278062284,1,0.001215072930790484,1
03/09/26 14:44:51.085716480,0.005122567526996136,1,0.01919487118721008,1,0.03886078298091888,1,-0.0003131057892460376,1,-0.0002966512111015618,1,0.001604910474270582,1
03/09/26 14:44:51.095890176,0.001104117021895945,1,0.0181511715054512,1,0.04393541067838669,1,-0.0002496126689948142,1,0.0001505187246948481,1,0.001623875112272799,1
03/09/26 14:44:51.105965312,0.002219842514023185,1,0.01631218194961548,1,0.05050713196396828,1,8.44508467707783e-05,1,0.0003149083349853754,1,0.001253585214726627,1
03/09/26 14:44:51.115943168,0.005330007057636976,1,0.01449944265186787,1,0.05229883641004562,1,3.497803481877781e-05,1,0.0003336303634569049,1,0.0009797303937375546,1
03/09/26 14:44:51.125826560,0.009162996895611286,1,0.007289260625839233,1,0.04466291889548302,1,0.0005592280649580061,1,0.0006496325950138271,1,0.0008667320944368839,1
03/09/26 14:44:51.135616768,0.01523598097264767,1,0.004316861275583506,1,0.03778191655874252,1,0.0008601528243161738,1,0.0007238340331241488,1,0.001089438446797431,1
03/09/26 14:44:51.145313280,0.02212328650057316,1,-3.626802936196327e-05,1,0.03272850438952446,1,0.0008465492282994092,1,0.0005503040738403797,1,0.001116186147555709,1
03/09/26 14:44:51.154943744,0.02372965216636658,1,-0.001730160322040319,1,0.03366253525018692,1,0.0002322466461919248,1,-6.814270454924554e-05,1,0.0009069950901903212,1
03/09/26 14:44:51.164483840,0.01829344965517521,1,0.0004518890054896474,1,0.04010320082306862,1,-0.0006714619812555611,1,-0.0001666612806729972,1,0.0008330863201990724,1
03/09/26 14:44:51.173933312,0.01222230028361082,1,0.002668729284778237,1,0.04548496380448341,1,-0.0009369559702463448,1,-0.0002658559533301741,1,0.0008459510281682014,1
03/09/26 14:44:51.183294720,0.01052909716963768,1,0.006760775111615658,1,0.04895657300949097,1,-0.001208851346746087,1,-0.0002394143957644701,1,0.0009214904275722802,1
03/09/26 14:44:51.193590784,0.01116804778575897,1,0.01002462673932314,1,0.0533473901450634,1,-0.0008314917795360088,1,0.0002862538094632328,1,0.001019477262161672,1
03/09/26 14:44:51.204227328,0.01060895994305611,1,0.01295759156346321,1,0.04818569123744965,1,-0.0002062437270069495,1,0.0001878374896477908,1,0.00124002096708864,1
03/09/26 14:44:51.214762752,0.01090997643768787,1,0.01352662965655327,1,0.0419776663184166,1,0.0001105977935367264,1,0.0003015007532667369,1,0.0008035915088839829,1
03/09/26 14:44:51.225197568,0.01135845761746168,1,0.009519544430077076,1,0.03651854768395424,1,0.0001956782507477328,1,0.0006243414827622473,1,0.0007383000920526683,1
03/09/26 14:44:51.235541504,0.01252641435712576,1,0.007433464284986258,1,0.03625670447945595,1,0.0002303883666172624,1,0.0006862516165710986,1,0.0007050460553728044,1
03/09/26 14:44:51.245791232,0.01065518707036972,1,0.006933897268027067,1,0.03628877550363541,1,-8.264686039183289e-05,1,0.0007306839106604457,1,0.0004182849661447108,1
03/09/26 14:44:51.255942912,0.01321673765778542,1,0.006805046927183867,1,0.03820459172129631,1,-0.0001404982758685946,1,0.0005810174625366926,1,0.0006306978175416589,1
03/09/26 14:44:51.265998848,0.01332910358905792,1,0.004159733653068542,1,0.04482661560177803,1,0.0001740791631164029,1,0.0005388785502873361,1,0.0008019809029065073,1
03/09/26 14:44:51.275958272,0.01340547110885382,1,0.002177271526306868,1,0.04375859722495079,1,0.0006245101103559136,1,0.0005574666429311037,1,0.0007654048968106508,1
03/09/26 14:44:51.285822720,0.01193115953356028,1,-0.001107578980736434,1,0.04428160190582275,1,0.0004988543805666268,1,0.0005004469421692193,1,0.0009261996019631624,1
03/09/26 14:44:51.295592704,0.01061522029340267,1,0.001397087704390287,1,0.04201466962695122,1,0.000146817765198648,1,0.0004144837730564177,1,0.0008041083347052336,1
03/09/26 14:44:51.305272320,0.01049706805497408,1,0.003209184389561415,1,0.04320813715457916,1,-0.0004981076926924288,1,0.0003013912355527282,1,0.0006875020917505026,1
03/09/26 14:44:51.314858496,0.01198144443333149,1,0.001726300455629826,1,0.04356247931718826,1,-0.001007018727250397,1,0.0003967847733292729,1,0.0008248139638453722,1
03/09/26 14:44:51.324352768,0.01431833114475012,1,0.002338942373171449,1,0.04844631254673004,1,-0.001560710137709975,1,0.0001950718142325059,1,0.0008620126754976809,1
03/09/26 14:44:51.333755904,0.01706317998468876,1,0.005355558358132839,1,0.04635815322399139,1,-0.001713712699711323,1,0.0003663537208922207,1,0.001073249964974821,1
03/09/26 14:44:51.343068672,0.01799868233501911,1,0.005706675350666046,1,0.04047432169318199,1,-0.00180562911555171,1,-0.0002070647751679644,1,0.001125044305808842,1
03/09/26 14:44:51.353793536,0.02163693308830261,1,0.001945636700838804,1,0.03738897666335106,1,-0.002266706898808479,1,-0.0005974292289465666,1,0.001177495461888611,1
03/09/26 14:44:51.364417536,0.02206548675894737,1,0.00186170928645879,1,0.0410672202706337,1,-0.002930514048784971,1,-0.0009001531288959086,1,0.001439318060874939,1
03/09/26 14:44:51.374942464,0.01822332479059696,1,0.002109535271301866,1,0.04343929514288902,1,-0.003828654065728188,1,-0.001061325427144766,1,0.001658305758610368,1
03/09/26 14:44:51.385369344,0.01067713927477598,1,0.01061504893004894,1,0.04463671892881393,1,-0.004565867129713297,1,-0.001138153020292521,1,0.001483741332776845,1
03/09/26 14:44:51.395696640,0.005369032733142376,1,0.018765764310956,1,0.05083019658923149,1,-0.005179472733289003,1,-0.0007384875789284706,1,0.001359969959594309,1
03/09/26 14:44:51.405925120,-0.001078417524695396,1,0.02338957972824574,1,0.05292251706123352,1,-0.005207383539527655,1,6.9397923653014e-05,1,0.0009663464152254164,1
03/09/26 14:44:51.416055808,-0.004204415250569582,1,0.0299988966435194,1,0.0495593473315239,1,-0.004387377761304379,1,0.000216899803490378,1,0.0008156386320479214,1
03/09/26 14:44:51.426087936,-0.001709827221930027,1,0.02781717665493488,1,0.0403745248913765,1,-0.002579843392595649,1,0.0006404932355508208,1,0.0006450139917433262,1
03/09/26 14:44:51.436023552,0.001959353685379028,1,0.02301338873803616,1,0.03134479001164436,1,-0.0009253338212147355,1,0.0014750009868294,1,0.0002794648462440819,1
03/09/26 14:44:51.445866496,0.00916205532848835,1,0.01504027750343084,1,0.01454795803874731,1,0.0003760450053960085,1,0.001559312338940799,1,0.0003782292769756168,1
03/09/26 14:44:51.455614208,0.01534536015242338,1,0.01502848882228136,1,0.006510821171104908,1,0.0003938601003028452,1,0.001104856724850833,1,0.0002681365294847637,1
03/09/26 14:44:51.465291008,0.01372162066400051,1,0.01731180027127266,1,0.01527608744800091,1,-4.617776721715927e-05,1,0.0003733913181349635,1,0.0003248372813686728,1
03/09/26 14:44:51.474877184,0.008907274343073368,1,0.01971547864377499,1,0.02565494738519192,1,-0.0007367936777882278,1,-0.000167420512298122,1,0.00042288115946576,1
03/09/26 14:44:51.484371712,0.0008882557158358395,1,0.01453510671854019,1,0.05148282647132874,1,-0.0005744347581639886,1,-0.0004835809231735766,1,0.0004486000980250537,1
03/09/26 14:44:51.493776384,0.008955174125730991,1,0.01213558949530125,1,0.06768215447664261,1,0.0002791938022710383,1,0.000978548196144402,1,0.000514478306286037,1
03/09/26 14:44:51.503238400,0.005326796323060989,1,0.02059757150709629,1,0.05883612483739853,1,0.0002567339688539505,1,0.001344996388070285,1,0.0005172918317839503,1
03/09/26 14:44:51.513929728,0.009484806098043919,1,0.003452752949669957,1,0.03842122480273247,1,-9.409797712578438e-06,1,0.001065795426256955,1,0.0005986651522107422,1
03/09/26 14:44:51.524519424,0.01342878490686417,1,0.01550661399960518,1,0.03676579147577286,1,-0.0006583589129149914,1,0.0005279653123579919,1,0.001061208313331008,1
03/09/26 14:44:51.535014144,0.008827789686620235,1,0.01225647237151861,1,0.04728760570287704,1,-0.0008160553989000618,1,0.0003233213792555034,1,0.0007127114222384989,1
03/09/26 14:44:51.545408512,0.001040191506035626,1,0.009320806711912155,1,0.0532824918627739,1,-0.001123436028137803,1,0.0003190975985489786,1,0.0003987533855251968,1
03/09/26 14:44:51.555704064,0.004187806509435177,1,0.01244940329343081,1,0.05161484703421593,1,-0.001040215604007244,1,0.0007301350706256926,1,0.0003517974691931158,1
03/09/26 14:44:51.565901824,0.01432725135236979,1,0.007789188995957375,1,0.05567282065749168,1,-0.0001413474383298308,1,0.000956834526732564,1,0.0003460313018877059,1
03/09/26 14:44:51.576000512,0.02121352218091488,1,0.005594827234745026,1,0.04329116642475128,1,0.001314383465796709,1,0.00117260089609772,1,0.0005913274362683296,1
03/09/26 14:44:51.586001408,0.02782709524035454,1,0.0001053175365086645,1,0.02643524669110775,1,0.001799581223167479,1,0.001008409075438976,1,0.0008150782668963075,1
03/09/26 14:44:51.595908096,0.02835348434746265,1,-0.0004251750069670379,1,0.02411101758480072,1,0.001536903670057654,1,0.0003450187796261162,1,0.0003864331520162523,1
03/09/26 14:44:51.605721088,0.02257431484758854,1,-0.0001001963391900063,1,0.01863763853907585,1,0.000760138442274183,1,-5.752941069658846e-05,1,0.0007594359922222793,1
03/09/26 14:44:51.615447552,0.01158229075372219,1,0.007372526451945305,1,0.02389877662062645,1,-0.0003299711679574102,1,-0.0002997839765157551,1,0.000585425877943635,1
03/09/26 14:44:51.625094912,0.02067209407687187,1,0.003922699950635433,1,0.02671387232840061,1,-0.0007287741755135357,1,7.122998795239255e-05,1,0.0006101647159084678,1
03/09/26 14:44:51.634650368,0.03109685890376568,1,0.02064359560608864,1,0.04322335869073868,1,0.0006741911056451499,1,1.594561035744846e-05,1,0.0006659431383013725,1
03/09/26 14:44:51.644114176,0.02831597998738289,1,0.01064675021916628,1,0.02639905177056789,1,0.002518915571272373,1,0.0002073468058370054,1,0.0006816133391112089,1
03/09/26 14:44:51.653488128,0.02239096350967884,1,0.002029278315603733,1,0.009355067275464535,1,0.001842890051193535,1,-8.7133223132696e-05,1,0.0009529872331768274,1
03/09/26 14:44:51.663361792,0.01653668656945229,1,0.00590015621855855,1,0.03778422623872757,1,0.001811462687328458,1,-0.0002408231666777283,1,0.001062052906490862,1
03/09/26 14:44:51.674024192,0.01380614470690489,1,0.00183068320620805,1,0.05026288703083992,1,0.001297410577535629,1,4.20204596593976e-05,1,0.001186648267321289,1
03/09/26 14:44:51.684584960,0.0101760309189558,1,0.0006353901117108762,1,0.0444907546043396,1,-0.000530175631865859,1,-0.0002444185374770314,1,0.001030559884384274,1
03/09/26 14:44:51.695051264,0.01037826202809811,1,0.00998755544424057,1,0.05294862017035484,1,-0.0005460962420329452,1,-0.0004821482871193439,1,0.001023656805045903,1
03/09/26 14:44:51.705419776,0.01225267816334963,1,0.006545171141624451,1,0.06203622743487358,1,0.0006079923477955163,1,-0.0002070775371976197,1,0.00086154107702896,1
03/09/26 14:44:51.715690240,0.007164424750953913,1,0.004508829209953547,1,0.06311959773302078,1,0.0008543815929442644,1,-0.0004078738857060671,1,0.001245197141543031,1
03/09/26 14:44:51.725862400,0.004757826216518879,1,-0.001820556586608291,1,0.05441923439502716,1,0.0008832718012854457,1,-0.0001705224276520312,1,0.001163525856100023,1
03/09/26 14:44:51.735936512,0.007706924807280302,1,-0.007761528715491295,1,0.04544071853160858,1,0.0003032037930097431,1,-0.0003967876837123185,1,0.001077472348697484,1
03/09/26 14:44:51.745913856,0.01040392834693193,1,-0.01089715585112572,1,0.04287629574537277,1,-5.445976785267703e-05,1,-0.0006536169094033539,1,0.0007839884492568672,1
03/09/26 14:44:51.755796736,0.007841173559427261,1,-0.007222926709800959,1,0.0448135994374752,1,-0.001286284066736698,1,-0.001186347333714366,1,0.0004927092813886702,1
03/09/26 14:44:51.765587200,0.002218290697783232,1,-0.003167761722579598,1,0.04904920235276222,1,-0.002234733663499355,1,-0.001560388132929802,1,0.0003908337093889713,1
03/09/26 14:44:51.775308032,-0.002956008771434426,1,0.005918270442634821,1,0.05931510031223297,1,-0.002282313769683242,1,-0.0007934222812764347,1,0.0003972318954765797,1
03/09/26 14:44:51.784939264,-0.005332679022103548,1,0.007555796299129725,1,0.06548492610454559,1,-0.001573188696056604,1,-0.0003664427495095879,1,0.000158028575242497,1
03/09/26 14:44:51.794478848,-0.003159621264785528,1,0.008851057849824429,1,0.05863476917147636,1,-0.001467015594244003,1,0.0005178664578124881,1,-2.768783087958582e-05,1
03/09/26 14:44:51.803928064,0.002486590528860688,1,0.007265395950525999,1,0.04132398962974548,1,-0.001074978266842663,1,0.0008203625911846757,1,-3.617054608184844e-05,1
03/09/26 14:44:51.813286656,0.01102052349597216,1,0.004241907503455877,1,0.025603162124753,1,-0.0008611301309429109,1,0.0008759567863307893,1,7.88936231401749e-05,1
03/09/26 14:44:51.823581440,0.01757179945707321,1,0.008945551700890064,1,0.01900322362780571,1,-0.001035866676829755,1,0.0008893416379578412,1,0.000126701153931208,1
03/09/26 14:44:51.834217472,0.0164959691464901,1,0.009210466407239437,1,0.01682626642286777,1,-0.001508779241703451,1,0.0007563463295809925,1,0.0004939150530844927,1
03/09/26 14:44:51.844752384,0.01200300827622414,1,0.01215896103531122,1,0.02580029144883156,1,-0.001820055302232504,1,0.0006459387950599194,1,0.0007118730572983623,1
03/09/26 14:44:51.855192064,0.007116916123777628,1,0.01859927736222744,1,0.0397329181432724,1,-0.001618787413462996,1,0.0004780687741003931,1,0.0007292094524018466,1
03/09/26 14:44:51.865531904,0.007907825522124767,1,0.02447221428155899,1,0.04601699858903885,1,-0.001343206968158484,1,0.0004943233798258007,1,0.0008419780642725527,1
03/09/26 14:44:51.875772416,0.01210078503936529,1,0.0267212837934494,1,0.04275300726294518,1,-0.0003866413026116788,1,0.0007003469509072602,1,0.0009141330374404788,1
03/09/26 14:44:51.885917952,0.0195761788636446,1,0.02739549987018108,1,0.03038919903337955,1,0.0007319898577407002,1,0.0005631112144328654,1,0.001214277464896441,1
03/09/26 14:44:51.895966976,0.02795475162565708,1,0.02010524831712246,1,0.01616508327424526,1,0.001403755391947925,1,0.0004145957645960152,1,0.0009573939605616033,1
03/09/26 14:44:51.905919488,0.03425377234816551,1,0.01681585982441902,1,0.01442782580852509,1,0.001276565133593976,1,0.0002675712166819721,1,0.001105306670069695,1
03/09/26 14:44:51.915796480,0.03441980481147766,1,0.0154732670634985,1,0.01962918229401112,1,0.001067831879481673,1,-0.0003338365349918604,1,0.001764522399753332,1
03/09/26 14:44:51.925586688,0.0285628866404295,1,0.01627364195883274,1,0.0289576817303896,1,0.0001331948151346296,1,-0.0009175611776299775,1,0.001911513158120215,1
03/09/26 14:44:51.935283456,0.01943154446780682,1,0.02282690443098545,1,0.04641969129443169,1,-0.0006757406517863274,1,-0.001273749046958983,1,0.001995417755097151,1
03/09/26 14:44:51.944887296,0.01443044282495975,1,0.02652931958436966,1,0.06649178266525269,1,-0.0007509032147936523,1,-0.001383852562867105,1,0.002207656623795629,1
03/09/26 14:44:51.954399488,0.01086800545454025,1,0.02668185345828533,1,0.07387683540582657,1,-0.0002685275103431195,1,-0.0008611241355538368,1,0.001996128121390939,1
03/09/26 14:44:51.963820288,0.0117770116776228,1,0.02589556761085987,1,0.06252584606409073,1,0.0002566566690802574,1,-0.0004354810516815633,1,0.001745177316479385,1
03/09/26 14:44:51.973152512,0.01471919845789671,1,0.01713151670992374,1,0.04837402328848839,1,0.0008292017737403512,1,-0.0001060054419212975,1,0.0015621263301,1
03/09/26 14:44:51.983874048,0.01950675621628761,1,0.009820617735385895,1,0.03777268901467323,1,0.001153947552666068,1,-2.71945318672806e-05,1,0.001539907301776111,1
03/09/26 14:44:51.994494976,0.02199712209403515,1,0.004844183102250099,1,0.03048975393176079,1,0.0007350099040195346,1,-0.0002344553067814559,1,0.001569250947795808,1
03/09/26 14:44:52.005016064,0.01892931014299393,1,0.002202559961006045,1,0.03186464309692383,1,0.0004473865265026689,1,-0.0002228297234978527,1,0.001446650712750852,1
03/09/26 14:44:52.015442432,0.01443390268832445,1,0.006011818069964647,1,0.03827597200870514,1,1.996252831304446e-05,1,-0.000507899618241936,1,0.001465692184865475,1
03/09/26 14:44:52.025770240,0.009463670663535595,1,0.006600881461054087,1,0.04854582250118256,1,4.292608355171978e-05,1,-0.0006949565722607076,1,0.00127991964109242,1
03/09/26 14:44:52.035998720,0.006266175769269466,1,0.007933133281767368,1,0.05023658648133278,1,0.0005458211526274681,1,-0.0004020258202217519,1,0.0009866253240033984,1
03/09/26 14:44:52.046133248,0.00495151337236166,1,0.007250935304909945,1,0.04452651739120483,1,0.00133877107873559,1,-3.351000850670971e-05,1,0.0008426352869719267,1
03/09/26 14:44:52.056169984,0.006842943374067545,1,0.001816777512431145,1,0.03525865450501442,1,0.001773888361640275,1,0.0002622625324875116,1,0.0006786909652873874,1
03/09/26 14:44:52.066111488,0.01097411010414362,1,5.386813427321613e-05,1,0.02961288765072823,1,0.002072506584227085,1,0.0001128803269239143,1,0.0007588946027681231,1
03/09/26 14:44:52.075972096,0.01241398882120848,1,-0.001353771076537669,1,0.02661716938018799,1,0.001009863801300526,1,-0.0003686987911351025,1,0.0009338949457742274,1
03/09/26 14:44:52.085750784,0.008976834826171398,1,0.0007523386739194393,1,0.03118385933339596,1,0.0005539663834497333,1,-0.0004235001397319138,1,0.0007594159105792642,1
03/09/26 14:44:52.095438080,0.0007420392357744277,1,0.003648219397291541,1,0.04200752824544907,1,0.000125895778182894,1,-0.0007102402159944177,1,0.000796765205450356,1
03/09/26 14:44:52.105032704,-0.002831272780895233,1,0.005299657583236694,1,0.05713122710585594,1,0.0001156633152277209,1,-0.0006671333685517311,1,0.0008141917060129344,1
