FILE_INFO
ListSeparator=,
DecimalSeparator=.

SESSION_INFO
TimeZone,UTC
TimeZoneOffset,0
DateTimeFormat,MM/DD/YY h:mm:ss.nnnnnnnnn
StartTime,01/01/70 00:00:00.000000000
TimeFormat,Standard

DEVICE_INFO
Address,*

CHANNEL_INFO
Channel,Type,SampleRate,Equation,Coefficients,Unit,UnitSymbol,WhereApplied,WhenApplied
inertial-6286.188861:estRoll,Timeseries,25Hz,,,,,,
inertial-6286.188861:estRoll:valid,ValidFlag,25Hz,,,,,,
inertial-6286.188861:estPitch,Timeseries,25Hz,,,,,,
inertial-6286.188861:estPitch:valid,ValidFlag,25Hz,,,,,,
inertial-6286.188861:estYaw,Timeseries,25Hz,,,,,,
inertial-6286.188861:estYaw:valid,ValidFlag,25Hz,,,,,,
inertial-6286.188861:estLinearAccelY,Timeseries,25Hz,,,,,,
inertial-6286.188861:estLinearAccelY:valid,ValidFlag,25Hz,,,,,,
inertial-6286.188861:estLinearAccelX,Timeseries,25Hz,,,,,,
inertial-6286.188861:estLinearAccelX:valid,ValidFlag,25Hz,,,,,,
inertial-6286.188861:estLinearAccelZ,Timeseries,25Hz,,,,,,
inertial-6286.188861:estLinearAccelZ:valid,ValidFlag,25Hz,,,,,,

DATA_START
Time,inertial-6286.188861:estRoll,inertial-6286.188861:estRoll:valid,inertial-6286.188861:estPitch,inertial-6286.188861:estPitch:valid,inertial-6286.188861:estYaw,inertial-6286.188861:estYaw:valid,inertial-6286.188861:estLinearAccelY,inertial-6286.188861:estLinearAccelY:valid,inertial-6286.188861:estLinearAccelX,inertial-6286.188861:estLinearAccelX:valid,inertial-6286.188861:estLinearAccelZ,inertial-6286.188861:estLinearAccelZ:valid
01/28/26 20:59:38.408110336,-0.007036275696009398,1,0.006630569696426392,1,2.050742864608765,1,-0.001241510501131415,1,-0.007018082775175571,1,0.03697137907147408,1
01/28/26 20:59:38.448106496,-0.007041188888251781,1,0.006623522378504276,1,2.050744295120239,1,0.0001914531458169222,1,0.002225877717137337,1,0.03538038954138756,1
01/28/26 20:59:38.488103936,-0.007056237198412418,1,0.006623949389904737,1,2.050739526748657,1,-0.003834430826827884,1,-0.00454428605735302,1,0.03431455045938492,1
01/28/26 20:59:38.528126720,-0.007065593730658293,1,0.00662153260782361,1,2.050739765167236,1,-0.00636464636772871,1,-0.005239574238657951,1,0.04637292772531509,1
01/28/26 20:59:38.568140032,-0.007070950698107481,1,0.006612201221287251,1,2.050741910934448,1,-0.002907440531998873,1,0.002754795597866178,1,0.03391912579536438,1
01/28/26 20:59:38.608138496,-0.007071026600897312,1,0.006599877029657364,1,2.050739288330078,1,-0.005430703517049551,1,-0.00208772555924952,1,0.03099993988871574,1
01/28/26 20:59:38.648134400,-0.007073619402945042,1,0.006604972295463085,1,2.050735235214233,1,-0.003446712158620358,1,-8.19431443233043e-05,1,0.03917434811592102,1
01/28/26 20:59:38.688156416,-0.007076030131429434,1,0.006615892052650452,1,2.05072283744812,1,-0.003319511422887444,1,-0.003380396403372288,1,0.03414708003401756,1
01/28/26 20:59:38.728162304,-0.007081717252731323,1,0.006618699058890343,1,2.050724267959595,1,-0.001843355828896165,1,-0.00206926790997386,1,0.03672348707914352,1
01/28/26 20:59:38.768155904,-0.007076724898070097,1,0.006622509565204382,1,2.050718307495117,1,-0.002218541456386447,1,-0.001740309875458479,1,0.03905418887734413,1
01/28/26 20:59:38.808152320,-0.007073430810123682,1,0.006619903258979321,1,2.050713777542114,1,-0.007204891182482243,1,-0.004323934204876423,1,0.03688511997461319,1
01/28/26 20:59:38.848173824,-0.007057389244437218,1,0.006633450277149677,1,2.050712585449219,1,-0.005843403283506632,1,-0.0009155175648629665,1,0.0328531451523304,1
01/28/26 20:59:38.888179712,-0.00705298176035285,1,0.006642200518399477,1,2.05072021484375,1,-0.00636646430939436,1,-0.003708717646077275,1,0.04092897102236748,1
01/28/26 20:59:38.928173312,-0.007047710008919239,1,0.006646101363003254,1,2.050723075866699,1,-0.004135298542678356,1,0.001532217720523477,1,0.03954504430294037,1
01/28/26 20:59:38.968179200,-0.007038145791739225,1,0.006641365587711334,1,2.050719976425171,1,-0.007994496263563633,1,-0.004558055195957422,1,0.03739624470472336,1
01/28/26 20:59:39.008240128,-0.007045414764434099,1,0.006647472269833088,1,2.050714254379272,1,-0.004415248055011034,1,0.01123018004000187,1,0.03804216161370277,1
01/28/26 20:59:39.048256000,-0.007046647369861603,1,0.006647899281233549,1,2.050712823867798,1,-0.001819822588004172,1,-0.01141868438571692,1,0.03582142665982246,1
01/28/26 20:59:39.088250368,-0.007048527710139751,1,0.006647287402302027,1,2.050707340240479,1,-0.006502818781882524,1,0.004418965894728899,1,0.03035794943571091,1
01/28/26 20:59:39.128252416,-0.007042306941002607,1,0.006663602311164141,1,2.05070161819458,1,-0.01006980612874031,1,-0.00780419958755374,1,0.040864497423172,1
01/28/26 20:59:39.168300288,-0.007033807225525379,1,0.006673145107924938,1,2.05070972442627,1,-0.002002107677981257,1,-0.001445297035388649,1,0.04009802639484406,1
01/28/26 20:59:39.208312320,-0.007035917136818171,1,0.00667053135111928,1,2.050705671310425,1,-0.001308745471760631,1,-0.006069687195122242,1,0.03417078778147697,1
01/28/26 20:59:39.248304640,-0.00703315855935216,1,0.006675686221569777,1,2.050690412521362,1,-0.002358886413276196,1,-0.0009271794115193188,1,0.03488334640860558,1
01/28/26 20:59:39.288301824,-0.007043302524834871,1,0.006674220319837332,1,2.050687551498413,1,-0.006978981662541628,1,-0.001641765586100519,1,0.0377073846757412,1
01/28/26 20:59:39.328332288,-0.007042160723358393,1,0.006683406420052052,1,2.050698041915894,1,-0.004479165188968182,1,-0.005418782122433186,1,0.03297104313969612,1
01/28/26 20:59:39.368339456,-0.00703884894028306,1,0.006702912505716085,1,2.050693035125732,1,-0.00586833106353879,1,0.005768162198364735,1,0.03795177862048149,1
01/28/26 20:59:39.408331520,-0.00702124647796154,1,0.006710570771247149,1,2.050682067871094,1,-0.0053943139500916,1,-0.006314598489552736,1,0.03955630585551262,1
01/28/26 20:59:39.448326912,-0.007019735407084227,1,0.006712927017360926,1,2.050687551498413,1,-0.002266045194119215,1,-0.003335812129080296,1,0.03188599646091461,1
01/28/26 20:59:39.488349696,-0.00703606940805912,1,0.006702669896185398,1,2.050685405731201,1,-0.006784024648368359,1,-0.0001613873173482716,1,0.0354231558740139,1
01/28/26 20:59:39.528354816,-0.007036868017166853,1,0.006701216567307711,1,2.050692081451416,1,-0.003806387074291706,1,-0.003177025122568011,1,0.03687137365341187,1
01/28/26 20:59:39.568346880,-0.007029025815427303,1,0.006680628284811974,1,2.050674200057983,1,-0.006146586965769529,1,-0.004156241659075022,1,0.03493955731391907,1
01/28/26 20:59:39.608301824,-0.00702837435528636,1,0.006677661556750536,1,2.050680875778198,1,-0.002152793575078249,1,0.004882065579295158,1,0.03740992769598961,1
01/28/26 20:59:39.648325888,-0.007028296589851379,1,0.006691810674965382,1,2.050683498382568,1,-0.007520334795117378,1,-0.01080424338579178,1,0.04089938476681709,1
01/28/26 20:59:39.688344576,-0.007021006662398577,1,0.0066950973123312,1,2.050687074661255,1,0.001740044914186001,1,-0.0003597334725782275,1,0.0271371454000473,1
01/28/26 20:59:39.728336128,-0.007006071973592043,1,0.006685920059680939,1,2.050688982009888,1,-0.006392304785549641,1,-0.002632908523082733,1,0.04302347451448441,1
01/28/26 20:59:39.768292864,-0.007003763690590858,1,0.006684410385787487,1,2.050673961639404,1,-0.001692460849881172,1,0.001998875755816698,1,0.03829459100961685,1
01/28/26 20:59:39.808284928,-0.007003881502896547,1,0.006676918361335993,1,2.050667524337769,1,-0.00260561378672719,1,-0.003497912082821131,1,0.03298652917146683,1
01/28/26 20:59:39.848292608,-0.007001723628491163,1,0.006683807820081711,1,2.050662994384766,1,-0.007127311080694199,1,-0.007890330627560616,1,0.03861964493989944,1
01/28/26 20:59:39.888285440,-0.006995348259806633,1,0.006688871886581182,1,2.050665855407715,1,-0.002114522736519575,1,-0.003637009067460895,1,0.03855209052562714,1
01/28/26 20:59:39.928240384,-0.007001642603427172,1,0.006691840942949057,1,2.050660133361816,1,-0.002049439586699009,1,-0.007034149020910263,1,0.03503936156630516,1
01/28/26 20:59:39.968239104,-0.007011942565441132,1,0.006700522731989622,1,2.050654888153076,1,-0.005648892838507891,1,0.005157206207513809,1,0.03691925853490829,1
01/28/26 20:59:40.008251904,-0.007027038373053074,1,0.006713079288601875,1,2.050644159317017,1,-0.008979309350252151,1,-0.004024113062769175,1,0.03619910031557083,1
01/28/26 20:59:40.048269312,-0.00702039897441864,1,0.006702017039060593,1,2.050634384155273,1,-0.002367444802075624,1,-0.003086257725954056,1,0.02977940998971462,1
01/28/26 20:59:40.088297728,-0.007020192220807076,1,0.00670208316296339,1,2.050623893737793,1,-0.007626290433108807,1,0.0004066728288307786,1,0.03860263153910637,1
01/28/26 20:59:40.128317696,-0.007025300059467554,1,0.006691389251500368,1,2.050620794296265,1,-0.004643257241696119,1,-0.004242072347551584,1,0.04360335320234299,1
01/28/26 20:59:40.168324608,-0.007026882376521826,1,0.006698200479149818,1,2.050617218017578,1,-0.009454251267015934,1,-0.005605259910225868,1,0.03355812653899193,1
01/28/26 20:59:40.208360192,-0.007028613239526749,1,0.006701122503727674,1,2.050611972808838,1,-0.007095371372997761,1,0.0003633502637967467,1,0.03500688448548317,1
01/28/26 20:59:40.248466432,-0.007032742723822594,1,0.006706397049129009,1,2.05060887336731,1,-0.00327351875603199,1,-0.004446366336196661,1,0.03843772038817406,1
01/28/26 20:59:40.288680448,-0.007030454929918051,1,0.006702876184135675,1,2.050624132156372,1,-0.009354992769658566,1,-0.0008625147165730596,1,0.03290288895368576,1
01/28/26 20:59:40.328734464,-0.007064414210617542,1,0.006687585730105639,1,2.050618410110474,1,-0.01006168033927679,1,-0.002036964287981391,1,0.02102950401604176,1
01/28/26 20:59:40.368745216,-0.007066820282489061,1,0.006678320001810789,1,2.050621509552002,1,0.001194407697767019,1,-0.008346918970346451,1,0.03299915045499802,1
01/28/26 20:59:40.408814080,-0.00700736278668046,1,0.006650036666542292,1,2.050610303878784,1,-0.05400567874312401,1,0.002236115746200085,1,-0.210606187582016,1
01/28/26 20:59:40.449026816,-0.007035959977656603,1,0.006647495552897453,1,2.050606250762939,1,0.01054785773158073,1,0.003202113322913647,1,0.07617689669132233,1
01/28/26 20:59:40.489080832,-0.007042129524052143,1,0.006626069080084562,1,2.050606250762939,1,-0.003944067284464836,1,-0.01832676120102406,1,0.03869608044624329,1
01/28/26 20:59:40.529072896,-0.0070454441010952,1,0.006617165170609951,1,2.050602197647095,1,-0.001868645427748561,1,0.009317276068031788,1,0.01533409766852856,1
01/28/26 20:59:40.569028608,-0.00705047370865941,1,0.006619496271014214,1,2.050598859786987,1,-0.002295530634000897,1,-0.01605404354631901,1,0.03334244340658188,1
01/28/26 20:59:40.609007360,-0.007054260466247797,1,0.006589458324015141,1,2.050588130950928,1,-0.0002033419150393456,1,0.007524215150624514,1,0.03305869549512863,1
01/28/26 20:59:40.649010432,-0.007048555184155703,1,0.00659533403813839,1,2.05057692527771,1,-0.001819600816816092,1,-0.01225920673459768,1,0.03095342591404915,1
01/28/26 20:59:40.689003520,-0.007054168730974197,1,0.006606343202292919,1,2.050579786300659,1,-0.00354308052919805,1,0.01040470879524946,1,0.02795738726854324,1
01/28/26 20:59:40.728965632,-0.007054296787828207,1,0.006606016308069229,1,2.050578832626343,1,-0.00597728556022048,1,-0.0124361515045166,1,0.04045737162232399,1
01/28/26 20:59:40.768950528,-0.007062395103275776,1,0.006610535085201263,1,2.050586223602295,1,-0.006197605282068253,1,-0.001062195282429457,1,0.03619871288537979,1
01/28/26 20:59:40.808953856,-0.04236903041601181,1,0.006530423182994127,1,2.045840263366699,1,-3.044618844985962,1,0.107688844203949,1,-2.073408126831055,1
01/28/26 20:59:40.848961536,-0.05104836821556091,1,0.006307845003902912,1,2.027276039123535,1,-0.2671627700328827,1,-0.03243251144886017,1,-3.203054666519165,1
01/28/26 20:59:40.889028352,-0.05858264118432999,1,0.006479768082499504,1,2.045177459716797,1,-0.7958041429519653,1,0.01089288108050823,1,-1.394167065620422,1
01/28/26 20:59:40.929244672,-0.0566578209400177,1,0.006450311280786991,1,2.050363540649414,1,0.3717860579490662,1,0.07694204151630402,1,0.4932652115821838,1
01/28/26 20:59:40.969300736,-0.02771260775625706,1,0.00574410380795598,1,2.052620649337769,1,-0.3159254789352417,1,-0.07187186181545258,1,-0.05697967112064362,1
01/28/26 20:59:41.009302016,-0.01689945161342621,1,0.005833240691572428,1,2.052641153335571,1,-0.6415349245071411,1,0.03896813094615936,1,-0.5697775483131409,1
01/28/26 20:59:41.049265664,-0.02098938636481762,1,0.005665145814418793,1,2.052709817886353,1,-0.1375301033258438,1,0.02095863595604897,1,-0.1339396089315414,1
01/28/26 20:59:41.089268480,-0.02070074342191219,1,0.005658635869622231,1,2.053037405014038,1,-0.03252372890710831,1,-0.03597614914178848,1,0.06950251758098602,1
01/28/26 20:59:41.129259520,-0.02025121822953224,1,0.00565790943801403,1,2.053614854812622,1,0.01545398030430079,1,0.004326723515987396,1,0.04401091486215591,1
01/28/26 20:59:41.169239552,-0.02027085609734058,1,0.005656108260154724,1,2.053625583648682,1,0.005733713507652283,1,-0.004136013798415661,1,0.0280288215726614,1
01/28/26 20:59:41.209268992,-0.02652495726943016,1,0.005712167825549841,1,2.041334390640259,1,-0.1255849599838257,1,0.08235515654087067,1,0.2974253296852112,1
01/28/26 20:59:41.249260288,-0.0340101569890976,1,0.005810543894767761,1,2.036694765090942,1,0.4230976104736328,1,0.01285640057176352,1,0.5135865211486816,1
01/28/26 20:59:41.289214976,-0.0295333843678236,1,0.005716196727007627,1,2.039352178573608,1,0.08663134276866913,1,-0.07506907731294632,1,0.234741136431694,1
01/28/26 20:59:41.329228544,-0.002784916898235679,1,0.006295522209256887,1,2.040856122970581,1,1.67038631439209,1,0.2888579964637756,1,0.2542621493339539,1
01/28/26 20:59:41.369227008,0.02632889151573181,1,0.003336025634780526,1,2.048171758651733,1,-0.2901203036308289,1,-0.0644860565662384,1,-0.04827110841870308,1
01/28/26 20:59:41.409179904,0.05625415593385696,1,0.002588821342214942,1,2.052696466445923,1,-0.5288717150688171,1,-0.1673976629972458,1,0.6089810132980347,1
01/28/26 20:59:41.449189376,0.05695390701293945,1,0.002557771978899837,1,2.047377586364746,1,-0.5967968106269836,1,-0.1547218859195709,1,0.8304566144943237,1
01/28/26 20:59:41.489185280,0.01119856908917427,1,0.003803774947300553,1,2.034453868865967,1,-0.8413299918174744,1,0.17066290974617,1,0.09100522845983505,1
01/28/26 20:59:41.529138688,-0.02484411932528019,1,0.005822976585477591,1,2.034546136856079,1,1.651134610176086,1,-0.07375937700271606,1,2.640362739562988,1
01/28/26 20:59:41.569141504,-0.0199537817388773,1,0.005863047204911709,1,2.03676700592041,1,-1.075504660606384,1,-0.1639414280653,1,0.1432699114084244,1
01/28/26 20:59:41.609131264,-0.01983490958809853,1,0.005686245858669281,1,2.035220146179199,1,0.8171331286430359,1,-0.002409041859209538,1,0.452307790517807,1
01/28/26 20:59:41.649088256,-0.002447037026286125,1,0.006285516545176506,1,2.03618860244751,1,0.733461856842041,1,0.3629121482372284,1,0.039305180311203,1
01/28/26 20:59:41.689095936,0.00836916733533144,1,0.003672684775665402,1,2.038227319717407,1,0.0855233445763588,1,-0.03603477403521538,1,-0.04246927797794342,1
01/28/26 20:59:41.729086976,0.004939260426908731,1,0.005163175985217094,1,2.0384681224823,1,0.2017032206058502,1,0.009048979729413986,1,-0.03642959520220757,1
01/28/26 20:59:41.769040384,-0.001261466764844954,1,0.006250123027712107,1,2.034078121185303,1,0.2987189888954163,1,-0.009228361770510674,1,0.3369879126548767,1
01/28/26 20:59:41.809081600,-0.002132434165105224,1,0.006286068353801966,1,2.034175634384155,1,0.03119882754981518,1,0.00588569138199091,1,0.05043809860944748,1
01/28/26 20:59:41.849098240,0.001092633930966258,1,0.006196921691298485,1,2.034179449081421,1,0.2651254534721375,1,0.01136565767228603,1,0.2288223206996918,1
01/28/26 20:59:41.889091072,0.003919718787074089,1,0.005679027177393436,1,2.034168004989624,1,0.07991659641265869,1,0.03049225732684135,1,0.0268113762140274,1
01/28/26 20:59:41.929109248,0.00857231393456459,1,0.003661422291770577,1,2.037168741226196,1,-0.06925387680530548,1,0.1381267756223679,1,-0.1154153272509575,1
01/28/26 20:59:41.969161984,0.01472221128642559,1,0.003607984632253647,1,2.045403003692627,1,-0.3758420944213867,1,-0.07455267757177353,1,0.1297232806682587,1
01/28/26 20:59:42.009186304,0.01709587872028351,1,0.003409192198887467,1,2.05143666267395,1,0.3435208797454834,1,-0.1971878856420517,1,0.1057378649711609,1
01/28/26 20:59:42.049178368,0.009949179366230965,1,0.003638467052951455,1,2.044787406921387,1,0.4654055833816528,1,-0.03514539077877998,1,-0.3439584970474243,1
01/28/26 20:59:42.089196288,0.007460764143615961,1,0.003954899031668901,1,2.032331228256226,1,-0.05225462466478348,1,0.2322427034378052,1,0.1051131039857864,1
01/28/26 20:59:42.129200384,0.00326981651596725,1,0.006002261303365231,1,2.022758722305298,1,0.08405730128288269,1,0.06744112819433212,1,0.02993146702647209,1
01/28/26 20:59:42.169191936,0.003203373868018389,1,0.006018063984811306,1,2.021041393280029,1,0.01870698295533657,1,0.01992615312337875,1,0.02341565117239952,1
01/28/26 20:59:42.209184512,0.00335790915414691,1,0.005958756897598505,1,2.019484281539917,1,0.406922847032547,1,0.161996990442276,1,0.04167585447430611,1
01/28/26 20:59:42.249205248,0.003475751960650086,1,0.005883344914764166,1,2.00942850112915,1,-0.9497537016868591,1,-0.5095053315162659,1,0.001340384129434824,1
01/28/26 20:59:42.289260800,0.002755796536803246,1,0.006173772737383842,1,1.994394898414612,1,0.005413729697465897,1,-0.0002750474959611893,1,-0.00551987998187542,1
01/28/26 20:59:42.329286144,0.002887033624574542,1,0.006114899646490812,1,1.979428887367249,1,0.02268046513199806,1,0.1932474374771118,1,0.01665571331977844,1
01/28/26 20:59:42.369276928,0.003005324862897396,1,0.00607192050665617,1,1.980589032173157,1,0.02810726314783096,1,0.0134248360991478,1,0.04262081161141396,1
01/28/26 20:59:42.409293824,0.002832704223692417,1,0.006155687849968672,1,1.980663537979126,1,-0.02937116473913193,1,-0.004021829925477505,1,0.01632906869053841,1
01/28/26 20:59:42.449297408,0.003055759938433766,1,0.006077820900827646,1,1.978991150856018,1,-0.411113440990448,1,-0.08921271562576294,1,0.04205796867609024,1
01/28/26 20:59:42.489299968,0.002588276285678148,1,0.006251177750527859,1,1.983164548873901,1,0.628733217716217,1,0.07792896777391434,1,0.05173534899950027,1
01/28/26 20:59:42.529309696,0.002797625260427594,1,0.006220616865903139,1,1.982495903968811,1,-0.1157374456524849,1,0.006941207684576511,1,0.05466509237885475,1
01/28/26 20:59:42.569326592,0.007097964640706778,1,0.00425653625279665,1,1.974343299865723,1,0.4565555453300476,1,0.3164660334587097,1,-0.06326617300510406,1
01/28/26 20:59:42.609327104,0.01179127581417561,1,0.003843625774607062,1,1.972646594047546,1,0.01711460947990417,1,-0.04415842518210411,1,-0.03497716411948204,1
01/28/26 20:59:42.649315840,0.01672339253127575,1,0.003809588495641947,1,1.971165776252747,1,-0.3053571879863739,1,0.2726748287677765,1,0.03399516642093658,1
01/28/26 20:59:42.689306624,0.02201839350163937,1,0.003671457059681416,1,1.976232171058655,1,-0.07733483612537384,1,-0.008453825488686562,1,0.02562884241342545,1
01/28/26 20:59:42.729323520,0.03015713021159172,1,0.003382563358172774,1,1.977260947227478,1,0.1540531516075134,1,-0.1443685293197632,1,0.05566146597266197,1
01/28/26 20:59:42.769324032,0.03893836587667465,1,0.00304293492808938,1,1.971245646476746,1,-0.1494489908218384,1,-0.1598979830741882,1,-0.1087615936994553,1
01/28/26 20:59:42.809312768,0.05790239945054054,1,-0.01304476708173752,1,1.974135518074036,1,0.1658748686313629,1,0.1985417306423187,1,0.2417119741439819,1
01/28/26 20:59:42.849304064,0.08566518127918243,1,-0.02989441342651844,1,1.990377187728882,1,-0.2427150756120682,1,0.4997816681861877,1,0.2290969491004944,1
01/28/26 20:59:42.889320960,0.1104073598980904,1,-0.04992024973034859,1,2.012705564498901,1,1.119473457336426,1,1.195939660072327,1,-1.663530826568604,1
01/28/26 20:59:42.929321472,0.1032936125993729,1,-0.1193815395236015,1,1.995862722396851,1,-0.1282378882169724,1,1.038534164428711,1,-0.9398792386054993,1
01/28/26 20:59:42.969351680,0.06934936344623566,1,-0.2173915654420853,1,1.96415102481842,1,-0.01582847535610199,1,0.04633974656462669,1,1.611648678779602,1
01/28/26 20:59:43.009405952,0.0471484437584877,1,-0.2727381587028503,1,1.932400465011597,1,0.1992766857147217,1,-1.482310056686401,1,1.839556336402893,1
01/28/26 20:59:43.049421568,0.03797844052314758,1,-0.2765450477600098,1,1.921768069267273,1,-0.178144171833992,1,-1.169020414352417,1,2.646426916122437,1
01/28/26 20:59:43.089421824,0.0411994531750679,1,-0.2096927016973495,1,1.927372694015503,1,0.08821295201778412,1,-0.3861877918243408,1,2.612238168716431,1
01/28/26 20:59:43.129409536,0.07579997181892395,1,-0.06077446416020393,1,1.929632663726807,1,-0.2452879101037979,1,0.072450190782547,1,3.15455150604248,1
01/28/26 20:59:43.169367552,0.08638906478881836,1,-0.00302851339802146,1,1.923245787620544,1,1.416959285736084,1,-0.005706243216991425,1,1.792885184288025,1
01/28/26 20:59:43.209347840,0.09667198359966278,1,0.001830564346164465,1,1.90861439704895,1,0.07713570445775986,1,-0.4907087087631226,1,0.2254324704408646,1
01/28/26 20:59:43.249348096,0.1013110131025314,1,0.001792393624782562,1,1.895861268043518,1,0.2522465288639069,1,-0.1902659237384796,1,0.01363089494407177,1
01/28/26 20:59:43.289344000,0.1098005846142769,1,0.00165530655067414,1,1.903660535812378,1,-0.170623317360878,1,0.3345010578632355,1,0.1051419228315353,1
01/28/26 20:59:43.329316864,0.1191270351409912,1,0.001491198898293078,1,1.925023317337036,1,-0.5597496032714844,1,0.07563100010156631,1,-0.03366691991686821,1
01/28/26 20:59:43.369302784,0.1377978473901749,1,0.001127430004999042,1,1.943534731864929,1,-1.488280177116394,1,-0.3085597455501556,1,-0.05857602134346962,1
01/28/26 20:59:43.409305600,0.1643683314323425,1,0.0005890640313737094,1,1.959231972694397,1,-0.3668056726455688,1,-0.09414695203304291,1,0.03106433153152466,1
01/28/26 20:59:43.449305088,0.1781061440706253,1,0.000422193348640576,1,1.974269390106201,1,1.87873387336731,1,0.5793958306312561,1,-0.4123485684394836,1
01/28/26 20:59:43.489270528,0.1902211457490921,1,-0.01101976539939642,1,1.974098563194275,1,-0.3303617835044861,1,0.355177640914917,1,-0.9973291754722595,1
01/28/26 20:59:43.529291264,0.1877853870391846,1,-0.07146938145160675,1,1.948750376701355,1,0.001601018011569977,1,-0.6964841485023499,1,-1.58311665058136,1
01/28/26 20:59:43.569308160,0.1536275744438171,1,-0.1898114681243896,1,1.93594753742218,1,-0.7561116814613342,1,0.1675088703632355,1,-2.048004865646362,1
01/28/26 20:59:43.609299712,0.08861531317234039,1,-0.3550361394882202,1,1.949592590332031,1,-1.60487174987793,1,-2.065491914749146,1,0.06743409484624863,1
01/28/26 20:59:43.649253632,0.02003156580030918,1,-0.376860111951828,1,1.988824129104614,1,-0.3501270711421967,1,-1.342611193656921,1,-1.445335388183594,1
01/28/26 20:59:43.689243648,-0.07804190367460251,1,-0.3535382151603699,1,2.03807520866394,1,-0.829922616481781,1,-0.7635307908058167,1,-0.612720251083374,1
01/28/26 20:59:43.729250816,-0.1897923052310944,1,-0.3236786723136902,1,2.096659421920776,1,-0.5686938166618347,1,0.351568728685379,1,0.06276232004165649,1
01/28/26 20:59:43.769242624,-0.310604602098465,1,-0.2257452756166458,1,2.128191232681274,1,-1.05184018611908,1,0.4443200528621674,1,2.869482040405273,1
01/28/26 20:59:43.809200128,-0.4095543324947357,1,-0.01819846965372562,1,2.075607538223267,1,-0.06632623076438904,1,0.8635240197181702,1,4.336010456085205,1
01/28/26 20:59:43.849180928,-0.4664963185787201,1,0.1866534352302551,1,1.971215486526489,1,0.2123857289552689,1,0.8279534578323364,1,2.202354192733765,1
01/28/26 20:59:43.889183744,-0.4869929850101471,1,0.3009969592094421,1,1.900581479072571,1,-0.3506025075912476,1,-0.7259191870689392,1,0.9240351319313049,1
01/28/26 20:59:43.929175808,-0.5055764317512512,1,0.4084446728229523,1,1.834697484970093,1,0.8407454490661621,1,-1.009103298187256,1,1.489108562469482,1
01/28/26 20:59:43.969130752,-0.4881699085235596,1,0.4862774014472961,1,1.799747705459595,1,0.4715153574943542,1,-0.2655918598175049,1,1.3338303565979,1
01/28/26 20:59:44.009118464,-0.377092570066452,1,0.4062469005584717,1,1.879581689834595,1,-0.4820122420787811,1,0.6738131642341614,1,0.309382289648056,1
01/28/26 20:59:44.049124864,-0.2628034949302673,1,0.1628282964229584,1,1.998695611953735,1,-0.9438849091529846,1,0.1043257862329483,1,0.6388979554176331,1
01/28/26 20:59:44.089116928,-0.1778348386287689,1,-0.0825451985001564,1,2.085264682769775,1,-0.9995453357696533,1,-1.086167812347412,1,-2.296107530593872,1
01/28/26 20:59:44.129070848,-0.1479107737541199,1,-0.1986580342054367,1,2.134792566299438,1,-0.7648077607154846,1,-1.480961084365845,1,-4.704647541046143,1
01/28/26 20:59:44.169092096,-0.1828441470861435,1,-0.2384339272975922,1,2.174593448638916,1,0.1388719528913498,1,0.6935989856719971,1,-1.45827317237854,1
01/28/26 20:59:44.209109504,-0.2241776585578918,1,-0.290043979883194,1,2.209179162979126,1,0.2690771520137787,1,0.8273213505744934,1,1.01104211807251,1
01/28/26 20:59:44.249101056,-0.25723996758461,1,-0.3031755089759827,1,2.224548101425171,1,-0.1643993854522705,1,0.3130132257938385,1,0.9666349291801453,1
01/28/26 20:59:44.289055488,-0.2826245725154877,1,-0.2474337220191956,1,2.212167501449585,1,0.2255040109157562,1,1.236921310424805,1,0.323976993560791,1
01/28/26 20:59:44.329094656,-0.3036878108978271,1,-0.1598625183105469,1,2.160232305526733,1,-0.2318672984838486,1,0.5328264236450195,1,-1.423363447189331,1
01/28/26 20:59:44.369117696,-0.3437549471855164,1,-0.08822724223136902,1,2.109295129776001,1,-0.3567049503326416,1,0.1146362274885178,1,-0.3969558477401733,1
01/28/26 20:59:44.409109248,-0.3927874565124512,1,-0.008633277378976345,1,2.052089214324951,1,-0.1466259211301804,1,-0.3000271022319794,1,2.083785533905029,1
01/28/26 20:59:44.449063168,-0.4166370630264282,1,0.08925756812095642,1,1.984630703926086,1,0.303998589515686,1,-0.08641420304775238,1,3.712000131607056,1
01/28/26 20:59:44.489126912,-0.3836849927902222,1,0.1599863171577454,1,1.925483703613281,1,-0.1792559176683426,1,0.2313559651374817,1,3.381619215011597,1
01/28/26 20:59:44.529158656,-0.2920916378498077,1,0.1635306775569916,1,1.904793381690979,1,-1.136979579925537,1,0.04515296593308449,1,0.916922390460968,1
01/28/26 20:59:44.569150464,-0.1938479840755463,1,0.1408884972333908,1,1.885393381118774,1,-0.8414459824562073,1,-0.8565476536750793,1,-1.675866603851318,1
01/28/26 20:59:44.609103872,-0.1196791604161263,1,0.1203471496701241,1,1.884976506233215,1,-0.9966273307800293,1,-0.5856027603149414,1,-4.463837623596191,1
01/28/26 20:59:44.649107200,-0.1076599732041359,1,0.1142727434635162,1,1.894285798072815,1,-0.3029947280883789,1,-0.7307760119438171,1,-1.81702709197998,1
01/28/26 20:59:44.689098240,-0.1182255148887634,1,0.1305989325046539,1,1.907597422599792,1,0.00279664620757103,1,-0.9292951226234436,1,2.260862112045288,1
01/28/26 20:59:44.729051648,-0.09487760812044144,1,0.1315270364284515,1,1.937196135520935,1,0.2281101047992706,1,-0.7858219742774963,1,3.192967891693115,1
01/28/26 20:59:44.769055232,-0.02932201139628887,1,0.09453170001506805,1,1.978660583496094,1,-0.2690271437168121,1,-0.2374533861875534,1,1.283705353736877,1
01/28/26 20:59:44.809046784,0.03056505136191845,1,0.05158215388655663,1,2.015758037567139,1,0.2243213951587677,1,0.07805114984512329,1,1.216332674026489,1
01/28/26 20:59:44.849000704,0.09328359365463257,1,0.04797953367233276,1,2.032723426818848,1,0.3244215548038483,1,-0.5240309834480286,1,1.39932906627655,1
01/28/26 20:59:44.889027072,0.1123155355453491,1,-0.001450270530767739,1,2.021363973617554,1,5.946172714233398,1,-6.99275016784668,1,-3.160475254058838,1
01/28/26 20:59:44.929033728,0.1035026907920837,1,0.003301699878647923,1,2.027747392654419,1,-0.6125608086585999,1,1.313976526260376,1,0.134914219379425,1
01/28/26 20:59:44.968987136,0.08313784003257751,1,0.003794090589508414,1,2.038894176483154,1,0.187295988202095,1,0.2708520889282227,1,0.8586194515228271,1
01/28/26 20:59:45.009035776,0.007201969623565674,1,0.005448419600725174,1,2.059293270111084,1,0.2844167649745941,1,-0.2495480328798294,1,-0.9585395455360413,1
01/28/26 20:59:45.049057280,-0.01003550179302692,1,0.008081831969320774,1,2.060767412185669,1,-0.6490516662597656,1,0.05696235597133636,1,-0.4215980172157288,1
01/28/26 20:59:45.089010688,-0.00597734609618783,1,0.007909641601145267,1,2.065628528594971,1,0.07710725069046021,1,-0.2078432738780975,1,-0.07877033203840256,1
01/28/26 20:59:45.129014272,-0.008252066560089588,1,0.008047877810895443,1,2.075637578964233,1,0.08332094550132751,1,0.1981089860200882,1,0.1473279297351837,1
01/28/26 20:59:45.169005824,-0.008559762500226498,1,0.008088164031505585,1,2.079869508743286,1,-0.2647781670093536,1,0.006549234502017498,1,-0.02393694408237934,1
01/28/26 20:59:45.208963584,-0.01107871346175671,1,0.008164722472429276,1,2.082515478134155,1,-0.07347752153873444,1,-0.0004585082642734051,1,0.0649334117770195,1
01/28/26 20:59:45.248971008,-0.01155907474458218,1,0.008175396360456944,1,2.082390308380127,1,-0.1151197925209999,1,-0.01518762484192848,1,0.01232442073523998,1
01/28/26 20:59:45.288962048,-0.01277647539973259,1,0.008210854604840279,1,2.083581686019897,1,-0.01656047627329826,1,-0.04002685099840164,1,0.05282849445939064,1
01/28/26 20:59:45.328932608,-0.01436152029782534,1,0.008233175612986088,1,2.084307670593262,1,-0.05055771395564079,1,0.08558497577905655,1,0.03760513290762901,1
01/28/26 20:59:45.368953856,-0.01771521382033825,1,0.008088436909019947,1,2.078583240509033,1,-0.2093453705310822,1,0.03952213004231453,1,-0.1965341120958328,1
01/28/26 20:59:45.408945152,-0.03116543963551521,1,0.007672540377825499,1,2.06816840171814,1,-0.4641753733158112,1,-0.03793638944625854,1,-0.01746394298970699,1
01/28/26 20:59:45.448937984,-0.0520145371556282,1,0.008056452497839928,1,2.061653137207031,1,-0.4104610085487366,1,-0.183557391166687,1,-0.07108341157436371,1
01/28/26 20:59:45.488957184,-0.06188296154141426,1,0.008303487673401833,1,2.060730457305908,1,-0.7838788032531738,1,0.133886307477951,1,-0.9251521229743958,1
01/28/26 20:59:45.528960000,-0.06275513768196106,1,0.008310900069773197,1,2.059963226318359,1,-0.2924861311912537,1,-0.01447667554020882,1,-0.2012408524751663,1
01/28/26 20:59:45.568950272,-0.06288748234510422,1,0.008290672674775124,1,2.059808969497681,1,-0.1074937283992767,1,-0.0181232113391161,1,0.01794695854187012,1
01/28/26 20:59:45.608954880,-0.06291989982128143,1,0.008265622891485691,1,2.059655904769897,1,-0.07356037944555283,1,-0.01388928107917309,1,0.03856270387768745,1
01/28/26 20:59:45.649021696,-0.06172829493880272,1,0.008232013322412968,1,2.059039115905762,1,0.3535627126693726,1,0.01574014127254486,1,0.4465786814689636,1
01/28/26 20:59:45.689036032,-0.04353485256433487,1,0.007764096837490797,1,2.059425592422485,1,0.504810094833374,1,-0.02148578502237797,1,0.4303275346755981,1
01/28/26 20:59:45.729026304,-0.009562993422150612,1,0.007849426008760929,1,2.060544967651367,1,-0.1241647973656654,1,0.0002242662012577057,1,-0.5164291262626648,1
01/28/26 20:59:45.769018880,-0.00422368012368679,1,0.007753016427159309,1,2.062230587005615,1,0.126966193318367,1,-0.03998740017414093,1,0.04840954765677452,1
01/28/26 20:59:45.809037056,-0.007084755226969719,1,0.007799494545906782,1,2.060263872146606,1,0.4571850895881653,1,0.09166999906301498,1,0.1101910248398781,1
01/28/26 20:59:45.849038848,-0.004719108808785677,1,0.007773974910378456,1,2.05712366104126,1,-0.2953078746795654,1,0.0294450968503952,1,-0.004474948160350323,1
01/28/26 20:59:45.889028352,-0.004779914394021034,1,0.007742690853774548,1,2.053869962692261,1,-0.1922105550765991,1,0.006484612356871367,1,-0.01776677742600441,1
01/28/26 20:59:45.929029376,-0.006644120439887047,1,0.007733316160738468,1,2.049649715423584,1,0.004434214904904366,1,-0.04567120969295502,1,-0.03316366672515869,1
01/28/26 20:59:45.969081600,-0.01023997738957405,1,0.007906699553132057,1,2.051580905914307,1,-0.5107538104057312,1,-0.2593778967857361,1,-0.08842499554157257,1
01/28/26 20:59:46.009092096,-0.01584555022418499,1,0.008055040612816811,1,2.057412385940552,1,0.0353611633181572,1,0.05534681677818298,1,0.01613869145512581,1
01/28/26 20:59:46.049082112,-0.01718552224338055,1,0.007970680482685566,1,2.060554265975952,1,-0.3206774294376373,1,0.06362977623939514,1,0.1510014832019806,1
01/28/26 20:59:46.089087488,-0.01481747347861528,1,0.008130862377583981,1,2.064103841781616,1,-0.3540845811367035,1,0.1735606640577316,1,-0.09496328979730606,1
01/28/26 20:59:46.129158656,-0.01682565361261368,1,0.008032004348933697,1,2.064019203186035,1,-0.02863245271146297,1,-0.01712931878864765,1,0.08230433613061905,1
01/28/26 20:59:46.169174016,-0.0175299383699894,1,0.008001796901226044,1,2.063876390457153,1,-0.1781096160411835,1,-0.004359014332294464,1,-0.06130436062812805,1
01/28/26 20:59:46.209163264,-0.02109813317656517,1,0.007836529985070229,1,2.063754796981812,1,0.04068288207054138,1,-0.01800154149532318,1,0.1497071981430054,1
01/28/26 20:59:46.249154304,-0.02150209248065948,1,0.007824175991117954,1,2.063617706298828,1,-0.09293564409017563,1,-0.01990018598735332,1,0.02985025942325592,1
01/28/26 20:59:46.289172992,-0.02215539291501045,1,0.007795673795044422,1,2.063471794128418,1,-0.07763800770044327,1,-0.01506144180893898,1,0.02987843193113804,1
01/28/26 20:59:46.329175040,-0.02283066138625145,1,0.00775850098580122,1,2.063335418701172,1,-0.05985955148935318,1,-0.009732576087117195,1,0.04865643754601479,1
01/28/26 20:59:46.369164288,-0.02301263809204102,1,0.007745858281850815,1,2.063201189041138,1,-0.08473002910614014,1,-0.01314215362071991,1,0.02839630655944347,1
01/28/26 20:59:46.409160960,-0.02340183407068253,1,0.007734933868050575,1,2.063063144683838,1,-0.07216903567314148,1,-0.0160159096121788,1,0.03383895754814148,1
01/28/26 20:59:46.449202688,-0.02363325096666813,1,0.007717995438724756,1,2.062927007675171,1,-0.07651619613170624,1,-0.02128621563315392,1,0.03668903931975365,1
01/28/26 20:59:46.489209600,-0.02375112473964691,1,0.00770864961668849,1,2.062788009643555,1,-0.07105148583650589,1,-0.008145266212522984,1,0.02777532860636711,1
01/28/26 20:59:46.529198592,-0.02383562363684177,1,0.007686614990234375,1,2.062638521194458,1,-0.06973478943109512,1,-0.01202515698969364,1,0.02063911035656929,1
01/28/26 20:59:46.569189376,-0.02387094311416149,1,0.0076674516312778,1,2.06248927116394,1,-0.090652234852314,1,-0.01932869292795658,1,0.02774243243038654,1
01/28/26 20:59:46.609206272,-0.02355118468403816,1,0.007677236571907997,1,2.062814950942993,1,0.06902090460062027,1,-0.2333243638277054,1,0.03363437205553055,1
01/28/26 20:59:46.649207040,-0.0193340852856636,1,0.008001955226063728,1,2.066193103790283,1,0.3394131660461426,1,-0.08578662574291229,1,0.07204306125640869,1
01/28/26 20:59:46.689195520,-0.01096540410071611,1,0.00808421429246664,1,2.0735182762146,1,-0.2413001209497452,1,0.01279208809137344,1,-0.1096841543912888,1
01/28/26 20:59:46.729190144,-0.006946300156414509,1,0.007939581759274006,1,2.075509786605835,1,-0.8071373701095581,1,0.1604496091604233,1,-0.02138574793934822,1
01/28/26 20:59:46.769222400,-0.006897666025906801,1,0.007932809181511402,1,2.074954032897949,1,-0.08014979213476181,1,-0.01910221017897129,1,0.02672755159437656,1
01/28/26 20:59:46.809227264,-0.006732042878866196,1,0.007939094677567482,1,2.074769496917725,1,-0.09145274758338928,1,-0.02198779582977295,1,0.01071876939386129,1
01/28/26 20:59:46.849214720,-0.006394023541361094,1,0.007927239872515202,1,2.074306488037109,1,0.02214072085916996,1,-0.0184351708739996,1,0.02248381264507771,1
01/28/26 20:59:46.889166080,-0.004926498048007488,1,0.007850147783756256,1,2.072389841079712,1,-0.01038338337093592,1,-0.00177802937105298,1,0.04276729747653008,1
01/28/26 20:59:46.929153024,-0.004405404441058636,1,0.007809803821146488,1,2.07109808921814,1,-0.08207810670137405,1,-0.01435127481818199,1,0.03119788691401482,1
01/28/26 20:59:46.969159936,-0.00436318526044488,1,0.007803400978446007,1,2.070977926254272,1,-0.06765850633382797,1,-0.01841322332620621,1,0.03473859280347824,1
01/28/26 20:59:47.009153024,-0.004344934597611427,1,0.007801936939358711,1,2.07083797454834,1,-0.06712682545185089,1,-0.0148687781766057,1,0.04080780223011971,1
01/28/26 20:59:47.049106688,-0.004329056944698095,1,0.007805102039128542,1,2.0706946849823,1,-0.06951005756855011,1,-0.01886381767690182,1,0.04294740036129951,1
01/28/26 20:59:47.089105920,-0.004337700549513102,1,0.007798734121024609,1,2.070553064346313,1,-0.07386063039302826,1,-0.01673801429569721,1,0.03688934445381165,1
01/28/26 20:59:47.129116416,-0.004335969686508179,1,0.007790438365191221,1,2.070414781570435,1,-0.07434021681547165,1,-0.01945045404136181,1,0.03343436866998672,1
01/28/26 20:59:47.169109504,-0.004350711591541767,1,0.007794030476361513,1,2.070277690887451,1,-0.07034628093242645,1,-0.01887468621134758,1,0.04185935482382774,1
01/28/26 20:59:47.209069056,-0.004443218931555748,1,0.007794479839503765,1,2.070137023925781,1,-0.05991283059120178,1,-0.01359571516513824,1,0.04520952329039574,1
01/28/26 20:59:47.249051648,-0.00487487530335784,1,0.007819503545761108,1,2.070007562637329,1,-0.08886834233999252,1,-0.01601625792682171,1,0.02782038040459156,1
01/28/26 20:59:47.289054976,-0.006050493102520704,1,0.007866431958973408,1,2.069874048233032,1,-0.05258160829544067,1,-0.01129160355776548,1,0.04477867111563683,1
01/28/26 20:59:47.329090560,-0.007570435758680105,1,0.007900954224169254,1,2.069741249084473,1,-0.06940613687038422,1,-0.01415345724672079,1,0.03994008153676987,1
01/28/26 20:59:47.369197056,-0.01071256119757891,1,0.007980195805430412,1,2.069599151611328,1,-0.07679077982902527,1,-0.02082796394824982,1,0.02636531740427017,1
01/28/26 20:59:47.409407744,-0.01305984146893024,1,0.008036557585000992,1,2.069463729858398,1,-0.03294191136956215,1,-0.01314209215342999,1,0.06636512279510498,1
01/28/26 20:59:47.449459712,-0.01340113952755928,1,0.008042169734835625,1,2.06932544708252,1,-0.08112071454524994,1,-0.01485273521393538,1,0.02039672434329987,1
01/28/26 20:59:47.489449728,-0.01405493076890707,1,0.00805272813886404,1,2.069188356399536,1,-0.04941501095890999,1,-0.01332387235015631,1,0.04982707649469376,1
01/28/26 20:59:47.529413120,-0.01413044705986977,1,0.00804354902356863,1,2.0690598487854,1,-0.06491329520940781,1,-0.01459954958409071,1,0.03935340419411659,1
01/28/26 20:59:47.569399296,-0.01419450528919697,1,0.008047919720411301,1,2.068935871124268,1,-0.06926333904266357,1,-0.0145167289301753,1,0.03457148000597954,1
01/28/26 20:59:47.609401088,-0.01423577032983303,1,0.008031831122934818,1,2.068807125091553,1,-0.06973553448915482,1,-0.02287469990551472,1,0.03820750117301941,1
01/28/26 20:59:47.649392640,-0.01423078775405884,1,0.008019882254302502,1,2.068691730499268,1,-0.06943488866090775,1,-0.0141610149294138,1,0.04082027077674866,1
01/28/26 20:59:47.689344256,-0.01421422883868217,1,0.008014839142560959,1,2.068569898605347,1,-0.06371874362230301,1,-0.0169399119913578,1,0.03228718787431717,1
01/28/26 20:59:47.729382912,-0.01422113925218582,1,0.00801054947078228,1,2.068449258804321,1,-0.06906426697969437,1,-0.01464876346290112,1,0.03822661191225052,1
01/28/26 20:59:47.769405696,-0.01420526579022408,1,0.008002527989447117,1,2.068315029144287,1,-0.0659206360578537,1,-0.01955795660614967,1,0.03458414599299431,1
01/28/26 20:59:47.809396736,-0.01419700589030981,1,0.008007987402379513,1,2.068198204040527,1,-0.07020232826471329,1,-0.01335794944316149,1,0.03417840600013733,1
01/28/26 20:59:47.849348352,-0.01420127879828215,1,0.008002776652574539,1,2.068084716796875,1,-0.06847740709781647,1,-0.01027185656130314,1,0.03128134831786156,1
01/28/26 20:59:47.889324032,-0.01419223845005035,1,0.007999979890882969,1,2.067959308624268,1,-0.0646943673491478,1,-0.02148493751883507,1,0.04083880037069321,1
01/28/26 20:59:47.929325312,-0.01417562179267406,1,0.007998843677341938,1,2.067822217941284,1,-0.06562431156635284,1,-0.01728701218962669,1,0.04024052619934082,1
01/28/26 20:59:47.969316352,-0.01417466998100281,1,0.007994825020432472,1,2.067712545394897,1,-0.06650947779417038,1,-0.01589194871485233,1,0.03900814056396484,1
01/28/26 20:59:48.009269248,-0.0141703262925148,1,0.007986899465322495,1,2.067612409591675,1,-0.06874485313892365,1,-0.01063690800219774,1,0.03494594246149063,1
01/28/26 20:59:48.049245184,-0.01416518352925777,1,0.007983367890119553,1,2.067498445510864,1,-0.06332524120807648,1,-0.007862784899771214,1,0.03677390143275261,1
01/28/26 20:59:48.089253120,-0.01416364219039679,1,0.007970253005623817,1,2.067379951477051,1,-0.0659385621547699,1,-0.01422835141420364,1,0.03906499221920967,1
01/28/26 20:59:48.129247744,-0.01417123898863792,1,0.007971400395035744,1,2.067280769348145,1,-0.06743841618299484,1,-0.009682116098701954,1,0.03418464586138725,1
01/28/26 20:59:48.169200384,-0.01416694279760122,1,0.007979654707014561,1,2.067176580429077,1,-0.06695686280727386,1,-0.01383113022893667,1,0.03412334993481636,1
01/28/26 20:59:48.209203712,-0.01416671182960272,1,0.007982936687767506,1,2.06707763671875,1,-0.06844060868024826,1,-0.01549234893172979,1,0.03524740040302277,1
01/28/26 20:59:48.249207552,-0.01416283193975687,1,0.008017082698643208,1,2.066974639892578,1,-0.06769514828920364,1,-0.01141843385994434,1,-0.004659442696720362,1
01/28/26 20:59:48.289179904,-0.01416635327041149,1,0.008022626861929893,1,2.066869735717773,1,-0.06451568007469177,1,-0.02198624610900879,1,0.03701754286885262,1
01/28/26 20:59:48.329182976,-0.01416877005249262,1,0.008039460517466068,1,2.06676983833313,1,-0.06883498281240463,1,-0.005733886267989874,1,0.03564907610416412,1
01/28/26 20:59:48.369174016,-0.01415836904197931,1,0.008041792549192905,1,2.066660165786743,1,-0.07137870043516159,1,-0.02668430097401142,1,0.02980062924325466,1
01/28/26 20:59:48.409127168,-0.01416477747261524,1,0.008046130649745464,1,2.06657075881958,1,-0.06315664201974869,1,-0.005706580821424723,1,0.04572293162345886,1
01/28/26 20:59:48.449131008,-0.01414658688008785,1,0.008041591383516788,1,2.066481590270996,1,-0.06717471778392792,1,-0.02627313882112503,1,0.03857322037220001,1
01/28/26 20:59:48.489122304,-0.01412252150475979,1,0.008041733875870705,1,2.066383600234985,1,-0.06858529895544052,1,-0.00693932082504034,1,0.03264573216438293,1
01/28/26 20:59:48.529074944,-0.01411508582532406,1,0.008031916804611683,1,2.066291093826294,1,-0.0661892294883728,1,-0.01928383857011795,1,0.03752594813704491,1
01/28/26 20:59:48.569080064,-0.01409127563238144,1,0.008040165528655052,1,2.066195011138916,1,-0.06161878630518913,1,-0.01408723928034306,1,0.03504049032926559,1
01/28/26 20:59:48.609094912,-0.01408953499048948,1,0.008045369759202003,1,2.06609845161438,1,-0.06768766790628433,1,-0.02184392511844635,1,0.03046483173966408,1
01/28/26 20:59:48.649120512,-0.01410554721951485,1,0.008036850951611996,1,2.066009521484375,1,-0.06666011363267899,1,-0.01809530332684517,1,0.04439513757824898,1
01/28/26 20:59:48.689139712,-0.01411004457622766,1,0.00803720485419035,1,2.065904855728149,1,-0.06559926271438599,1,-0.01720741391181946,1,0.03318103402853012,1
01/28/26 20:59:48.729142528,-0.0141146844252944,1,0.00802666787058115,1,2.065810918807983,1,-0.06414003670215607,1,-0.01018516346812248,1,0.03227074071764946,1
01/28/26 20:59:48.769133568,-0.01412582583725452,1,0.008030825294554234,1,2.065730571746826,1,-0.06368181854486465,1,-0.01109726261347532,1,0.03689491003751755,1
01/28/26 20:59:48.809086208,-0.0141241829842329,1,0.008019272238016129,1,2.065637588500977,1,-0.06198860704898834,1,-0.01313537079840899,1,0.0341963954269886,1
01/28/26 20:59:48.849088000,-0.0141082052141428,1,0.008023782633244991,1,2.065555095672607,1,-0.06711982935667038,1,-0.01790581457316875,1,0.03710316121578217,1
01/28/26 20:59:48.889077760,-0.01408707164227962,1,0.0080066854134202,1,2.065484762191772,1,-0.06221134588122368,1,-0.01489811576902866,1,0.03461799398064613,1
01/28/26 20:59:48.929073152,-0.01406803354620934,1,0.008007070980966091,1,2.06538987159729,1,-0.06671370565891266,1,-0.01298212446272373,1,0.03927350789308548,1
01/28/26 20:59:48.969102848,-0.0140627296641469,1,0.008008016273379326,1,2.06529712677002,1,-0.06294241547584534,1,-0.01769660040736198,1,0.03544783592224121,1
01/28/26 20:59:49.009107456,-0.01404529716819525,1,0.007987468503415585,1,2.065215826034546,1,-0.06667284667491913,1,-0.01954066939651966,1,0.04313778877258301,1
01/28/26 20:59:49.049097472,-0.0140259861946106,1,0.007988884113729,1,2.065133810043335,1,-0.06652632355690002,1,-0.01619278453290462,1,0.03872908279299736,1
01/28/26 20:59:49.089091072,-0.01400972716510296,1,0.007980877533555031,1,2.065052032470703,1,-0.06667592376470566,1,-0.01534340996295214,1,0.0388549417257309,1
01/28/26 20:59:49.129114112,-0.01401598751544952,1,0.007974201813340187,1,2.064973115921021,1,-0.06830938160419464,1,-0.01294184662401676,1,0.03766664117574692,1
01/28/26 20:59:49.169117184,-0.0140205817297101,1,0.007962960749864578,1,2.064893960952759,1,-0.06596032530069351,1,-0.01072798855602741,1,0.03631860017776489,1
01/28/26 20:59:49.209107200,-0.01399958319962025,1,0.007964245975017548,1,2.064822196960449,1,-0.06115526705980301,1,-0.01501835789531469,1,0.03679987415671349,1
01/28/26 20:59:49.249100544,-0.01398649998009205,1,0.007966464385390282,1,2.064750671386719,1,-0.06477533280849457,1,-0.01633787713944912,1,0.03733485192060471,1
01/28/26 20:59:49.289121792,-0.01398251112550497,1,0.007959305308759212,1,2.064665079116821,1,-0.06959318369626999,1,-0.01749201491475105,1,0.03625286370515823,1
01/28/26 20:59:49.329124352,-0.01396295614540577,1,0.007954996079206467,1,2.064581394195557,1,-0.05766788125038147,1,-0.01601016521453857,1,0.03341834619641304,1
01/28/26 20:59:49.369113856,-0.0139402411878109,1,0.007944383658468723,1,2.064505338668823,1,-0.06488986313343048,1,-0.01242147292941809,1,0.03425570577383041,1
01/28/26 20:59:49.409106176,-0.01393003575503826,1,0.007940102368593216,1,2.064435243606567,1,-0.06354299187660217,1,-0.007481180131435394,1,0.03503000736236572,1
01/28/26 20:59:49.449123328,-0.01391740422695875,1,0.00792967714369297,1,2.064359426498413,1,-0.06582409143447876,1,-0.01666208356618881,1,0.03246241062879562,1
01/28/26 20:59:49.489124352,-0.01390439551323652,1,0.007939104922115803,1,2.064294576644897,1,-0.05871975049376488,1,-0.009858757257461548,1,0.03348046913743019,1
01/28/26 20:59:49.529113856,-0.01389348227530718,1,0.007927875034511089,1,2.064231634140015,1,-0.06196975708007813,1,-0.01447658985853195,1,0.03379341959953308,1
01/28/26 20:59:49.569105664,-0.01388954930007458,1,0.007922378368675709,1,2.064175605773926,1,-0.06045647338032722,1,-0.01146050356328487,1,0.03206410631537437,1
01/28/26 20:59:49.609122816,-0.01387015637010336,1,0.007904402911663055,1,2.064116716384888,1,-0.06347397714853287,1,-0.01733432523906231,1,0.03220127895474434,1
01/28/26 20:59:49.649123840,-0.01385552808642387,1,0.00789282750338316,1,2.064046859741211,1,-0.05895505845546722,1,-0.01168966665863991,1,0.04110690951347351,1
01/28/26 20:59:49.689113344,-0.01384922675788403,1,0.007882952690124512,1,2.063989400863647,1,-0.05851477384567261,1,-0.01884391717612743,1,0.03431633114814758,1
01/28/26 20:59:49.729111808,-0.01384898461401463,1,0.007870119996368885,1,2.063929796218872,1,-0.05663061141967773,1,-0.01656348630785942,1,0.03392969444394112,1
01/28/26 20:59:49.769155840,-0.01383337844163179,1,0.007870889268815517,1,2.063867807388306,1,-0.06056428700685501,1,-0.0202957633882761,1,0.03952738642692566,1
01/28/26 20:59:49.809164288,-0.01382352504879236,1,0.007864418439567089,1,2.063814640045166,1,-0.06022407487034798,1,-0.01101540494710207,1,0.03702583536505699,1
01/28/26 20:59:49.849153536,-0.01381239481270313,1,0.007842052727937698,1,2.063753366470337,1,-0.06423760950565338,1,-0.01734315603971481,1,0.03937879577279091,1
01/28/26 20:59:49.889145088,-0.01380349043756723,1,0.007851750589907169,1,2.06370210647583,1,-0.05619591474533081,1,-0.01074683293700218,1,0.03759419545531273,1
01/28/26 20:59:49.929162496,-0.01380274351686239,1,0.007840645499527454,1,2.063645124435425,1,-0.0600021705031395,1,-0.01370831113308668,1,0.03299828991293907,1
01/28/26 20:59:49.969163520,-0.01379327848553658,1,0.007821506820619106,1,2.063593149185181,1,-0.05534010753035545,1,-0.00992922205477953,1,0.03607925400137901,1
01/28/26 20:59:50.009152768,-0.01376810949295759,1,0.007814245298504829,1,2.063537359237671,1,-0.06428714096546173,1,-0.008042208850383759,1,0.04068001732230186,1
01/28/26 20:59:50.049154304,-0.0137533862143755,1,0.007812259718775749,1,2.063486814498901,1,-0.06338000297546387,1,-0.01012310106307268,1,0.03519302979111671,1
01/28/26 20:59:50.089211136,-0.01373564451932907,1,0.007804474793374538,1,2.063437700271606,1,-0.06568922847509384,1,-0.005403150338679552,1,0.03505048900842667,1
01/28/26 20:59:50.129222400,-0.01372644491493702,1,0.007801323663443327,1,2.063378572463989,1,-0.05862556770443916,1,-0.009616554714739323,1,0.04035725444555283,1
01/28/26 20:59:50.169211392,-0.01372498646378517,1,0.007795495446771383,1,2.063325881958008,1,-0.06159615516662598,1,-0.006756633520126343,1,0.04103157296776772,1
01/28/26 20:59:50.209206016,-0.01370077021420002,1,0.007795477285981178,1,2.063278675079346,1,-0.06796261668205261,1,-0.03424733877182007,1,0.03661002963781357,1
01/28/26 20:59:50.249240320,-0.0136854387819767,1,0.007788652554154396,1,2.063234567642212,1,-0.06884902715682983,1,0.0154392858967185,1,0.02443048544228077,1
01/28/26 20:59:50.289245952,-0.01367430668324232,1,0.007789113558828831,1,2.06319260597229,1,-0.06631360948085785,1,-0.02343442849814892,1,0.04115135967731476,1
01/28/26 20:59:50.329234688,-0.01365221384912729,1,0.007781342137604952,1,2.063135147094727,1,-0.06390846520662308,1,-0.001144227106124163,1,0.03100712597370148,1
01/28/26 20:59:50.369185536,-0.01364559773355722,1,0.007774760015308857,1,2.063077211380005,1,-0.06184328719973564,1,-0.0202698539942503,1,0.03945672512054443,1
01/28/26 20:59:50.409186560,-0.01362885162234306,1,0.007776121143251657,1,2.063040733337402,1,-0.05958380922675133,1,-0.01199453696608543,1,0.03938068449497223,1
01/28/26 20:59:50.449194752,-0.01363022997975349,1,0.007772385142743587,1,2.062989950180054,1,-0.05519464239478111,1,-0.003914267756044865,1,0.04354119673371315,1
01/28/26 20:59:50.489183744,-0.01361908204853535,1,0.00777842802926898,1,2.062935590744019,1,-0.05562851950526237,1,-0.007300387136638165,1,0.03642786666750908,1
01/28/26 20:59:50.529135104,-0.01360081136226654,1,0.007776431739330292,1,2.062900066375732,1,-0.05671359971165657,1,-0.01934820786118507,1,0.0358961746096611,1
01/28/26 20:59:50.569167104,-0.01358869206160307,1,0.007783595006912947,1,2.062849044799805,1,-0.05677647143602371,1,-0.008455809205770493,1,0.03480499982833862,1
01/28/26 20:59:50.609189120,-0.01356636360287666,1,0.007795616984367371,1,2.062815427780151,1,-0.05646976083517075,1,-0.01715816184878349,1,0.03481115400791168,1
01/28/26 20:59:50.649182208,-0.01357484329491854,1,0.007782770786434412,1,2.062777996063232,1,-0.06165141984820366,1,-0.008161064237356186,1,0.03704223781824112,1
01/28/26 20:59:50.689136640,-0.01356791704893112,1,0.007761233486235142,1,2.062728643417358,1,-0.06418526917695999,1,-0.01175318565219641,1,0.03940661996603012,1
01/28/26 20:59:50.729113344,-0.01355459447950125,1,0.007758300751447678,1,2.062682867050171,1,-0.05526229366660118,1,-0.008061029948294163,1,0.04272355511784554,1
01/28/26 20:59:50.769134592,-0.0135536203160882,1,0.0077600940130651,1,2.062640905380249,1,-0.05386698246002197,1,-0.01130780577659607,1,0.04732687026262283,1
01/28/26 20:59:50.809138944,-0.01353936176747084,1,0.007755450904369354,1,2.06259560585022,1,-0.05999072268605232,1,0.0007909126579761505,1,0.04077292233705521,1
01/28/26 20:59:50.849093888,-0.01353650726377964,1,0.007750845514237881,1,2.062557220458984,1,-0.05733197182416916,1,-0.02597718685865402,1,0.04160973429679871,1
01/28/26 20:59:50.889071616,-0.01352573838084936,1,0.007747403811663389,1,2.062513113021851,1,-0.05579286813735962,1,-0.004844969138503075,1,0.04087569192051888,1
01/28/26 20:59:50.929101312,-0.01351659372448921,1,0.00773863960057497,1,2.062477350234985,1,-0.05583495274186134,1,-0.01815829239785671,1,0.04441124945878983,1
01/28/26 20:59:50.969110784,-0.01351130660623312,1,0.007735821418464184,1,2.062443017959595,1,-0.05537049099802971,1,-0.0005652766558341682,1,0.04139520600438118,1
01/28/26 20:59:51.009065216,-0.01349355094134808,1,0.007738183252513409,1,2.06239652633667,1,-0.05778254568576813,1,-0.02060200273990631,1,0.03857475146651268,1
01/28/26 20:59:51.049042176,-0.01348921563476324,1,0.007730583194643259,1,2.06235933303833,1,-0.05884624645113945,1,-0.003203746862709522,1,0.02899571508169174,1
01/28/26 20:59:51.089092352,-0.01348614227026701,1,0.007739347871392965,1,2.062320709228516,1,-0.05407919734716415,1,-0.01329824514687061,1,0.04095039516687393,1
01/28/26 20:59:51.129115392,-0.01348595879971981,1,0.007737689185887575,1,2.062274932861328,1,-0.05739536508917809,1,-0.01400235015898943,1,0.03459591791033745,1
01/28/26 20:59:51.169069824,-0.01346984691917896,1,0.007740244269371033,1,2.062241315841675,1,-0.05772525817155838,1,-0.01382936164736748,1,0.0375547781586647,1
01/28/26 20:59:51.209046784,-0.01345478557050228,1,0.007749133743345737,1,2.062199592590332,1,-0.05206677317619324,1,-0.003943384159356356,1,0.04123810678720474,1
01/28/26 20:59:51.249050624,-0.01343468483537436,1,0.007753909565508366,1,2.062162399291992,1,-0.05680258572101593,1,-0.005007165484130383,1,0.0318048968911171,1
01/28/26 20:59:51.289042176,-0.01342794392257929,1,0.007759058382362127,1,2.062123537063599,1,-0.05325013771653175,1,-0.0127697829157114,1,0.0343138724565506,1
01/28/26 20:59:51.328996608,-0.013413998298347,1,0.007755692582577467,1,2.062081098556519,1,-0.06007299944758415,1,-0.009776527062058449,1,0.03102179057896137,1
01/28/26 20:59:51.368973568,-0.0134039493277669,1,0.007753421552479267,1,2.062024354934692,1,-0.05900994688272476,1,-0.01342346146702766,1,0.03249369561672211,1
01/28/26 20:59:51.408989440,-0.01340670883655548,1,0.007754638325423002,1,2.061999320983887,1,-0.05473317578434944,1,-0.01204453036189079,1,0.0388672947883606,1
01/28/26 20:59:51.448994560,-0.01340441033244133,1,0.007753579411655664,1,2.061962127685547,1,-0.05692120641469955,1,-0.008976856246590614,1,0.02868722938001156,1
01/28/26 20:59:51.488955136,-0.013402602635324,1,0.007748243398964405,1,2.061932563781738,1,-0.06181284412741661,1,-0.01528111007064581,1,0.03469386696815491,1
01/28/26 20:59:51.528932096,-0.01338918134570122,1,0.007765790913254023,1,2.061898469924927,1,-0.05462537705898285,1,-0.002922911895439029,1,0.03433896973729134,1
01/28/26 20:59:51.568944128,-0.01338363252580166,1,0.007767502218484879,1,2.061872720718384,1,-0.05256765708327293,1,-0.01813845336437225,1,0.03533608466386795,1
01/28/26 20:59:51.608952832,-0.0133663984015584,1,0.007772216573357582,1,2.061844825744629,1,-0.05378332361578941,1,-0.008245590142905712,1,0.03346740826964378,1
01/28/26 20:59:51.648921600,-0.01336592249572277,1,0.007777439896017313,1,2.061801195144653,1,-0.05634410679340363,1,-0.01306638307869434,1,0.03580043092370033,1
01/28/26 20:59:51.688902912,-0.01335876528173685,1,0.007784875575453043,1,2.061779975891113,1,-0.05835344269871712,1,-0.00979917123913765,1,0.03866533190011978,1
01/28/26 20:59:51.728908288,-0.01336765289306641,1,0.007783295121043921,1,2.061747074127197,1,-0.05292369425296783,1,-0.01124042086303234,1,0.03865538910031319,1
01/28/26 20:59:51.768925440,-0.01336147077381611,1,0.00779003044590354,1,2.061712741851807,1,-0.05406177043914795,1,-0.01782205514609814,1,0.0354529470205307,1
01/28/26 20:59:51.809004544,-0.0133392745628953,1,0.007810191716998816,1,2.061688423156738,1,-0.05950890481472015,1,-0.01078730262815952,1,0.03661821410059929,1
01/28/26 20:59:51.849215232,-0.01333835814148188,1,0.007807504385709763,1,2.061651945114136,1,-0.05338991060853004,1,-0.01489387173205614,1,0.02991209924221039,1
01/28/26 20:59:51.889265920,-0.01333225704729557,1,0.007798601873219013,1,2.061622142791748,1,-0.05817494913935661,1,-0.01264794543385506,1,0.03025524318218231,1
01/28/26 20:59:51.929264128,-0.01331974100321531,1,0.007797970902174711,1,2.061596632003784,1,-0.05571691691875458,1,-0.009493161924183369,1,0.03724871575832367,1
01/28/26 20:59:51.969228032,-0.0133104408159852,1,0.007803194224834442,1,2.061566829681396,1,-0.05603818222880363,1,-0.007997444830834866,1,0.03263042867183685,1
01/28/26 20:59:52.009230592,-0.01331468485295773,1,0.007798588369041681,1,2.061536312103271,1,-0.05312937870621681,1,-0.01065696217119694,1,0.02644415572285652,1
01/28/26 20:59:52.049221632,-0.01328714098781347,1,0.007800670340657234,1,2.061508417129517,1,-0.05199206247925758,1,-0.01082802936434746,1,0.03764393180608749,1
01/28/26 20:59:52.089174272,-0.013279196806252,1,0.007795407902449369,1,2.061481952667236,1,-0.06222024187445641,1,-0.01569846644997597,1,0.03446663916110992,1
01/28/26 20:59:52.129177088,-0.01328027062118053,1,0.007797359954565763,1,2.061447381973267,1,-0.05169956758618355,1,-0.0128039512783289,1,0.03007186204195023,1
01/28/26 20:59:52.169167104,-0.01327154878526926,1,0.007808785419911146,1,2.061410665512085,1,-0.05878285691142082,1,-0.009826932102441788,1,0.03580243512988091,1
01/28/26 20:59:52.209120000,-0.0132532911375165,1,0.007818473502993584,1,2.061378479003906,1,-0.04678516834974289,1,-0.01648751646280289,1,0.03600393235683441,1
01/28/26 20:59:52.249124864,-0.01323420088738203,1,0.007807806599885225,1,2.061360836029053,1,-0.05497497320175171,1,-0.01213673688471317,1,0.03297307342290878,1
01/28/26 20:59:52.289127936,-0.01322795450687408,1,0.007804035674780607,1,2.061332702636719,1,-0.05456986278295517,1,-0.01044280733913183,1,0.03809363394975662,1
01/28/26 20:59:52.329096960,-0.013214903883636,1,0.007814676500856876,1,2.061290979385376,1,-0.05474058538675308,1,-0.01725346408784389,1,0.03297502174973488,1
01/28/26 20:59:52.369099008,-0.01320125162601471,1,0.007804004941135645,1,2.061259984970093,1,-0.05070488899946213,1,-0.009397415444254875,1,0.03224264457821846,1
01/28/26 20:59:52.409090048,-0.01320120599120855,1,0.007788566872477531,1,2.061226606369019,1,-0.0494048111140728,1,-0.00955806951969862,1,0.04035485535860062,1
01/28/26 20:59:52.449042944,-0.01319456286728382,1,0.007775008678436279,1,2.06119966506958,1,-0.04762846231460571,1,-0.015209567733109,1,0.0382426381111145,1
01/28/26 20:59:52.489045760,-0.01317612547427416,1,0.007761904504150152,1,2.061175584793091,1,-0.05707705020904541,1,-0.008531372994184494,1,0.03199584037065506,1
01/28/26 20:59:52.529036544,-0.01315920799970627,1,0.007765958551317453,1,2.061144351959229,1,-0.05798197537660599,1,-0.01068854052573442,1,0.04334283247590065,1
01/28/26 20:59:52.569032192,-0.01315374113619328,1,0.007760682608932257,1,2.061119794845581,1,-0.04730364307761192,1,-0.01526313088834286,1,0.03587724268436432,1
01/28/26 20:59:52.609063680,-0.01315190643072128,1,0.007749918848276138,1,2.061092615127563,1,-0.05781872197985649,1,-0.01394947618246078,1,0.0323052890598774,1
01/28/26 20:59:52.649073920,-0.01315348409116268,1,0.007747316267341375,1,2.061059713363647,1,-0.05637243017554283,1,-0.006580992601811886,1,0.03734894096851349,1
01/28/26 20:59:52.689067520,-0.01314322277903557,1,0.007744221016764641,1,2.061029195785522,1,-0.05544349551200867,1,-0.01282260380685329,1,0.02942036278545856,1
01/28/26 20:59:52.729060096,-0.01314347051084042,1,0.007734759710729122,1,2.061007499694824,1,-0.05533549189567566,1,-0.01023078896105289,1,0.02778509445488453,1
01/28/26 20:59:52.769078784,-0.01313973404467106,1,0.007719472516328096,1,2.06097674369812,1,-0.04886455833911896,1,-0.01127404905855656,1,0.03150970116257668,1
01/28/26 20:59:52.809095936,-0.01313920319080353,1,0.007721896283328533,1,2.060956716537476,1,-0.05517561361193657,1,-0.01203094236552715,1,0.04084886983036995,1
01/28/26 20:59:52.849109248,-0.01313746813684702,1,0.007723935879766941,1,2.060928821563721,1,-0.05692506954073906,1,-0.01483818609267473,1,0.0340377613902092,1
01/28/26 20:59:52.889121024,-0.0131421247497201,1,0.007720040623098612,1,2.060889482498169,1,-0.05618179962038994,1,-0.01397563889622688,1,0.04006220400333405,1
01/28/26 20:59:52.929139200,-0.01313383039087057,1,0.007705649361014366,1,2.060852289199829,1,-0.05077438801527023,1,-0.01174149475991726,1,0.0342068076133728,1
01/28/26 20:59:52.969140736,-0.01312544103711843,1,0.007713733240962029,1,2.060823917388916,1,-0.05179227143526077,1,-0.01049439050257206,1,0.03437007591128349,1
01/28/26 20:59:53.009165824,-0.01313223596662283,1,0.007712041493505239,1,2.060800313949585,1,-0.05117249116301537,1,-0.01466209441423416,1,0.03740271925926208,1
01/28/26 20:59:53.049211136,-0.01312034856528044,1,0.007705243770033121,1,2.06077241897583,1,-0.05308685824275017,1,-0.01395514514297247,1,0.03729942813515663,1
01/28/26 20:59:53.089228288,-0.01309598702937365,1,0.007708691526204348,1,2.060755252838135,1,-0.05522973462939262,1,-0.01510694622993469,1,0.03581783920526505,1
01/28/26 20:59:53.129229056,-0.01309099514037371,1,0.007700226735323668,1,2.060733318328857,1,-0.05566291511058807,1,-0.009946062229573727,1,0.0389038473367691,1
01/28/26 20:59:53.169218816,-0.01308441534638405,1,0.007701674476265907,1,2.060716390609741,1,-0.04894822835922241,1,-0.01081730239093304,1,0.03489025682210922,1
01/28/26 20:59:53.209211136,-0.01308054570108652,1,0.007702396716922522,1,2.060699939727783,1,-0.04937341064214706,1,-0.007820330560207367,1,0.03204909712076187,1
01/28/26 20:59:53.249228544,-0.01307666953653097,1,0.007688079029321671,1,2.060681104660034,1,-0.04857839643955231,1,-0.01362845301628113,1,0.03613412752747536,1
01/28/26 20:59:53.289229568,-0.01306367758661509,1,0.007690636906772852,1,2.060661315917969,1,-0.04613026976585388,1,-0.01153143215924501,1,0.03819256275892258,1
01/28/26 20:59:53.329218560,-0.01304531283676624,1,0.007699537090957165,1,2.060639619827271,1,-0.0537170022726059,1,-0.0101565383374691,1,0.03202064335346222,1
01/28/26 20:59:53.369218560,-0.01302947010844946,1,0.00770762050524354,1,2.060615301132202,1,-0.05010100081562996,1,-0.01895677857100964,1,0.04118450358510017,1
01/28/26 20:59:53.409268992,-0.01301405020058155,1,0.00771104171872139,1,2.060592651367188,1,-0.05415178090333939,1,-0.01381424348801374,1,0.03717609867453575,1
01/28/26 20:59:53.449297408,-0.01300765387713909,1,0.00771009549498558,1,2.06057071685791,1,-0.0555233359336853,1,-0.008985156193375587,1,0.03187750652432442,1
01/28/26 20:59:53.489302016,-0.01297643315047026,1,0.007725810632109642,1,2.060542821884155,1,-0.04946499317884445,1,-0.008580463938415051,1,0.03528553992509842,1
01/28/26 20:59:53.529297152,-0.01296348683536053,1,0.00772089883685112,1,2.060510635375977,1,-0.04995837807655334,1,-0.01832333952188492,1,0.03524333983659744,1
01/28/26 20:59:53.569313792,-0.0129583403468132,1,0.007717803120613098,1,2.06049108505249,1,-0.04572445526719093,1,-0.0127941807731986,1,0.02797946706414223,1
01/28/26 20:59:53.609339904,-0.01294882409274578,1,0.007712121587246656,1,2.060462474822998,1,-0.05411436036229134,1,-0.009256939403712749,1,0.03915692493319511,1
01/28/26 20:59:53.649362688,-0.01294780801981688,1,0.007704363204538822,1,2.060439825057983,1,-0.04683016613125801,1,-0.01359304785728455,1,0.04768980294466019,1
01/28/26 20:59:53.689380608,-0.01293814554810524,1,0.007695515174418688,1,2.060415267944336,1,-0.04967697709798813,1,-0.01245405152440071,1,0.0350678488612175,1
01/28/26 20:59:53.729397504,-0.01293274015188217,1,0.007703041657805443,1,2.060394048690796,1,-0.05041998252272606,1,-0.01252384670078754,1,0.03839010745286942,1
01/28/26 20:59:53.769396992,-0.01293359324336052,1,0.007709383498877287,1,2.060376167297363,1,-0.0503915399312973,1,-0.009439310990273952,1,0.02931356057524681,1
01/28/26 20:59:53.809384192,-0.01292090490460396,1,0.007704284973442554,1,2.060354471206665,1,-0.0475793369114399,1,-0.01093451399356127,1,0.03290760144591331,1
01/28/26 20:59:53.849346816,-0.01291106734424829,1,0.007689429447054863,1,2.060336589813232,1,-0.05092800036072731,1,-0.009835805743932724,1,0.03439255058765411,1
01/28/26 20:59:53.889335552,-0.01290625147521496,1,0.007685563527047634,1,2.060314655303955,1,-0.06193467974662781,1,-0.01528951711952686,1,0.0462782010436058,1
01/28/26 20:59:53.929335296,-0.01291274186223745,1,0.007675054483115673,1,2.060301542282104,1,-0.04713631048798561,1,-0.01557575818151236,1,0.02859925292432308,1
01/28/26 20:59:53.969333504,-0.01289866864681244,1,0.007670328952372074,1,2.060288429260254,1,-0.04843735694885254,1,-0.005904561374336481,1,0.03215005993843079,1
01/28/26 20:59:54.009301248,-0.01288429647684097,1,0.007674407213926315,1,2.060271501541138,1,-0.05767571553587914,1,-0.01115415431559086,1,0.04093676805496216,1
01/28/26 20:59:54.049277696,-0.01286957412958145,1,0.007676683366298676,1,2.060243368148804,1,-0.05130819976329803,1,-0.008384745568037033,1,0.03454076498746872,1
01/28/26 20:59:54.089280512,-0.0128537816926837,1,0.007662643678486347,1,2.060221433639526,1,-0.05397026985883713,1,-0.008632846176624298,1,0.03316151350736618,1
01/28/26 20:59:54.129272064,-0.01284665893763304,1,0.007655508816242218,1,2.060197353363037,1,-0.05340282991528511,1,-0.009961346164345741,1,0.04446959868073463,1
01/28/26 20:59:54.169228288,-0.01284734345972538,1,0.007645076140761375,1,2.060166597366333,1,-0.04574913904070854,1,-0.01366274058818817,1,0.03812998160719872,1
01/28/26 20:59:54.209209856,-0.01283871382474899,1,0.007643964141607285,1,2.06015157699585,1,-0.05188257619738579,1,-0.01209782063961029,1,0.03239526972174644,1
01/28/26 20:59:54.249256448,-0.01283604092895985,1,0.00764164375141263,1,2.060128450393677,1,-0.05451531708240509,1,-0.009521043859422207,1,0.04160305857658386,1
01/28/26 20:59:54.289277184,-0.01281758677214384,1,0.007636699359863997,1,2.060104131698608,1,-0.05150886997580528,1,-0.01003415044397116,1,0.03805657103657722,1
01/28/26 20:59:54.329230848,-0.01280354708433151,1,0.007618934381753206,1,2.060073614120483,1,-0.0508505180478096,1,-0.01470565609633923,1,0.0360892154276371,1
01/28/26 20:59:54.369206784,-0.01278576254844666,1,0.007618623320013285,1,2.060044288635254,1,-0.05073479562997818,1,-0.008922475390136242,1,0.03607048094272614,1
01/28/26 20:59:54.409218816,-0.01277011074125767,1,0.007624805439263582,1,2.060027599334717,1,-0.05093198269605637,1,-0.009679962880909443,1,0.0411582924425602,1
01/28/26 20:59:54.449217280,-0.01274921931326389,1,0.007620627526193857,1,2.059995651245117,1,-0.05065793171525002,1,-0.006575167179107666,1,0.03288602456450462,1
01/28/26 20:59:54.489171200,-0.0127458143979311,1,0.007613924331963062,1,2.059978246688843,1,-0.05072112753987312,1,-0.008715882897377014,1,0.03699241206049919,1
01/28/26 20:59:54.529147904,-0.01273044664412737,1,0.007620168384164572,1,2.059959411621094,1,-0.05124368518590927,1,-0.0118523957207799,1,0.0408531092107296,1
01/28/26 20:59:54.569156608,-0.01271500438451767,1,0.007616783957928419,1,2.059950351715088,1,-0.04865996167063713,1,-0.007424164563417435,1,0.03380821645259857,1
01/28/26 20:59:54.609152768,-0.01271530147641897,1,0.007609347347170115,1,2.05993390083313,1,-0.04697858169674873,1,-0.008669737726449966,1,0.03792046383023262,1
01/28/26 20:59:54.649106432,-0.01270819641649723,1,0.00759430043399334,1,2.059922456741333,1,-0.05287580937147141,1,-0.01358295977115631,1,0.03851662576198578,1
01/28/26 20:59:54.689083136,-0.0127016631886363,1,0.007575794123113155,1,2.059901237487793,1,-0.05157643556594849,1,-0.006841408088803291,1,0.0249439962208271,1
01/28/26 20:59:54.729088256,-0.01268753968179226,1,0.007573715876787901,1,2.059884548187256,1,-0.04914538934826851,1,-0.01415244862437248,1,0.03460182249546051,1
01/28/26 20:59:54.769081600,-0.0126764327287674,1,0.007572806440293789,1,2.059863805770874,1,-0.04937826842069626,1,-0.009022506885230541,1,0.03928057104349136,1
01/28/26 20:59:54.809035264,-0.01265617832541466,1,0.007572284433990717,1,2.059839487075806,1,-0.05806219577789307,1,-0.01289267186075449,1,0.03393908962607384,1
01/28/26 20:59:54.849011968,-0.01263853441923857,1,0.007577655836939812,1,2.059816122055054,1,-0.05397238954901695,1,-0.002267180010676384,1,0.03659125789999962,1
01/28/26 20:59:54.889025536,-0.01262829825282097,1,0.007575728930532932,1,2.0597984790802,1,-0.04754798486828804,1,-0.0133263822644949,1,0.03743218258023262,1
01/28/26 20:59:54.929024768,-0.01262316573411226,1,0.007564100436866283,1,2.059779167175293,1,-0.04942095652222633,1,-0.005025183781981468,1,0.03353313729166985,1
01/28/26 20:59:54.968978432,-0.0126183619722724,1,0.007554319221526384,1,2.059761047363281,1,-0.04850419610738754,1,-0.009843830019235611,1,0.04530095309019089,1
01/28/26 20:59:55.008955904,-0.01260125078260899,1,0.007556714117527008,1,2.059747219085693,1,-0.04888082295656204,1,-0.008696647360920906,1,0.03734592720866203,1
01/28/26 20:59:55.049031936,-0.01259780023247004,1,0.00756890932098031,1,2.059729814529419,1,-0.0363934300839901,1,-0.03008274734020233,1,0.05489332601428032,1
01/28/26 20:59:55.089072640,-0.01258757151663303,1,0.007566437125205994,1,2.059705495834351,1,-0.03005279041826725,1,-0.008756471797823906,1,0.02935721725225449,1
01/28/26 20:59:55.129026048,-0.01257853582501411,1,0.007561290636658669,1,2.059682130813599,1,-0.05257376283407211,1,-0.016975037753582,1,0.018150944262743,1
01/28/26 20:59:55.169028864,-0.0125819118693471,1,0.007556112017482519,1,2.059657335281372,1,-0.04864950105547905,1,-0.009924978017807007,1,0.03729758784174919,1
01/28/26 20:59:55.209020160,-0.01257901452481747,1,0.007549935486167669,1,2.059640884399414,1,-0.04490838572382927,1,-0.02512935176491737,1,0.04348248243331909,1
01/28/26 20:59:55.248985600,-0.01257886830717325,1,0.007540450431406498,1,2.059625148773193,1,-0.04833874851465225,1,-0.008270931430160999,1,0.03606868162751198,1
01/28/26 20:59:55.289005056,-0.01257499400526285,1,0.007528320420533419,1,2.059612512588501,1,-0.04857350885868073,1,-0.01139095518738031,1,0.04063283652067184,1
01/28/26 20:59:55.328999936,-0.01256134361028671,1,0.007523945067077875,1,2.059595584869385,1,-0.0488121435046196,1,-0.008641128428280354,1,0.05122216790914536,1
01/28/26 20:59:55.368952832,-0.01255327928811312,1,0.00753084197640419,1,2.05957818031311,1,-0.04925458878278732,1,-0.01134030148386955,1,0.03256956115365028,1
01/28/26 20:59:55.408956416,-0.01254791300743818,1,0.007530439645051956,1,2.059564590454102,1,-0.04084170982241631,1,-0.01133049838244915,1,0.03349722176790237,1
01/28/26 20:59:55.448950016,-0.01254941802471876,1,0.00752737931907177,1,2.059551477432251,1,-0.04034140333533287,1,-0.01394828222692013,1,0.0362466499209404,1
01/28/26 20:59:55.488906240,-0.0125293955206871,1,0.007509090006351471,1,2.059535264968872,1,-0.04903241619467735,1,-0.01000692415982485,1,0.0340149998664856,1
01/28/26 20:59:55.528909824,-0.01252445392310619,1,0.007518805097788572,1,2.059522151947021,1,-0.04303820431232452,1,-0.005813363008201122,1,0.02440059743821621,1
01/28/26 20:59:55.568901888,-0.01253127586096525,1,0.007529274560511112,1,2.059507369995117,1,-0.05241784825921059,1,-0.007329951040446758,1,0.03066257759928703,1
01/28/26 20:59:55.608855552,-0.0125222560018301,1,0.007515461184084415,1,2.059491634368896,1,-0.05127007141709328,1,-0.00953170470893383,1,0.03449087962508202,1
01/28/26 20:59:55.648859136,-0.01250683888792992,1,0.007525570690631866,1,2.059484720230103,1,-0.04847150295972824,1,-0.006864940747618675,1,0.03155238926410675,1
01/28/26 20:59:55.688858624,-0.01251586247235537,1,0.007506768219172955,1,2.059469699859619,1,-0.04889079183340073,1,-0.01031594909727573,1,0.03424355015158653,1
01/28/26 20:59:55.728823808,-0.01251841429620981,1,0.007513792254030704,1,2.059458494186401,1,-0.04729689657688141,1,-0.01894548162817955,1,0.03946475684642792,1
01/28/26 20:59:55.768827392,-0.01252053305506706,1,0.007505855057388544,1,2.059442758560181,1,-0.04406019300222397,1,-0.01372763700783253,1,0.02756944298744202,1
01/28/26 20:59:55.808818944,-0.01252116728574038,1,0.007488181814551353,1,2.059433460235596,1,-0.04274783283472061,1,-0.003492283402010798,1,0.03823508694767952,1
01/28/26 20:59:55.848812800,-0.01251330226659775,1,0.007484216243028641,1,2.059417724609375,1,-0.0463571660220623,1,-0.009131729602813721,1,0.03553737699985504,1
01/28/26 20:59:55.888832000,-0.01250442396849394,1,0.007480018772184849,1,2.059391498565674,1,-0.0479467548429966,1,-0.009804020635783672,1,0.02604371123015881,1
01/28/26 20:59:55.928849664,-0.01249532680958509,1,0.007479346822947264,1,2.059378862380981,1,-0.04802774637937546,1,-0.005813141353428364,1,0.02842902764678001,1
01/28/26 20:59:55.968850944,-0.012480104342103,1,0.007474833633750677,1,2.059360980987549,1,-0.04774641618132591,1,-0.01165330596268177,1,0.04382197931408882,1
01/28/26 20:59:56.008844800,-0.01246677432209253,1,0.007477445527911186,1,2.059339284896851,1,-0.04643125832080841,1,-0.0118235731497407,1,0.03302124887704849,1
01/28/26 20:59:56.048864512,-0.01246002316474915,1,0.007486616726964712,1,2.059327363967896,1,-0.04547932744026184,1,-0.006943207234144211,1,0.03181952983140945,1
01/28/26 20:59:56.088871424,-0.01245086640119553,1,0.007491218391805887,1,2.059317588806152,1,-0.04671813175082207,1,-0.0123878289014101,1,0.03437040746212006,1
01/28/26 20:59:56.128864768,-0.01243709120899439,1,0.007492870558053255,1,2.059295415878296,1,-0.04271835088729858,1,-0.009577992372214794,1,0.04098555445671082,1
01/28/26 20:59:56.168863232,-0.01241051871329546,1,0.007492703385651112,1,2.059278249740601,1,-0.04026403278112411,1,-0.008010083809494972,1,0.03312228620052338,1
01/28/26 20:59:56.208905472,-0.01241143885999918,1,0.00748997088521719,1,2.059275388717651,1,-0.04158151522278786,1,-0.01028184220194817,1,0.045760627835989,1
01/28/26 20:59:56.248914688,-0.01241403259336948,1,0.007494571153074503,1,2.059265613555908,1,-0.04635269939899445,1,-0.004578238353133202,1,0.0405002161860466,1
01/28/26 20:59:56.288905472,-0.01240372098982334,1,0.007494403980672359,1,2.059266805648804,1,-0.04587526991963387,1,-0.01039120741188526,1,0.03558538109064102,1
01/28/26 20:59:56.328897280,-0.01239061262458563,1,0.0074967872351408,1,2.059261322021484,1,-0.05029373988509178,1,-0.01232987549155951,1,0.04335150495171547,1
01/28/26 20:59:56.368916480,-0.01238484028726816,1,0.007486592046916485,1,2.059234142303467,1,-0.04669775813817978,1,-0.01250083558261395,1,0.04044704139232635,1
01/28/26 20:59:56.408960768,-0.01238915044814348,1,0.007477418519556522,1,2.059218883514404,1,-0.0492410808801651,1,-0.008231905288994312,1,0.03740052506327629,1
01/28/26 20:59:56.448978688,-0.01237960625439882,1,0.007466265000402927,1,2.059211015701294,1,-0.04589788243174553,1,-0.01396346371620893,1,0.04031790792942047,1
01/28/26 20:59:56.488970496,-0.01237792521715164,1,0.007458960171788931,1,2.059196472167969,1,-0.04952210932970047,1,-0.01205623801797628,1,0.04252278432250023,1
01/28/26 20:59:56.528988416,-0.01236873958259821,1,0.007465188391506672,1,2.059188604354858,1,-0.05081057175993919,1,-0.006911368109285831,1,0.03697262704372406,1
01/28/26 20:59:56.569006848,-0.01236725971102715,1,0.007454817183315754,1,2.059177160263062,1,-0.04271290451288223,1,-0.01082989107817411,1,0.04071012884378433,1
01/28/26 20:59:56.609007360,-0.01236101612448692,1,0.007461418397724628,1,2.059159994125366,1,-0.04208957403898239,1,-0.00546220550313592,1,0.0370621494948864,1
01/28/26 20:59:56.649001216,-0.01235646102577448,1,0.007474717684090137,1,2.059144735336304,1,-0.04454747959971428,1,-0.007559009827673435,1,0.0367511473596096,1
01/28/26 20:59:56.689028352,-0.01234925072640181,1,0.007462090346962214,1,2.059128522872925,1,-0.04741746187210083,1,-0.01517620775848627,1,0.03491977974772453,1
01/28/26 20:59:56.729032192,-0.01235011778771877,1,0.007444219198077917,1,2.05911660194397,1,-0.04664025083184242,1,-0.009212986566126347,1,0.03902559354901314,1
01/28/26 20:59:56.769021696,-0.01234156172722578,1,0.0074648791924119,1,2.05910849571228,1,-0.04494622722268105,1,-0.007155757397413254,1,0.03572779148817062,1
01/28/26 20:59:56.809014016,-0.01232343912124634,1,0.007470037788152695,1,2.059086322784424,1,-0.0486261397600174,1,-0.01366784051060677,1,0.03549123182892799,1
01/28/26 20:59:56.849031936,-0.01230425387620926,1,0.007463545072823763,1,2.059072732925415,1,-0.04867082461714745,1,-0.009458791464567184,1,0.04100405052304268,1
01/28/26 20:59:56.889053696,-0.01229557860642672,1,0.007460176013410091,1,2.05906343460083,1,-0.0428176261484623,1,-0.007818901911377907,1,0.03617073222994804,1
01/28/26 20:59:56.929056768,-0.01227326598018408,1,0.007468460127711296,1,2.059039831161499,1,-0.04400652647018433,1,-0.006365200038999319,1,0.03111802041530609,1
01/28/26 20:59:56.969009152,-0.01227705180644989,1,0.007475325837731361,1,2.059035301208496,1,-0.04538508877158165,1,-0.003746391041204333,1,0.03565672039985657,1
01/28/26 20:59:57.008987136,-0.01226995699107647,1,0.007463817019015551,1,2.059025287628174,1,-0.04491659253835678,1,-0.01373105123639107,1,0.03714365512132645,1
01/28/26 20:59:57.048995328,-0.01226759981364012,1,0.007462872192263603,1,2.059014558792114,1,-0.04253827780485153,1,-0.008869918994605541,1,0.03374592587351799,1
01/28/26 20:59:57.088989184,-0.01225632708519697,1,0.007464590482413769,1,2.059008359909058,1,-0.04368140920996666,1,-0.01017154939472675,1,0.03512665256857872,1
01/28/26 20:59:57.128941056,-0.01224474981427193,1,0.007473335135728121,1,2.059002876281738,1,-0.04474290832877159,1,-0.01108939945697784,1,0.03091914393007755,1
01/28/26 20:59:57.168922112,-0.01224006619304419,1,0.00747541943565011,1,2.059005260467529,1,-0.04008441790938377,1,-0.005102748051285744,1,0.0461905263364315,1
01/28/26 20:59:57.208961792,-0.01223785057663918,1,0.007476909551769495,1,2.058985471725464,1,-0.04822440817952156,1,-0.01764382421970367,1,0.03547664359211922,1
01/28/26 20:59:57.248979456,-0.01221112255007029,1,0.007480170112103224,1,2.058961153030396,1,-0.05006368830800056,1,0.00272228941321373,1,0.04503330588340759,1
01/28/26 20:59:57.288937472,-0.01221833657473326,1,0.007467050105333328,1,2.058947324752808,1,-0.04223011806607246,1,-0.02041705511510372,1,0.03774264827370644,1
01/28/26 20:59:57.328915456,-0.01221024617552757,1,0.007471920922398567,1,2.058938026428223,1,-0.04355782270431519,1,-0.009612622670829296,1,0.03247970342636108,1
01/28/26 20:59:57.368921600,-0.01219082344323397,1,0.007472512312233448,1,2.058932065963745,1,-0.04364554956555367,1,-0.01110262051224709,1,0.03430768102407455,1
01/28/26 20:59:57.408935168,-0.01218340545892715,1,0.007474923506379128,1,2.058920383453369,1,-0.02954681590199471,1,-0.008333811536431313,1,0.03228102624416351,1
01/28/26 20:59:57.448970240,-0.01217513438314199,1,0.007470143027603626,1,2.058903455734253,1,-0.04627377539873123,1,-0.001837617252022028,1,0.03271268680691719,1
01/28/26 20:59:57.489039104,-0.0121639221906662,1,0.007468911353498697,1,2.058878660202026,1,-0.04677361622452736,1,-0.01192049495875835,1,0.03405154496431351,1
01/28/26 20:59:57.529056000,-0.0121528897434473,1,0.007459916640073061,1,2.058865785598755,1,-0.04586160555481911,1,-0.01117119379341602,1,0.03966361284255981,1
01/28/26 20:59:57.569048576,-0.01214936189353466,1,0.007463544141501188,1,2.058860301971436,1,-0.03916345536708832,1,-0.01200333517044783,1,0.03488292545080185,1
01/28/26 20:59:57.609004800,-0.01213269215077162,1,0.007444519549608231,1,2.058854818344116,1,-0.04511527344584465,1,-0.01264112163335085,1,0.03525188565254211,1
01/28/26 20:59:57.648984320,-0.01212359685450792,1,0.007450928911566734,1,2.058843374252319,1,-0.04115481674671173,1,-0.00783779751509428,1,0.03851773217320442,1
01/28/26 20:59:57.688991488,-0.01212033815681934,1,0.007441710215061903,1,2.058838605880737,1,-0.04112715274095535,1,-0.01109689939767122,1,0.04150897264480591,1
01/28/26 20:59:57.728998144,-0.01212226040661335,1,0.007429470308125019,1,2.058832406997681,1,-0.04763796925544739,1,-0.009443385526537895,1,0.02947953343391418,1
01/28/26 20:59:57.768971264,-0.01212221197783947,1,0.007432328537106514,1,2.058821201324463,1,-0.04288473352789879,1,-0.009113454259932041,1,0.03314964100718498,1
01/28/26 20:59:57.808950016,-0.01210899278521538,1,0.00744504714384675,1,2.05880069732666,1,-0.04190659523010254,1,-0.007526671513915062,1,0.04044301435351372,1
01/28/26 20:59:57.848974336,-0.01211702451109886,1,0.00743965245783329,1,2.058789968490601,1,-0.03826911002397537,1,-0.01141081191599369,1,0.03099283576011658,1
01/28/26 20:59:57.888981760,-0.0121147008612752,1,0.007436499465256929,1,2.058770895004272,1,-0.04945420101284981,1,-0.01057139970362186,1,0.03027193993330002,1
01/28/26 20:59:57.928939776,-0.01211997400969267,1,0.00742992851883173,1,2.058764934539795,1,-0.04819072037935257,1,-0.01356481574475765,1,0.03341734409332275,1
01/28/26 20:59:57.968918016,-0.01210999302566051,1,0.00743110803887248,1,2.058752775192261,1,-0.04196066036820412,1,-0.01205053273588419,1,0.03839946165680885,1
01/28/26 20:59:58.008921856,-0.01210188306868076,1,0.007432839833199978,1,2.058737277984619,1,-0.04159417375922203,1,-0.001399034634232521,1,0.03402293100953102,1
01/28/26 20:59:58.048953088,-0.0120893819257617,1,0.007425824180245399,1,2.058720588684082,1,-0.04069697111845016,1,-0.005494317039847374,1,0.03875183314085007,1
01/28/26 20:59:58.089055744,-0.01208728458732367,1,0.007427175994962454,1,2.058716535568237,1,-0.04244480282068253,1,-0.007095931097865105,1,0.02766573615372181,1
01/28/26 20:59:58.129281536,-0.01208552531898022,1,0.00743579538539052,1,2.058701515197754,1,-0.04672572389245033,1,-0.01048357971012592,1,0.03877370059490204,1
01/28/26 20:59:58.169347584,-0.0120888277888298,1,0.007431559730321169,1,2.058695554733276,1,-0.04027486220002174,1,-0.01546795852482319,1,0.04504655301570892,1
01/28/26 20:59:58.209346048,-0.01207741256803274,1,0.007434510160237551,1,2.058684587478638,1,-0.02932919375598431,1,-0.006963314488530159,1,0.03775760158896446,1
01/28/26 20:59:58.249299456,-0.01207772642374039,1,0.007438014261424541,1,2.058671474456787,1,-0.04594933614134789,1,-0.003966822754591703,1,0.02244269102811813,1
01/28/26 20:59:58.289275392,-0.01206556055694818,1,0.007426799274981022,1,2.058651447296143,1,-0.03338824957609177,1,-0.01400815136730671,1,0.04361017420887947,1
01/28/26 20:59:58.329277184,-0.01206049416214228,1,0.007430558558553457,1,2.058637142181396,1,-0.04395974427461624,1,-0.003592984983697534,1,0.0242085512727499,1
01/28/26 20:59:58.369280256,-0.01206134352833033,1,0.007434062659740448,1,2.058632850646973,1,-0.04220325872302055,1,-0.007949590682983398,1,0.03973054140806198,1
01/28/26 20:59:58.409250816,-0.01205943524837494,1,0.007433231454342604,1,2.058630228042603,1,-0.0404505766928196,1,-0.007511778734624386,1,0.03980516269803047,1
01/28/26 20:59:58.449226752,-0.01205632369965315,1,0.007431615609675646,1,2.058626174926758,1,-0.04070920124650002,1,-0.01091517973691225,1,0.03347073495388031,1
01/28/26 20:59:58.489229056,-0.0120492847636342,1,0.007432584185153246,1,2.058613300323486,1,-0.04078111052513123,1,-0.01234930567443371,1,0.03118331171572208,1
01/28/26 20:59:58.529219584,-0.01204495877027512,1,0.007452997844666243,1,2.058600187301636,1,-0.04372333362698555,1,-0.01123483665287495,1,0.03853097558021545,1
01/28/26 20:59:58.569172480,-0.01203717850148678,1,0.007460441906005144,1,2.058584690093994,1,-0.04483515396714211,1,-0.004932194948196411,1,0.03017200529575348,1
01/28/26 20:59:58.609148416,-0.01201978418976068,1,0.007459336426109076,1,2.058580160140991,1,-0.03811438754200935,1,-0.007724098861217499,1,0.03639695420861244,1
01/28/26 20:59:58.649157376,-0.01200689282268286,1,0.007450501900166273,1,2.05857515335083,1,-0.04130993783473969,1,-0.01212374679744244,1,0.04049614444375038,1
01/28/26 20:59:58.689153792,-0.01199029572308064,1,0.007433224003762007,1,2.05856728553772,1,-0.04015733674168587,1,-0.01233758684247732,1,0.02805087901651859,1
01/28/26 20:59:58.729106688,-0.01199445966631174,1,0.007421093992888927,1,2.058565378189087,1,-0.03970913961529732,1,-0.008709424175322056,1,0.03380757197737694,1
01/28/26 20:59:58.769109248,-0.01198871247470379,1,0.007434773724526167,1,2.058548450469971,1,-0.04568035155534744,1,-0.007918603718280792,1,0.03126087039709091,1
01/28/26 20:59:58.809100800,-0.0119813084602356,1,0.007451575715094805,1,2.058541059494019,1,-0.04220392182469368,1,-0.01135708019137383,1,0.02836222574114799,1
01/28/26 20:59:58.849054720,-0.01196253765374422,1,0.007449422962963581,1,2.058526277542114,1,-0.04591338336467743,1,-0.01181414816528559,1,0.0344158448278904,1
01/28/26 20:59:58.889061888,-0.01194523368030787,1,0.007436463609337807,1,2.058513879776001,1,-0.03622747212648392,1,-0.01344453357160091,1,0.04212424904108047,1
01/28/26 20:59:58.929055744,-0.0119497999548912,1,0.007435925304889679,1,2.058506965637207,1,-0.047855194658041,1,-0.008783498778939247,1,0.03640191256999969,1
01/28/26 20:59:58.969008384,-0.01193390879780054,1,0.00744311697781086,1,2.05849814414978,1,-0.03876040130853653,1,-0.01197177544236183,1,0.03093357756733894,1
01/28/26 20:59:59.009011456,-0.01192384120076895,1,0.007448289077728987,1,2.058490753173828,1,-0.04771698266267776,1,-0.005128188990056515,1,0.02828085236251354,1
01/28/26 20:59:59.049004800,-0.01191189792007208,1,0.007455364335328341,1,2.058478116989136,1,-0.04559828341007233,1,-0.006971549242734909,1,0.03353553637862206,1
01/28/26 20:59:59.088962304,-0.01189821492880583,1,0.007454202510416508,1,2.058462619781494,1,-0.0407743901014328,1,-0.01280394103378057,1,0.03295234963297844,1
01/28/26 20:59:59.128969728,-0.0118823517113924,1,0.007447751238942146,1,2.05846118927002,1,-0.04248574376106262,1,-0.00060745031805709,1,0.03263146430253983,1
01/28/26 20:59:59.168975616,-0.01188076101243496,1,0.007442515809088945,1,2.058451652526855,1,-0.03544851392507553,1,-0.01429305225610733,1,0.03435093536973,1
01/28/26 20:59:59.208951040,-0.01188919320702553,1,0.007447723299264908,1,2.058442354202271,1,-0.03650994226336479,1,-0.006402097176760435,1,0.03486022353172302,1
01/28/26 20:59:59.248956928,-0.01188294403254986,1,0.007436026819050312,1,2.058441638946533,1,-0.04381762444972992,1,-0.006570700090378523,1,0.03852866962552071,1
01/28/26 20:59:59.288948480,-0.01187745947390795,1,0.007430895697325468,1,2.058436870574951,1,-0.03686086088418961,1,-0.00707860104739666,1,0.03972795978188515,1
01/28/26 20:59:59.328901632,-0.01187144406139851,1,0.007432159502059221,1,2.058425903320313,1,-0.04191521927714348,1,-0.009888885542750359,1,0.03542083874344826,1
01/28/26 20:59:59.368904448,-0.01187295652925968,1,0.007431937847286463,1,2.058420896530151,1,-0.0432063490152359,1,-0.01550815254449844,1,0.03396793827414513,1
01/28/26 20:59:59.408896000,-0.01185927726328373,1,0.007430970203131437,1,2.058415412902832,1,-0.04417089745402336,1,-0.009705804288387299,1,0.03922334313392639,1
01/28/26 20:59:59.448896256,-0.01184486132115126,1,0.00741664320230484,1,2.058404445648193,1,-0.04129338264465332,1,-0.01006212737411261,1,0.03478420153260231,1
01/28/26 20:59:59.488943360,-0.0118416016921401,1,0.007416181266307831,1,2.058408737182617,1,-0.03781356289982796,1,-0.007247674278914928,1,0.04051003232598305,1
01/28/26 20:59:59.528953600,-0.01184289343655109,1,0.007420901209115982,1,2.058390378952026,1,-0.03576324135065079,1,-0.008091849274933338,1,0.03714538738131523,1
01/28/26 20:59:59.568945152,-0.01182673871517181,1,0.007425294723361731,1,2.058383464813232,1,-0.04105573892593384,1,-0.009533313103020191,1,0.03990117087960243,1
01/28/26 20:59:59.608938496,-0.01180788036435843,1,0.007430268917232752,1,2.058369398117065,1,-0.03999380022287369,1,-0.00561336986720562,1,0.03638355806469917,1
01/28/26 20:59:59.648957440,-0.01180802751332521,1,0.007421503309160471,1,2.058369398117065,1,-0.04088623449206352,1,-0.00734344869852066,1,0.0368025153875351,1
01/28/26 20:59:59.688965888,-0.01179980393499136,1,0.007402906194329262,1,2.058356285095215,1,-0.03713895380496979,1,-0.006917893886566162,1,0.03378021717071533,1
01/28/26 20:59:59.728964352,-0.01177892088890076,1,0.007393676787614822,1,2.058349609375,1,-0.04014049097895622,1,-0.01029649656265974,1,0.03639467060565948,1
01/28/26 20:59:59.768963072,-0.01176983956247568,1,0.007385049946606159,1,2.05833911895752,1,-0.0392782986164093,1,-0.007476169615983963,1,0.03684715181589127,1
01/28/26 20:59:59.808980992,-0.01175376679748297,1,0.007372655905783176,1,2.058321714401245,1,-0.04710753634572029,1,-0.005144390277564526,1,0.03151964768767357,1
01/28/26 20:59:59.848983296,-0.01173880603164434,1,0.007378558628261089,1,2.058316946029663,1,-0.03746062144637108,1,-0.01164960954338312,1,0.03549934178590775,1
01/28/26 20:59:59.888974592,-0.01172956172376871,1,0.007371083367615938,1,2.058313846588135,1,-0.03611387684941292,1,-0.004112389404326677,1,0.0369718000292778,1
01/28/26 20:59:59.928970240,-0.01173358224332333,1,0.007358346600085497,1,2.058307647705078,1,-0.03453379124403,1,-0.008201232179999352,1,0.03778946772217751,1
01/28/26 20:59:59.968994304,-0.01171996165066957,1,0.0073494678363204,1,2.058297872543335,1,-0.04238432645797729,1,-0.01572122052311897,1,0.03796026110649109,1
01/28/26 21:00:00.008997888,-0.01171667315065861,1,0.007342771161347628,1,2.058290719985962,1,-0.03833996132016182,1,-0.0001554826158098876,1,0.03561491146683693,1
01/28/26 21:00:00.048988160,-0.01170824002474546,1,0.007337203714996576,1,2.05828332901001,1,-0.04063016921281815,1,-0.01480053830891848,1,0.03171894699335098,1
01/28/26 21:00:00.088980992,-0.01169937197118998,1,0.007335011847317219,1,2.058276653289795,1,-0.04210685938596725,1,-0.007420901209115982,1,0.02959695085883141,1
01/28/26 21:00:00.128998656,-0.01166898850351572,1,0.007333559449762106,1,2.05825138092041,1,-0.03945614770054817,1,-0.01161399204283953,1,0.04187855497002602,1
01/28/26 21:00:00.169000448,-0.01165524125099182,1,0.007336164359003305,1,2.058238983154297,1,-0.04215075075626373,1,0.0002854899503290653,1,0.03428937122225761,1
01/28/26 21:00:00.208991488,-0.01166089065372944,1,0.007331231608986855,1,2.05823016166687,1,-0.04076765850186348,1,-0.008642357774078846,1,0.03589555621147156,1
01/28/26 21:00:00.248985344,-0.01167630776762962,1,0.007325238548219204,1,2.058225393295288,1,-0.04276597872376442,1,-0.008818715810775757,1,0.03329818323254585,1
01/28/26 21:00:00.289003264,-0.01167809031903744,1,0.007307517807930708,1,2.058217525482178,1,-0.03907376527786255,1,-0.01057593338191509,1,0.03127200528979301,1
01/28/26 21:00:00.329006336,-0.01167645491659641,1,0.007310422603040934,1,2.058211326599121,1,-0.04087266325950623,1,-0.002019630745053291,1,0.03141201287508011,1
01/28/26 21:00:00.368996608,-0.01166945323348045,1,0.007318574469536543,1,2.058200359344482,1,-0.03540417924523354,1,-0.01138902083039284,1,0.03531850501894951,1
01/28/26 21:00:00.408988672,-0.0116679547354579,1,0.00732219684869051,1,2.058192253112793,1,-0.04577909782528877,1,-0.007835613563656807,1,0.0350714810192585,1
01/28/26 21:00:00.449006336,-0.01166584528982639,1,0.007325211074203253,1,2.058199882507324,1,-0.03943194448947906,1,-0.00599364610388875,1,0.0328451469540596,1
01/28/26 21:00:00.489008128,-0.01166169438511133,1,0.007322714198380709,1,2.058189630508423,1,-0.03502054139971733,1,-0.009643830358982086,1,0.03887129575014114,1
01/28/26 21:00:00.529004032,-0.01164686121046543,1,0.007322908379137516,1,2.05818247795105,1,-0.03059398382902145,1,-0.003786039771512151,1,0.03285505995154381,1
01/28/26 21:00:00.569004032,-0.01163579896092415,1,0.007324970327317715,1,2.058175563812256,1,-0.03618967905640602,1,-0.005566447973251343,1,0.029079370200634,1
01/28/26 21:00:00.609021696,-0.01162910182029009,1,0.007327181752771139,1,2.058165788650513,1,-0.04003671184182167,1,-0.007166286464780569,1,0.03656557202339172,1
01/28/26 21:00:00.649022720,-0.01162553299218416,1,0.007326834835112095,1,2.058149337768555,1,-0.0380796305835247,1,-0.00871360395103693,1,0.04150083288550377,1
01/28/26 21:00:00.689012480,-0.01163170114159584,1,0.00732898898422718,1,2.058135271072388,1,-0.03964333608746529,1,-0.002653876086696982,1,0.03485133871436119,1
01/28/26 21:00:00.728964608,-0.01163014490157366,1,0.00731848506256938,1,2.058127164840698,1,-0.04382051900029182,1,-0.01231320574879646,1,0.0452919602394104,1
01/28/26 21:00:00.768943360,-0.01162089221179485,1,0.007311468943953514,1,2.058123826980591,1,-0.03699004650115967,1,-0.001174863311462104,1,0.04168973490595818,1
01/28/26 21:00:00.808945152,-0.0116029791533947,1,0.007300860714167356,1,2.05811619758606,1,-0.0436154268682003,1,-0.01030202675610781,1,0.03001227602362633,1
01/28/26 21:00:00.848934400,-0.01159286685287952,1,0.007296490948647261,1,2.058106899261475,1,-0.03817354887723923,1,-0.007447023876011372,1,0.04026716575026512,1
01/28/26 21:00:00.888886784,-0.01157711539417505,1,0.007306672167032957,1,2.058104276657104,1,-0.03666384890675545,1,-0.006612494587898254,1,0.03188102319836617,1
01/28/26 21:00:00.928870912,-0.01156341191381216,1,0.00729288486763835,1,2.058100938796997,1,-0.04600337520241737,1,-0.007746252231299877,1,0.02957374602556229,1
01/28/26 21:00:00.968877056,-0.01156776305288076,1,0.007285195868462324,1,2.058094024658203,1,-0.04119637981057167,1,-0.006168865598738194,1,0.03894815221428871,1
01/28/26 21:00:01.008896000,-0.01156522613018751,1,0.007285006809979677,1,2.058088064193726,1,-0.03350906074047089,1,-0.00771753815934062,1,0.03548045083880424,1
01/28/26 21:00:01.048928768,-0.01154724787920713,1,0.007293811999261379,1,2.058074951171875,1,-0.04114385694265366,1,-0.008856276981532574,1,0.03237572684884071,1
01/28/26 21:00:01.088945664,-0.01154254749417305,1,0.007293409202247858,1,2.058060884475708,1,-0.03941245377063751,1,-0.008658834733068943,1,0.04445419460535049,1
01/28/26 21:00:01.128951040,-0.01153689809143543,1,0.007303422782570124,1,2.05805516242981,1,-0.03416290506720543,1,-0.01244367193430662,1,0.0367569774389267,1
01/28/26 21:00:01.168945152,-0.0115294037386775,1,0.007297522854059935,1,2.058048248291016,1,-0.03503179177641869,1,-0.007891700603067875,1,0.0296858549118042,1
01/28/26 21:00:01.208900608,-0.01151652447879314,1,0.007289979606866837,1,2.058035373687744,1,-0.03320884332060814,1,-0.009513302706182003,1,0.04036467522382736,1
01/28/26 21:00:01.248919808,-0.01149944588541985,1,0.007286983076483011,1,2.058036327362061,1,-0.03700368478894234,1,-0.006883470807224512,1,0.03924479708075523,1
01/28/26 21:00:01.288945920,-0.01150245033204556,1,0.007284954655915499,1,2.058025598526001,1,-0.03374233841896057,1,-0.002418182790279388,1,0.02698883786797523,1
01/28/26 21:00:01.328945664,-0.01149235107004642,1,0.007291246671229601,1,2.058007001876831,1,-0.04308211803436279,1,-0.01480995118618011,1,0.03061230853199959,1
01/28/26 21:00:01.368900608,-0.01147636584937572,1,0.00729087321087718,1,2.058004140853882,1,-0.04110665246844292,1,-0.00431367289274931,1,0.03955192118883133,1
01/28/26 21:00:01.408878592,-0.01147093158215284,1,0.007299685850739479,1,2.057995319366455,1,-0.03877729177474976,1,-0.01125653646886349,1,0.03259070590138435,1
01/28/26 21:00:01.448883200,-0.01147180702537298,1,0.007300400640815496,1,2.057988405227661,1,-0.03718404099345207,1,-0.007856413722038269,1,0.03369935229420662,1
01/28/26 21:00:01.488877312,-0.01145757269114256,1,0.00730158993974328,1,2.057976007461548,1,-0.03842069953680038,1,-0.00829852931201458,1,0.03634149581193924,1
01/28/26 21:00:01.528854784,-0.01144767645746469,1,0.007288460619747639,1,2.057958126068115,1,-0.04037262499332428,1,-0.005922657903283834,1,0.03071487694978714,1
01/28/26 21:00:01.568853504,-0.01144458446651697,1,0.007291834801435471,1,2.057971000671387,1,-0.03722922131419182,1,-0.005859374068677425,1,0.04575205966830254,1
01/28/26 21:00:01.608857088,-0.01142849307507277,1,0.00728624826297164,1,2.057965517044067,1,-0.03520580381155014,1,-0.009595963172614574,1,0.03678214550018311,1
01/28/26 21:00:01.648849408,-0.01141548901796341,1,0.007281762547791004,1,2.057956218719482,1,-0.03446784615516663,1,-0.01152931898832321,1,0.03346225619316101,1
01/28/26 21:00:01.688805376,-0.01139786466956139,1,0.007282380945980549,1,2.057949304580688,1,-0.03556232526898384,1,-0.008853014558553696,1,0.03389958664774895,1
01/28/26 21:00:01.728784384,-0.01139444019645452,1,0.007284000981599092,1,2.057944774627686,1,-0.03672913461923599,1,-0.01375798601657152,1,0.03648898005485535,1
01/28/26 21:00:01.768808960,-0.01139123924076557,1,0.007276066578924656,1,2.057940483093262,1,-0.03483325615525246,1,-0.01025325059890747,1,0.02278161980211735,1
01/28/26 21:00:01.808814848,-0.01138252671808004,1,0.007299694232642651,1,2.057932376861572,1,-0.03177748993039131,1,-0.004015425220131874,1,0.03478802368044853,1
01/28/26 21:00:01.848768768,-0.01138867530971766,1,0.007295000832527876,1,2.057921409606934,1,-0.03702802211046219,1,-0.01695483736693859,1,0.04007147997617722,1
01/28/26 21:00:01.888750592,-0.01137734577059746,1,0.007285749539732933,1,2.057912588119507,1,-0.03964539244771004,1,-0.006766327656805515,1,0.02793087251484394,1
01/28/26 21:00:01.928773120,-0.011368946172297,1,0.007286027539521456,1,2.057906866073608,1,-0.03658277913928032,1,-0.003859915770590305,1,0.0371217206120491,1
01/28/26 21:00:01.968777472,-0.01136131957173347,1,0.00730036711320281,1,2.057907342910767,1,-0.03629705682396889,1,-0.01023951172828674,1,0.0441880077123642,1
01/28/26 21:00:02.008743168,-0.01136550214141607,1,0.007291116751730442,1,2.057891845703125,1,-0.03370571136474609,1,-0.006347887683659792,1,0.03147649019956589,1
01/28/26 21:00:02.048732160,-0.01135734841227531,1,0.007281329017132521,1,2.057881593704224,1,-0.03667197003960609,1,-0.008652688004076481,1,0.03336421772837639,1
01/28/26 21:00:02.088735232,-0.01133888680487871,1,0.007277334574609995,1,2.057877063751221,1,-0.02551933191716671,1,0.0004839132307097316,1,0.04295666143298149,1
01/28/26 21:00:02.128728064,-0.01132677868008614,1,0.0072832559235394,1,2.057876586914063,1,-0.02644903771579266,1,-0.01992129720747471,1,0.01515856105834246,1
01/28/26 21:00:02.168685056,-0.01132386829704046,1,0.007278222125023603,1,2.0578773021698,1,-0.04748298972845078,1,0.008626961149275303,1,0.01658423244953156,1
01/28/26 21:00:02.208698880,-0.01131728570908308,1,0.007259160280227661,1,2.057873964309692,1,-0.03145463019609451,1,-0.02151358127593994,1,0.06401935964822769,1
01/28/26 21:00:02.248696064,-0.01131582539528608,1,0.007241987623274326,1,2.057870864868164,1,-0.02698225900530815,1,-0.008719800040125847,1,0.0341586172580719,1
01/28/26 21:00:02.288650496,-0.01131788361817598,1,0.007230920251458883,1,2.057861566543579,1,-0.04554271325469017,1,-0.01099423598498106,1,0.02560936845839024,1
01/28/26 21:00:02.328665088,-0.01132540684193373,1,0.007231464143842459,1,2.057868003845215,1,-0.03325115889310837,1,-0.00252470700070262,1,0.04918977618217468,1
01/28/26 21:00:02.368667904,-0.01131707616150379,1,0.00723986653611064,1,2.057860136032104,1,-0.03899206221103668,1,-0.005997310858219862,1,0.03249312937259674,1
01/28/26 21:00:02.408627456,-0.01131119951605797,1,0.007234138902276754,1,2.057856321334839,1,-0.0424448624253273,1,-0.004682882688939571,1,0.03172683715820313,1
01/28/26 21:00:02.448631296,-0.01130079198628664,1,0.007229900918900967,1,2.057847261428833,1,-0.03787537664175034,1,-0.005469694267958403,1,0.03897619247436523,1
01/28/26 21:00:02.488633344,-0.01129052881151438,1,0.00722213601693511,1,2.05783748626709,1,-0.03566567972302437,1,-0.008182048797607422,1,0.03433938696980476,1
01/28/26 21:00:02.528617984,-0.01128710992634296,1,0.007231900002807379,1,2.057839870452881,1,-0.03194735199213028,1,-0.0110188452526927,1,0.03680311888456345,1
01/28/26 21:00:02.568640512,-0.01127761974930763,1,0.007221083156764507,1,2.05783748626709,1,-0.04202557727694511,1,-0.003917280584573746,1,0.03588881343603134,1
01/28/26 21:00:02.608634112,-0.01127559319138527,1,0.007215324323624372,1,2.057829618453979,1,-0.03703861683607101,1,-0.009234879165887833,1,0.0346258357167244,1
01/28/26 21:00:02.648588544,-0.01127582602202892,1,0.007215359713882208,1,2.057821035385132,1,-0.04051956534385681,1,-0.0110661881044507,1,0.03410032019019127,1
01/28/26 21:00:02.688627712,-0.01126800384372473,1,0.007222173735499382,1,2.057816505432129,1,-0.03907560929656029,1,-0.00699751079082489,1,0.03776634484529495,1
01/28/26 21:00:02.728646144,-0.01127362065017223,1,0.007219079416245222,1,2.057800769805908,1,-0.03482110798358917,1,-0.004709684755653143,1,0.03629579022526741,1
01/28/26 21:00:02.768605952,-0.01127242762595415,1,0.007210725918412209,1,2.057798624038696,1,-0.03473711758852005,1,-0.007973468862473965,1,0.03284682333469391,1
01/28/26 21:00:02.808609792,-0.01127580087631941,1,0.007212395779788494,1,2.057777643203735,1,-0.03253954648971558,1,-0.01132821291685104,1,0.04584864526987076,1
01/28/26 21:00:02.848602624,-0.01126705855131149,1,0.007213693112134933,1,2.057778120040894,1,-0.03366534784436226,1,-0.01001475844532251,1,0.03800195828080177,1
01/28/26 21:00:02.888557568,-0.01126475445926189,1,0.007207732181996107,1,2.057774066925049,1,-0.0357833094894886,1,-0.005060028284788132,1,0.03423786535859108,1
01/28/26 21:00:02.928580608,-0.01126768253743649,1,0.007206141017377377,1,2.057770490646362,1,-0.03224574401974678,1,-0.01065857615321875,1,0.03299463167786598,1
01/28/26 21:00:02.968585216,-0.01126652862876654,1,0.007201563566923141,1,2.057766199111938,1,-0.03958482295274734,1,-0.002274484606459737,1,0.03214821591973305,1
01/28/26 21:00:03.008579840,-0.0112541513517499,1,0.007195151410996914,1,2.057772636413574,1,-0.0432218611240387,1,-0.004562073852866888,1,0.03435966372489929,1
01/28/26 21:00:03.048599552,-0.01125260442495346,1,0.007197916507720947,1,2.057775735855103,1,-0.03395037353038788,1,-0.0009023367892950773,1,0.04145309329032898,1
01/28/26 21:00:03.088603136,-0.01124467048794031,1,0.007203632965683937,1,2.05778169631958,1,-0.03268824890255928,1,-0.006216017529368401,1,0.03842995315790176,1
01/28/26 21:00:03.128604416,-0.01123946718871593,1,0.007203903049230576,1,2.057782649993896,1,-0.03533487394452095,1,-0.00431507732719183,1,0.0315520279109478,1
01/28/26 21:00:03.168617984,-0.01124307978898287,1,0.007195089012384415,1,2.057781219482422,1,-0.03249162063002586,1,-0.001899703871458769,1,0.03643521666526794,1
01/28/26 21:00:03.208661504,-0.01122830715030432,1,0.007201460190117359,1,2.057769775390625,1,-0.03295666724443436,1,-0.01031022798269987,1,0.03391134366393089,1
01/28/26 21:00:03.248689664,-0.01121516432613134,1,0.007192816585302353,1,2.05776572227478,1,-0.03693642839789391,1,-0.00795619934797287,1,0.03295044973492622,1
01/28/26 21:00:03.288694016,-0.01121006160974503,1,0.007185671012848616,1,2.057760000228882,1,-0.03704576194286346,1,-0.005017096642404795,1,0.03768394514918327,1
01/28/26 21:00:03.328687616,-0.01118617691099644,1,0.007188182789832354,1,2.057767152786255,1,-0.03968688473105431,1,-0.007023122161626816,1,0.0359041728079319,1
01/28/26 21:00:03.368706560,-0.01117489207535982,1,0.007197706494480371,1,2.057765245437622,1,-0.03469929471611977,1,-0.003090915270149708,1,0.03457148000597954,1
01/28/26 21:00:03.408710144,-0.01117608137428761,1,0.007188726682215929,1,2.057770013809204,1,-0.03353772684931755,1,-0.004795658402144909,1,0.03722435235977173,1
01/28/26 21:00:03.448706304,-0.01116569060832262,1,0.007195464801043272,1,2.057776212692261,1,-0.02809910289943218,1,-0.0109217707067728,1,0.04166305437684059,1
01/28/26 21:00:03.488705536,-0.01116160862147808,1,0.007193855009973049,1,2.057771921157837,1,-0.033551175147295,1,-0.004773283842951059,1,0.03563002869486809,1
01/28/26 21:00:03.528725248,-0.01116257533431053,1,0.007182118017226458,1,2.057769775390625,1,-0.03734765201807022,1,-0.006505205295979977,1,0.03951936960220337,1
01/28/26 21:00:03.568728320,-0.01114259287714958,1,0.007181610446423292,1,2.057765007019043,1,-0.04209408164024353,1,-0.009187845513224602,1,0.04036801308393478,1
01/28/26 21:00:03.608719104,-0.01114373467862606,1,0.007165078073740005,1,2.057763576507568,1,-0.03670946508646011,1,-0.008470771834254265,1,0.03593748807907104,1
01/28/26 21:00:03.648712192,-0.01112899277359247,1,0.007164691109210253,1,2.057762622833252,1,-0.03387392684817314,1,-0.005940589588135481,1,0.04004793241620064,1
01/28/26 21:00:03.688731392,-0.01110662613064051,1,0.007172658573836088,1,2.057775020599365,1,-0.03094350732862949,1,-0.008521034382283688,1,0.04552016407251358,1
01/28/26 21:00:03.728734720,-0.01109735667705536,1,0.007148523814976215,1,2.057758331298828,1,-0.02874691970646381,1,-0.005548654589802027,1,0.03586651384830475,1
01/28/26 21:00:03.768748288,-0.01109832432121038,1,0.007128816097974777,1,2.057750701904297,1,-0.03094885870814323,1,-0.009300799109041691,1,0.03879103437066078,1
01/28/26 21:00:03.808775168,-0.01110836118459702,1,0.0071342708542943,1,2.05774450302124,1,-0.0370476096868515,1,-0.001852896297350526,1,0.03497708961367607,1
01/28/26 21:00:03.848796416,-0.01110388524830341,1,0.007130089215934277,1,2.057734489440918,1,-0.0339321605861187,1,-0.005463775247335434,1,0.03617529943585396,1
01/28/26 21:00:03.888799744,-0.01109895575791597,1,0.007134818006306887,1,2.057734727859497,1,-0.03241884335875511,1,-0.006710291840136051,1,0.03071264550089836,1
01/28/26 21:00:03.928789760,-0.01108444482088089,1,0.007133579347282648,1,2.057737350463867,1,-0.03491352126002312,1,-0.008847402408719063,1,0.03340286761522293,1
01/28/26 21:00:03.968784384,-0.01108512375503778,1,0.007133082486689091,1,2.057724714279175,1,-0.03177579864859581,1,-0.005005531013011932,1,0.03742675855755806,1
01/28/26 21:00:04.008812288,-0.01105994638055563,1,0.007140510715544224,1,2.057716608047485,1,-0.03479936718940735,1,-0.0045088822953403,1,0.03774737566709518,1
01/28/26 21:00:04.048817152,-0.01104912254959345,1,0.007134874351322651,1,2.057717561721802,1,-0.03251559659838676,1,-0.002839330350980163,1,0.03307059779763222,1
01/28/26 21:00:04.088806656,-0.01103426888585091,1,0.00713434861972928,1,2.057713270187378,1,-0.03575646877288818,1,-0.007366408593952656,1,0.03316211700439453,1
01/28/26 21:00:04.128760064,-0.01102441269904375,1,0.007123261224478483,1,2.057706594467163,1,-0.03668283298611641,1,-0.003216722048819065,1,0.03389130905270576,1
01/28/26 21:00:04.168739072,-0.01100718136876822,1,0.007122562266886234,1,2.057700395584106,1,-0.0309915617108345,1,-0.0101210679858923,1,0.03671795129776001,1
01/28/26 21:00:04.208744192,-0.01098641473799944,1,0.007117217872291803,1,2.057686805725098,1,-0.03366344422101974,1,-0.006147240754216909,1,0.03499855101108551,1
01/28/26 21:00:04.248769792,-0.01098132692277431,1,0.00712963193655014,1,2.057677745819092,1,-0.0403323695063591,1,-0.006281150039285421,1,0.03682428225874901,1
01/28/26 21:00:04.288811776,-0.01097710989415646,1,0.007136288564652205,1,2.057673692703247,1,-0.0277047548443079,1,-0.004722254816442728,1,0.03938936069607735,1
01/28/26 21:00:04.328830208,-0.01099461317062378,1,0.007141533307731152,1,2.057660579681396,1,-0.03640972077846527,1,-0.008404741063714027,1,0.0341172106564045,1
01/28/26 21:00:04.368834304,-0.01099328976124525,1,0.007141587790101767,1,2.057665109634399,1,-0.02707353979349136,1,0.0001617086236365139,1,0.03130167350172997,1
01/28/26 21:00:04.408828160,-0.01099537126719952,1,0.007147965021431446,1,2.057648181915283,1,-0.0295953918248415,1,-0.007266385015100241,1,0.0338616669178009,1
01/28/26 21:00:04.448784128,-0.01099132187664509,1,0.007171835284680128,1,2.057642698287964,1,-0.03527312353253365,1,-0.004638393875211477,1,0.03230447322130203,1
01/28/26 21:00:04.488819968,-0.01099740713834763,1,0.007177195511758327,1,2.057647943496704,1,-0.03021690435707569,1,-0.003733650548383594,1,0.03688422217965126,1
01/28/26 21:00:04.528856832,-0.01098660100251436,1,0.007156028412282467,1,2.057652950286865,1,-0.0304245837032795,1,-0.0124352527782321,1,0.04027396813035011,1
01/28/26 21:00:04.568859136,-0.01097077503800392,1,0.007150145713239908,1,2.057650566101074,1,-0.03315721079707146,1,-0.007567404769361019,1,0.03822577372193336,1
01/28/26 21:00:04.608814592,-0.01097820233553648,1,0.007139370311051607,1,2.057654857635498,1,-0.02956208400428295,1,-0.009126452729105949,1,0.029492462053895,1
01/28/26 21:00:04.648792576,-0.01096073165535927,1,0.007135308347642422,1,2.057648658752441,1,-0.02831205911934376,1,-0.00469556450843811,1,0.03510791808366776,1
01/28/26 21:00:04.688864000,-0.01095501706004143,1,0.007147407624870539,1,2.057637691497803,1,-0.02998042106628418,1,-0.005147708579897881,1,0.03499015420675278,1
01/28/26 21:00:04.728902656,-0.0109472032636404,1,0.007163746282458305,1,2.057628870010376,1,-0.03644802421331406,1,-0.009063947945833206,1,0.03313002362847328,1
01/28/26 21:00:04.768857600,-0.01095182076096535,1,0.007176555227488279,1,2.057622194290161,1,-0.03210344165563583,1,-0.00453307805582881,1,0.03716762363910675,1
01/28/26 21:00:04.808834816,-0.01094308402389288,1,0.007180328015238047,1,2.057618618011475,1,-0.03257722407579422,1,-0.00464581185951829,1,0.02624363638460636,1
01/28/26 21:00:04.848838400,-0.01093607489019632,1,0.007162491790950298,1,2.057616710662842,1,-0.03239782899618149,1,-0.001519933925010264,1,0.03485171496868134,1
01/28/26 21:00:04.888865536,-0.0109374662861228,1,0.007158681750297546,1,2.057605981826782,1,-0.03347226977348328,1,-0.01111103408038616,1,0.0332988016307354,1
01/28/26 21:00:04.928960768,-0.01092381682246923,1,0.007142528425902128,1,2.057604789733887,1,-0.03281442448496819,1,-0.005288748536258936,1,0.02840925566852093,1
01/28/26 21:00:04.969172992,-0.01091752387583256,1,0.007124742027372122,1,2.057596921920776,1,-0.0319262258708477,1,-0.006946920417249203,1,0.05176686495542526,1
01/28/26 21:00:05.009224704,-0.01090305205434561,1,0.007114021573215723,1,2.057592630386353,1,-0.03452746197581291,1,-0.003366024233400822,1,0.03735384717583656,1
01/28/26 21:00:05.049228544,-0.0108971269801259,1,0.007090247236192226,1,2.057597398757935,1,-0.02426037564873695,1,-0.0007898289477452636,1,0.04168816655874252,1
01/28/26 21:00:05.089201664,-0.01091292127966881,1,0.007085046265274286,1,2.057602167129517,1,-0.03034553490579128,1,-0.02380782179534435,1,0.05249802023172379,1
01/28/26 21:00:05.129179136,-0.01089161727577448,1,0.007092052605003119,1,2.057604074478149,1,-0.03402093425393105,1,0.002033923985436559,1,0.01277098804712296,1
01/28/26 21:00:05.169180928,-0.01087314821779728,1,0.007096942514181137,1,2.05760383605957,1,-0.02978090196847916,1,-0.002026852918788791,1,0.007744252681732178,1
01/28/26 21:00:05.209176576,-0.01087746024131775,1,0.00709909712895751,1,2.057601928710938,1,-0.03264250978827477,1,-0.01255711913108826,1,0.03662454336881638,1
01/28/26 21:00:05.249137408,-0.01087884325534105,1,0.0070989690721035,1,2.057584285736084,1,-0.03412335738539696,1,-0.007156863808631897,1,0.03037352673709393,1
01/28/26 21:00:05.289114112,-0.01088353525847197,1,0.007101287599653006,1,2.057585000991821,1,-0.03155114501714706,1,-0.01637470535933971,1,0.04071701318025589,1
01/28/26 21:00:05.329115904,-0.0108656557276845,1,0.007098367903381586,1,2.057585477828979,1,-0.0324559323489666,1,0.001584437675774097,1,0.03354473412036896,1
01/28/26 21:00:05.369167616,-0.01086430251598358,1,0.007108618970960379,1,2.057584762573242,1,-0.03310214355587959,1,-0.01341033168137074,1,0.02755660563707352,1
01/28/26 21:00:05.409299200,-0.01084949541836977,1,0.007114358711987734,1,2.0575852394104,1,-0.03267498314380646,1,-0.003782791085541248,1,0.04491287469863892,1
01/28/26 21:00:05.449509376,-0.01085261441767216,1,0.007118703797459602,1,2.057585954666138,1,-0.02847920916974545,1,-0.01042534783482552,1,0.06513212621212006,1
01/28/26 21:00:05.489559552,-0.01084386557340622,1,0.007108583580702543,1,2.057578086853027,1,-0.03290671110153198,1,-0.005017347633838654,1,0.04777189716696739,1
01/28/26 21:00:05.529554944,-0.01084799505770206,1,0.007104222197085619,1,2.057575464248657,1,-0.03741317242383957,1,-0.002618595026433468,1,0.04525157809257507,1
01/28/26 21:00:05.569530112,-0.010837915353477,1,0.007089722901582718,1,2.057571649551392,1,-0.03070096857845783,1,-0.01415569521486759,1,0.06418310105800629,1
01/28/26 21:00:05.609519360,-0.01083055604249239,1,0.007083697710186243,1,2.057575941085815,1,-0.03140317648649216,1,-0.002631332958117127,1,0.0177338682115078,1
01/28/26 21:00:05.649520128,-0.01083142776042223,1,0.007085299119353294,1,2.057564258575439,1,-0.03035241365432739,1,-0.008350208401679993,1,0.0285436175763607,1
01/28/26 21:00:05.689508864,-0.01081355288624763,1,0.007067164406180382,1,2.057556390762329,1,-0.03824236243963242,1,-0.01013940665870905,1,0.0180930495262146,1
01/28/26 21:00:05.729460480,-0.01082226540893316,1,0.007068742997944355,1,2.057558536529541,1,-0.02553044073283672,1,0.0004935730248689651,1,0.03130732104182243,1
01/28/26 21:00:05.769533696,-0.01083181798458099,1,0.007069031707942486,1,2.057557344436646,1,-0.03486062958836555,1,-0.01446578092873096,1,0.03017142228782177,1
01/28/26 21:00:05.809579776,-0.01082982029765844,1,0.007064560893923044,1,2.057551860809326,1,-0.03104461543262005,1,0.009561006911098957,1,0.02975469082593918,1
01/28/26 21:00:05.849546240,-0.01083505153656006,1,0.007073042448610067,1,2.057554006576538,1,-0.03126383945345879,1,-0.02082459069788456,1,0.0351003035902977,1
01/28/26 21:00:05.889548800,-0.01082676462829113,1,0.007074630819261074,1,2.057548046112061,1,-0.02758809179067612,1,0.002612748881801963,1,0.03232470899820328,1
01/28/26 21:00:05.929538560,-0.01080040633678436,1,0.007077840622514486,1,2.057544708251953,1,-0.03051436878740788,1,-0.0175507515668869,1,0.03935481235384941,1
01/28/26 21:00:05.969489920,-0.01078546047210693,1,0.007080452051013708,1,2.05754566192627,1,-0.02914232388138771,1,-0.0006053780671209097,1,0.03802843019366264,1
01/28/26 21:00:06.009502976,-0.01078364532440901,1,0.007098371628671885,1,2.05753755569458,1,-0.03146533668041229,1,-0.01554060261696577,1,0.03346231952309608,1
01/28/26 21:00:06.049501184,-0.01079072710126638,1,0.007097763940691948,1,2.057528734207153,1,-0.03300608322024345,1,-0.003735790494829416,1,0.03411654010415077,1
01/28/26 21:00:06.089454080,-0.01077973749488592,1,0.0071066003292799,1,2.057529449462891,1,-0.02973764017224312,1,-0.003405756549909711,1,0.0356597788631916,1
01/28/26 21:00:06.129454848,-0.01079315505921841,1,0.007132906466722488,1,2.05751633644104,1,-0.03071894496679306,1,-0.009088410064578056,1,0.02117170765995979,1
01/28/26 21:00:06.169444608,-0.01078348979353905,1,0.007136852946132421,1,2.057516098022461,1,-0.02757019735872746,1,-0.008916515856981277,1,0.03473137319087982,1
01/28/26 21:00:06.209395712,-0.01077269669622183,1,0.00713089294731617,1,2.057511568069458,1,-0.02867235615849495,1,0.004435955546796322,1,0.04294460639357567,1
01/28/26 21:00:06.249451008,-0.01076495740562677,1,0.007149332668632269,1,2.057501792907715,1,-0.03277149051427841,1,-0.0134207783266902,1,0.02642187289893627,1
01/28/26 21:00:06.289476864,-0.01078679133206606,1,0.007150337565690279,1,2.057497024536133,1,-0.02549707889556885,1,-0.0006342731649056077,1,0.03297111764550209,1
01/28/26 21:00:06.329428992,-0.01080388482660055,1,0.007159342058002949,1,2.057490110397339,1,-0.0294573400169611,1,-0.01214073412120342,1,0.03662562370300293,1
01/28/26 21:00:06.369430528,-0.01080102380365133,1,0.007164404727518559,1,2.057488441467285,1,-0.02801095694303513,1,0.002257433487102389,1,0.04077321290969849,1
01/28/26 21:00:06.409420288,-0.01079065911471844,1,0.007170695811510086,1,2.057487487792969,1,-0.02975470572710037,1,-0.01195219345390797,1,0.02971378155052662,1
01/28/26 21:00:06.449371648,-0.01078070048242807,1,0.007172225508838892,1,2.057485580444336,1,-0.02466404996812344,1,-0.00584393460303545,1,0.02913100458681583,1
01/28/26 21:00:06.489372416,-0.01077505387365818,1,0.007179539650678635,1,2.057483196258545,1,-0.02657809108495712,1,-0.009238422848284245,1,0.04386627301573753,1
01/28/26 21:00:06.529407488,-0.01077779848128557,1,0.007187675684690475,1,2.057484865188599,1,-0.02971100248396397,1,-0.007266400847584009,1,0.02600535191595554,1
01/28/26 21:00:06.569466624,-0.01075215544551611,1,0.007202679291367531,1,2.057488918304443,1,-0.03221138566732407,1,-0.005582428071647882,1,0.04053422808647156,1
01/28/26 21:00:06.609483776,-0.01074813306331635,1,0.007209802512079477,1,2.057493448257446,1,-0.02801895886659622,1,-0.007415635511279106,1,0.03517705947160721,1
01/28/26 21:00:06.649484288,-0.01073579397052526,1,0.007210057694464922,1,2.057487010955811,1,-0.03291115909814835,1,-0.007124013733118773,1,0.0315432958304882,1
01/28/26 21:00:06.689471744,-0.01072327233850956,1,0.007230103947222233,1,2.057482719421387,1,-0.03217251226305962,1,-0.003450453979894519,1,0.03476573526859283,1
01/28/26 21:00:06.729480192,-0.01071497704833746,1,0.007222004234790802,1,2.057474136352539,1,-0.03383230417966843,1,-0.01049940939992666,1,0.04047976434230804,1
01/28/26 21:00:06.769568512,-0.01070557441562414,1,0.007229687180370092,1,2.057473182678223,1,-0.02974955178797245,1,-0.00345968478359282,1,0.03240976482629776,1
01/28/26 21:00:06.809586176,-0.01069591846317053,1,0.007214074023067951,1,2.057475090026855,1,-0.0324949324131012,1,-0.01112284697592258,1,0.0368027426302433,1
01/28/26 21:00:06.849573632,-0.01068145595490932,1,0.007208712864667177,1,2.057479381561279,1,-0.0302449855953455,1,-0.004232454113662243,1,0.04826682433485985,1
01/28/26 21:00:06.889563392,-0.01066048908978701,1,0.007223533932119608,1,2.057482242584229,1,-0.03169161453843117,1,-0.01226208638399839,1,0.03610721230506897,1
01/28/26 21:00:06.929578496,-0.01065361406654119,1,0.007228344678878784,1,2.057475805282593,1,-0.02829938940703869,1,-0.0006476062117144465,1,0.03708727285265923,1
01/28/26 21:00:06.969616640,-0.01064880378544331,1,0.007233639247715473,1,2.057474136352539,1,-0.03013133257627487,1,-0.01033048052340746,1,0.03687098994851112,1
01/28/26 21:00:07.009630464,-0.01064507942646742,1,0.007217458914965391,1,2.0574631690979,1,-0.02315609715878963,1,-0.00872791837900877,1,0.0373775027692318,1
01/28/26 21:00:07.049620224,-0.0106373056769371,1,0.007215238176286221,1,2.057471752166748,1,-0.02993323095142841,1,-0.005996150895953178,1,0.03839660063385963,1
01/28/26 21:00:07.089635328,-0.01061976701021194,1,0.007203580811619759,1,2.057471990585327,1,-0.02845190837979317,1,-0.0136012714356184,1,0.04426020383834839,1
01/28/26 21:00:07.129634048,-0.01060919556766748,1,0.007198909763246775,1,2.057466745376587,1,-0.02865985594689846,1,-0.007248292677104473,1,0.02913512848317623,1
01/28/26 21:00:07.169622016,-0.0106014683842659,1,0.007200540974736214,1,2.057467222213745,1,-0.0248821098357439,1,-0.003472866723313928,1,0.03550627082586288,1
01/28/26 21:00:07.209613056,-0.01058681774884462,1,0.007203599903732538,1,2.057452440261841,1,-0.03136690706014633,1,-0.008005794137716293,1,0.03927581757307053,1
01/28/26 21:00:07.249628160,-0.01058574207127094,1,0.007189019583165646,1,2.057451963424683,1,-0.02837441675364971,1,-0.007404230069369078,1,0.03724382817745209,1
01/28/26 21:00:07.289627648,-0.0105664012953639,1,0.007187666371464729,1,2.057457447052002,1,-0.02943355403840542,1,-0.008082160726189613,1,0.04210253059864044,1
01/28/26 21:00:07.329616128,-0.0105547271668911,1,0.007183905690908432,1,2.057456731796265,1,-0.02847999334335327,1,-0.007706840988248587,1,0.03929911181330681,1
01/28/26 21:00:07.369615616,-0.0105407265946269,1,0.00718182697892189,1,2.057451248168945,1,-0.02877291664481163,1,-0.007735684979707003,1,0.03186782076954842,1
01/28/26 21:00:07.409663744,-0.01052550226449966,1,0.007166257128119469,1,2.057454824447632,1,-0.02949189767241478,1,-0.008003109134733677,1,0.03093306720256805,1
01/28/26 21:00:07.449670912,-0.0105246277526021,1,0.007172741461545229,1,2.05745267868042,1,-0.02316226437687874,1,-0.009022803977131844,1,0.04307996109127998,1
01/28/26 21:00:07.489657856,-0.0105165783315897,1,0.007178942672908306,1,2.057444095611572,1,-0.0340992733836174,1,-0.004139362834393978,1,0.0350138321518898,1
01/28/26 21:00:07.529646336,-0.01052565034478903,1,0.007175563834607601,1,2.057445287704468,1,-0.004347562789916992,1,-0.02389324456453323,1,0.1208216175436974,1
01/28/26 21:00:07.569661440,-0.01050499267876148,1,0.007171541918069124,1,2.057446718215942,1,0.003569271182641387,1,0.006890931166708469,1,0.0985526517033577,1
01/28/26 21:00:07.609697024,-0.01050923019647598,1,0.007171121891587973,1,2.057448148727417,1,-0.03133507817983627,1,-0.03662792220711708,1,0.04489379748702049,1
01/28/26 21:00:07.649708544,-0.0105044087395072,1,0.007180546876043081,1,2.057438373565674,1,0.004286343231797218,1,-0.005317696370184422,1,0.06705261766910553,1
01/28/26 21:00:07.689697024,-0.01048859674483538,1,0.007184211164712906,1,2.057435512542725,1,-0.03839020803570747,1,-0.01086672209203243,1,0.03699516132473946,1
01/28/26 21:00:07.729711616,-0.01049554068595171,1,0.007190491538494825,1,2.057439565658569,1,-0.03566956892609596,1,-0.01297486573457718,1,0.03815451264381409,1
01/28/26 21:00:07.769710336,-0.01050286181271076,1,0.007172282785177231,1,2.057430028915405,1,-0.02867750264704227,1,-0.004345002118498087,1,0.03526618704199791,1
