FILE_INFO
ListSeparator=,
DecimalSeparator=.

SESSION_INFO
TimeZone,UTC
TimeZoneOffset,0
DateTimeFormat,MM/DD/YY h:mm:ss.nnnnnnnnn
StartTime,01/01/70 00:00:00.000000000
TimeFormat,Standard

DEVICE_INFO
Address,*

CHANNEL_INFO
Channel,Type,SampleRate,Equation,Coefficients,Unit,UnitSymbol,WhereApplied,WhenApplied
inertial-6286.188861:scaledGyroX,Timeseries,10Hz,,,,,,
inertial-6286.188861:scaledGyroY,Timeseries,10Hz,,,,,,
inertial-6286.188861:scaledGyroZ,Timeseries,10Hz,,,,,,

DATA_START
Time,inertial-6286.188861:scaledGyroX,inertial-6286.188861:scaledGyroY,inertial-6286.188861:scaledGyroZ
02/13/26 20:53:22.573348864,-0.0002462160773575306,-1.316482666879892e-05,0.0001707143528619781
02/13/26 20:53:22.673396736,0.0003050127997994423,-0.0007395809516310692,-2.432523979223333e-05
02/13/26 20:53:22.773375232,-0.0005634791450574994,0.0005285541992634535,-0.0001368785597151145
02/13/26 20:53:22.873341696,-0.0004558843502309173,0.0002556733088567853,0.0004847931850235909
02/13/26 20:53:22.973390080,0.001146927243098617,0.0002664804633241147,-0.0004066082765348256
02/13/26 20:53:23.073367040,-0.0003514426061883569,-0.0006180025520734489,5.503979627974331e-05
02/13/26 20:53:23.173333248,-0.000101421115687117,-0.0002251590194646269,0.0005389542784541845
02/13/26 20:53:23.273380608,0.0003161865752190351,-0.0002618679136503488,0.0001407839590683579
02/13/26 20:53:23.373357056,0.001268547493964434,-0.0002421457902528346,-0.0002421267417958006
02/13/26 20:53:23.473323008,-0.0003484011103864759,0.0007236918318085372,0.000292954093310982
02/13/26 20:53:23.573371648,-0.000190684397239238,0.0002593924873508513,-0.000230630801524967
02/13/26 20:53:23.673353472,6.189427949720994e-05,0.000510506855789572,0.0001314418768743053
02/13/26 20:53:23.773319424,-0.00107804499566555,4.687364707933739e-05,0.0004224507138133049
02/13/26 20:53:23.873367552,0.001056136330589652,-0.0006772719789296389,7.464694499503821e-05
02/13/26 20:53:23.973353216,6.421303987735882e-05,0.0006093615083955228,0.0002280059270560741
02/13/26 20:53:24.073317888,-0.0004694454837590456,-0.0006195306777954102,9.086162026505917e-05
02/13/26 20:53:24.173364224,-0.0003647884586825967,0.0001589763269294053,0.0002057661477010697
02/13/26 20:53:24.273342464,-5.75861195102334e-05,0.000335680932039395,-0.0002473306376487017
02/13/26 20:53:24.373305856,-0.00017456358182244,0.0003693891339935362,5.38159511052072e-05
02/13/26 20:53:24.473352192,0.0003454217221587896,-0.0003558992757461965,0.0002773694286588579
02/13/26 20:53:24.573332224,0.002589720534160733,2.375362237216905e-05,1.247445470653474e-05
02/13/26 20:53:24.673293568,0.0006027984200045466,-0.0004429304390214384,0.0004154614871367812
02/13/26 20:53:24.773341440,0.0006690078880637884,-0.0009078014409169555,-0.0001662640133872628
02/13/26 20:53:24.873323520,-0.001156177720986307,0.0002087947650579736,3.271170135121793e-05
02/13/26 20:53:24.973294336,-0.0008850134327076375,-0.0003755820798687637,0.0004072657320648432
02/13/26 20:53:25.073346304,0.0007292302325367928,4.628195893019438e-05,-0.0003779529652092606
02/13/26 20:53:25.173329408,0.0002969237975776196,0.0001972860482055694,0.0004071339499205351
02/13/26 20:53:25.273298432,0.0002282153291162103,-5.773630982730538e-05,0.0001078712957678363
02/13/26 20:53:25.373349888,0.0003456625854596496,-0.0001657060347497463,0.0001139667438110337
02/13/26 20:53:25.473330432,0.0002064792206510901,0.000439994822954759,-0.0001955573388841003
02/13/26 20:53:25.573301248,0.0006380055565387011,-0.0002367333072470501,0.0001060178910847753
02/13/26 20:53:25.673349888,0.0005003382684662938,0.000225862895604223,0.0006331518525257707
02/13/26 20:53:25.773328640,-0.0008237955626100302,0.0003532952396199107,0.0001069048012141138
02/13/26 20:53:25.873297152,-0.0001376687432639301,0.0003464084002189338,0.000388126471079886
02/13/26 20:53:25.973348352,8.927487942855805e-05,-2.4065186153166e-05,-0.0002891127951443195
02/13/26 20:53:26.073326080,0.0003530544345267117,0.0005135108949616551,0.0004553784383460879
02/13/26 20:53:26.173294592,-0.0003536187869030982,-0.0001388173695886508,-0.000536966894287616
02/13/26 20:53:26.273341440,5.558329576160759e-06,0.0001271625806111842,-6.102541374275461e-05
02/13/26 20:53:26.373318656,0.0009470087243244052,-0.0002743412624113262,-0.0002206941280746832
02/13/26 20:53:26.473286656,-0.0003766812733374536,0.0004034548765048385,0.0003833276859950274
02/13/26 20:53:26.573334272,-0.0008247055811807513,0.0002604682231321931,-3.467442002147436e-05
02/13/26 20:53:26.673310976,-0.0007854435825720429,-0.0003497879079077393,5.039492680225521e-05
02/13/26 20:53:26.773277952,-0.001373086124658585,0.0003646958793979138,-0.0003028688952326775
02/13/26 20:53:26.873324800,-0.0001356840948574245,-8.027755393413827e-05,-0.0002776686451397836
02/13/26 20:53:26.973301248,0.00030825290014036,0.0003661421942524612,-0.0002968033077195287
02/13/26 20:53:27.073265408,0.0004265205061528832,0.0002311512653250247,0.0002333771990379319
02/13/26 20:53:27.173314560,0.001312450622208416,0.001345624099485576,-0.0001709868665784597
02/13/26 20:53:27.273295872,0.000157474132720381,0.0004949728609062731,0.0001477438636356965
02/13/26 20:53:27.373259776,-0.0003048873040825129,-2.35019251704216e-05,0.0002710898406803608
02/13/26 20:53:27.473307904,-0.0009694461477920413,0.0003541438491083682,-0.0006464490434154868
02/13/26 20:53:27.573288192,0.0001904740202007815,-4.766276106238365e-06,-0.0002329391572857276
02/13/26 20:53:27.673252864,0.0007015758892521262,-0.0002432306937407702,-6.308673619059846e-05
02/13/26 20:53:27.773299200,-0.0004221575218252838,8.064531721174717e-05,5.987098847981542e-05
02/13/26 20:53:27.873278208,0.0001680746499914676,0.0001663901493884623,-8.799368515610695e-05
02/13/26 20:53:27.973246976,-0.0008895188802853227,0.0001355191925540566,0.0002374364121351391
02/13/26 20:53:28.073292800,-0.0005425363196991384,0.0003241371596232057,8.304690709337592e-06
02/13/26 20:53:28.173271552,0.001164050307124853,0.0002061180130112916,0.0003530851390678436
02/13/26 20:53:28.273235968,-0.001593882450833917,0.0006048855138942599,-0.0005900277756154537
02/13/26 20:53:28.373287680,0.01608582772314548,-0.000408820720622316,-0.0002067125751636922
02/13/26 20:53:28.473268736,-0.00206759013235569,-0.0001534696639282629,-0.0003624634700827301
02/13/26 20:53:28.573240064,-0.003919404931366444,0.0004807693185284734,0.0001741388550726697
02/13/26 20:53:28.673299200,9.922630852088332e-06,4.805508069694042e-06,-0.000270386430202052
02/13/26 20:53:28.773278464,-0.001063851406797767,-0.000343229592544958,-0.0006557156448252499
02/13/26 20:53:28.873249024,0.002654273994266987,0.0007148347795009613,0.0002765790559351444
02/13/26 20:53:28.973301248,6.50966539978981e-05,0.0007759066065773368,-0.0001322496245848015
02/13/26 20:53:29.073284608,-0.001354112522676587,8.977293327916414e-05,-8.540368435205892e-05
02/13/26 20:53:29.173254144,0.001228779437951744,-2.193541149608791e-06,-7.451834972016513e-05
02/13/26 20:53:29.273306624,-0.001490103430114686,-0.000514435232616961,0.0004484670935198665
02/13/26 20:53:29.373289216,-0.0001877806498669088,0.0001259389391634613,0.0003530530375428498
02/13/26 20:53:29.473261056,0.000134678790345788,-9.504277113592252e-05,0.0005558070261031389
02/13/26 20:53:29.573309184,4.114472176297568e-05,0.0007085154065862298,0.0002282351779285818
02/13/26 20:53:29.673287424,0.0005763852968811989,-3.380069392733276e-05,-0.0002434976486256346
02/13/26 20:53:29.773254912,0.0006641904474236071,6.540937465615571e-05,-0.0001637295208638534
02/13/26 20:53:29.873303040,-0.0003528720699250698,-3.415751416468993e-05,0.000224432471441105
02/13/26 20:53:29.973280256,0.0003910573141183704,0.0001558500080136582,0.0001524968247395009
02/13/26 20:53:30.073250048,0.001524164690636098,4.898141924059018e-05,-0.0005725626251660287
02/13/26 20:53:30.173296640,0.0009611944551579654,0.0001228769542649388,-0.0004524806281551719
02/13/26 20:53:30.273272320,-2.166855847463012e-05,0.0002443685662001371,-0.0003135795413982123
02/13/26 20:53:30.373238528,0.0004004523507319391,-0.0001669973280513659,-0.0002622346510179341
02/13/26 20:53:30.473288448,-0.0008347159600816667,9.732562466524541e-05,2.430271706543863e-05
02/13/26 20:53:30.573268224,-0.001011476386338472,-0.0008233386324718595,-0.000650174799375236
02/13/26 20:53:30.673235200,0.000830923905596137,-0.0002322429354535416,0.0003907662467099726
02/13/26 20:53:30.773283328,-0.0007460727938450873,0.0002411122259218246,1.435862941434607e-05
02/13/26 20:53:30.873268992,0.0006483494071289897,0.0002044085995294154,0.0002108789485646412
02/13/26 20:53:30.973233152,-1.725699985399842e-05,0.001346966484561563,-0.0002402276586508378
02/13/26 20:53:31.073282560,5.911574771744199e-05,0.0003607384860515594,-0.0009145840303972363
02/13/26 20:53:31.173261568,3.426679177209735e-05,-0.0007391797262243927,-0.0006503102486021817
02/13/26 20:53:31.273225216,0.0001306623744312674,0.0008162959129549563,0.0007678060210309923
02/13/26 20:53:31.373271808,-0.0004080769140273333,0.0002531303325667977,-0.0001409275137120858
02/13/26 20:53:31.473253120,-2.680419129319489e-06,-0.0003415353130549192,0.0001093576429411769
02/13/26 20:53:31.573214464,0.0006217383197508752,-5.276274896459654e-05,-5.143433372722939e-05
02/13/26 20:53:31.673267968,0.001425386755727232,-9.611662244424224e-05,-0.0004144923004787415
02/13/26 20:53:31.773249536,0.0002461225958541036,3.564365761121735e-05,4.935333708999678e-05
02/13/26 20:53:31.873221376,0.0001303871395066381,0.0001592070329934359,-0.0001059684436768293
02/13/26 20:53:31.973273600,-0.0002838484360836446,0.0002336042525712401,0.0003971284022554755
02/13/26 20:53:32.073254400,-0.001161329448223114,0.0003816541866399348,-0.0008476609364151955
02/13/26 20:53:32.173225472,0.002536492887884378,-0.0005760557833127677,-0.0001644955482333899
02/13/26 20:53:32.273276672,-0.001188538502901793,6.487323844339699e-05,0.0001940716028911993
02/13/26 20:53:32.373263616,0.0008479878306388855,-0.0002580514992587268,8.528874604962766e-05
02/13/26 20:53:32.573145856,-0.4850191473960876,-0.01262586750090122,0.02231138572096825
02/13/26 20:53:32.673116416,-0.1858493685722351,0.008062646724283695,-0.0002490763436071575
02/13/26 20:53:32.773165312,0.00167418026831001,-0.001220496604219079,-0.5619337558746338
02/13/26 20:53:32.873146112,0.3639971613883972,-0.005823972634971142,0.0125854117795825
02/13/26 20:53:32.973114880,0.4492166638374329,-0.01007130369544029,0.007178079336881638
02/13/26 20:53:33.073165568,0.2537427842617035,0.1232009902596474,0.950499951839447
02/13/26 20:53:33.173145600,0.3568434119224548,0.08566474914550781,0.5505898594856262
02/13/26 20:53:33.273116160,-0.7748945355415344,-0.06221753358840942,-0.7654139995574951
02/13/26 20:53:33.373169664,0.4484611749649048,0.08084887266159058,0.644590437412262
02/13/26 20:53:33.473149184,-0.1304098665714264,-0.003375603118911386,-0.04256699979305267
02/13/26 20:53:33.573115904,-0.2487125396728516,-1.831096768379211,-1.239675521850586
02/13/26 20:53:33.673054464,-2.239041805267334,1.784852623939514,-0.05563658475875854
02/13/26 20:53:33.773022208,-2.807119369506836,2.608590364456177,0.6574601531028748
02/13/26 20:53:33.873073920,-1.767194151878357,3.539596557617188,0.9182983040809631
02/13/26 20:53:33.973057536,-1.756005048751831,2.504079103469849,1.189317584037781
02/13/26 20:53:34.073026304,-0.9747598171234131,-0.342616856098175,0.8243657350540161
02/13/26 20:53:34.173039872,1.100298643112183,-5.005505084991455,-0.3102217316627502
02/13/26 20:53:34.273017600,-0.7803913354873657,-0.05252297595143318,-1.158655405044556
02/13/26 20:53:34.373068032,-2.006362199783325,3.409604072570801,-2.180037975311279
02/13/26 20:53:34.673026304,0.6887660622596741,-2.545109510421753,2.501956939697266
02/13/26 20:53:34.773075200,0.5278627872467041,-3.453328609466553,0.3735877573490143
02/13/26 20:53:34.973028352,-1.261583089828491,4.126340866088867,-0.4580906629562378
02/13/26 20:53:35.072949504,-1.822507500648499,4.998684406280518,-1.262323141098022
02/13/26 20:53:35.272884480,2.277354717254639,-4.997855663299561,2.26953649520874
02/13/26 20:53:35.372858624,0.1618577688932419,-2.718661308288574,-0.4470035433769226
02/13/26 20:53:35.572669952,-1.377363443374634,4.879873275756836,-1.024798512458801
02/13/26 20:53:35.672689408,-1.663841247558594,5.001300811767578,-0.4133105278015137
02/13/26 20:53:35.772649472,-2.369535446166992,-2.958535671234131,1.237361788749695
02/13/26 20:53:35.872546816,0.4848447144031525,-4.995174407958984,2.933475017547607
02/13/26 20:53:35.972526848,0.4939521551132202,-5.003762722015381,0.1772945374250412
02/13/26 20:53:36.072583424,-2.355361223220825,0.7942631244659424,-2.209976434707642
02/13/26 20:53:36.172535040,-1.47644054889679,2.077959537506104,-1.58934223651886
02/13/26 20:53:36.372457728,0.09443945437669754,5.001089096069336,-0.2701241970062256
02/13/26 20:53:36.472514048,-0.242378294467926,-0.8871126174926758,1.722546696662903
02/13/26 20:53:36.572499456,1.632068276405334,-4.995099544525146,3.115396022796631
02/13/26 20:53:36.772373248,-0.8036829233169556,0.8840619325637817,-1.097040057182312
02/13/26 20:53:36.972427520,-0.7156388759613037,1.563530921936035,0.3665026128292084
02/13/26 20:53:37.072411392,-0.6159388422966003,2.450567245483398,-0.2473621070384979
02/13/26 20:53:37.172386304,1.039150357246399,2.252289533615112,-0.4272933006286621
02/13/26 20:53:37.272442880,2.118478298187256,0.5097556114196777,-0.1578385531902313
02/13/26 20:53:37.372432128,2.065293788909912,-0.4640826880931854,-0.4681015908718109
02/13/26 20:53:37.472405760,0.6130039691925049,-0.2623774111270905,-1.200062036514282
02/13/26 20:53:37.572462080,-0.3727695643901825,1.593129992485046,0.07014276087284088
02/13/26 20:53:37.672450048,-0.0977608859539032,1.51613986492157,0.5090810656547546
02/13/26 20:53:37.772423168,0.07650821655988693,0.138702467083931,0.1120463162660599
02/13/26 20:53:37.872477440,0.05488627403974533,0.2577687799930573,-0.1948943734169006
02/13/26 20:53:37.972465152,0.3941956162452698,0.1660415828227997,-0.2871378362178802
02/13/26 20:53:38.072421632,-0.07357490062713623,-0.2517866790294647,-0.1237619668245316
02/13/26 20:53:38.172476160,-0.260729968547821,-0.3352037668228149,-0.09648913145065308
02/13/26 20:53:38.272447232,1.019635438919067,-4.122404098510742,-0.4289237260818481
02/13/26 20:53:38.472401408,-0.2852774858474731,0.03113232180476189,0.2336028665304184
02/13/26 20:53:38.572461056,-0.2347778230905533,0.03078036569058895,0.3474412858486176
02/13/26 20:53:38.672449792,-0.005941024981439114,0.0340036153793335,0.7830697894096375
02/13/26 20:53:38.772428288,-0.1768162250518799,0.000686521059833467,-0.117186926305294
02/13/26 20:53:38.872319744,-0.7308568358421326,0.04912335798144341,0.239130511879921
02/13/26 20:53:38.972228864,0.8753820657730103,0.02856185287237167,-0.005027418956160545
02/13/26 20:53:39.072294912,-0.005193597637116909,0.001190505689010024,-0.0002036858932115138
02/13/26 20:53:39.172283648,-0.1130489185452461,0.004103437531739473,0.0002551588695496321
02/13/26 20:53:39.272262656,0.002242209389805794,-0.0002605023910291493,0.0003625351819209754
02/13/26 20:53:39.372322304,0.01286895666271448,-9.847008914221078e-05,-0.0001651779020903632
02/13/26 20:53:39.472311808,0.01099479757249355,-0.000879487139172852,0.000375362258637324
02/13/26 20:53:39.572289536,0.0005880959797650576,-0.0003348296449985355,-1.86772522283718e-05
02/13/26 20:53:39.672347392,-0.001988071016967297,-0.0002151519584003836,0.0004113799659535289
02/13/26 20:53:39.772335616,-0.002800030168145895,-0.0004981955862604082,-5.272202542982996e-05
02/13/26 20:53:39.872312576,-0.002665610983967781,-0.0001776250574039295,0.0002651494287420064
02/13/26 20:53:39.972371968,0.001219511264935136,5.619751027552411e-05,0.0002830581797752529
02/13/26 20:53:40.072360448,-0.0007147199939936399,0.0007032796274870634,0.0003178667684551328
02/13/26 20:53:40.172337408,-0.0009238106431439519,0.000428991304943338,-0.0002431487664580345
02/13/26 20:53:40.272393728,-0.0006190802669152617,0.001378241810016334,0.0002794896718114614
02/13/26 20:53:40.372378368,-6.885456969030201e-05,0.0001176442965515889,0.0002773071173578501
02/13/26 20:53:40.472352256,0.0001961827510967851,-5.075148510513827e-05,5.872448673471808e-05
02/13/26 20:53:40.572410880,-0.000613319338299334,-0.0002236279251519591,4.395390715217218e-05
02/13/26 20:53:40.672400128,-0.001160019892267883,-7.293774979189038e-05,-9.459454304305837e-05
02/13/26 20:53:40.772374016,-0.0003578012401703745,-0.0002719072217587382,-4.794562119059265e-05
02/13/26 20:53:40.872429824,-1.749835791997612e-05,0.000594105978962034,-0.0004074099415447563
02/13/26 20:53:40.972419840,0.0004545359697658569,0.0006957434234209359,0.0002203629701398313
02/13/26 20:53:41.072393472,0.0003518376324791461,-0.0007127932040020823,-3.764424764085561e-05
02/13/26 20:53:41.172449536,-0.0006263114628382027,0.0004193722270429134,0.0005665968637913465
02/13/26 20:53:41.272438784,-0.0006771645275875926,-0.0001057189219864085,-0.0007636313093826175
02/13/26 20:53:41.372408576,-0.001067174365743995,-0.0005975860985927284,0.0002512190258130431
02/13/26 20:53:41.472463872,-0.0003968463861383498,0.0004167743027210236,0.0004138357180636376
02/13/26 20:53:41.572450816,-0.0003377710236236453,-0.0005577295669354498,-0.0004996773786842823
02/13/26 20:53:41.672419840,-0.0001651910279178992,0.0006110924878157675,0.0004029610427096486
02/13/26 20:53:41.772472832,-0.0006531286053359509,0.0003064497723244131,0.0001339101872872561
02/13/26 20:53:41.872461568,-0.001908482983708382,2.186643541790545e-05,0.000190797058166936
02/13/26 20:53:41.972440576,0.0002742913784459233,-0.00033874053042382,0.0003546125954017043
02/13/26 20:53:42.072498944,0.001640353933908045,0.000336646509822458,-0.0001053329033311456
02/13/26 20:53:42.172487936,0.0009667687700130045,-0.0001139233645517379,-0.000308500078972429
02/13/26 20:53:42.272467200,0.0001374663406750187,-0.0003290232853032649,0.0003074107225984335
02/13/26 20:53:42.372525312,-0.0006862128502689302,-1.258430711459368e-05,0.0001601280673639849
02/13/26 20:53:42.472513024,-0.00163009634707123,0.0002110485220327973,-0.0005725136143155396
02/13/26 20:53:42.572489472,-0.0001261477009393275,0.0003782226413022727,0.0001651152706472203
02/13/26 20:53:42.672546304,0.0005927953170612454,-0.000637660501524806,-0.0001721648877719417
02/13/26 20:53:42.772532736,-0.0001165853173006326,-0.000589198840316385,0.0001423345820512623
02/13/26 20:53:42.872508416,-0.001404861453920603,0.0007135703344829381,0.0001457665930502117
02/13/26 20:53:42.972567296,0.0002017697552219033,-0.0004580400709528476,-0.0002029481111094356
02/13/26 20:53:43.072551680,-0.0002603718603495508,-0.0001296784175792709,9.720309753902256e-05
02/13/26 20:53:43.172527616,0.0001043294032569975,0.001033784239552915,-0.000437298760516569
02/13/26 20:53:43.272581376,0.0005813471507281065,-0.0007485611131414771,6.740086973877624e-05
02/13/26 20:53:43.372565248,-0.0009975886205211282,0.0009920804295688868,-0.0003352654457557946
02/13/26 20:53:43.472538880,-0.0005876953946426511,-0.000373302900698036,0.0001332032261416316
02/13/26 20:53:43.572592640,7.576808275189251e-05,-7.074655150063336e-05,-0.000518319196999073
02/13/26 20:53:43.672576000,-0.0002290477859787643,-0.0006298141670413315,-0.0002305044326931238
02/13/26 20:53:43.772550144,-0.0008928652387112379,-0.0003481839376036078,0.0001112367463065311
02/13/26 20:53:43.872601856,-0.0002386833803029731,0.001082908594980836,-0.0002349796413909644
02/13/26 20:53:43.972583424,-0.0004691731301136315,0.0003845157043542713,0.0002736548194661736
02/13/26 20:53:44.072554752,-0.002080695470795035,0.0004818340530619025,0.0001590839819982648
02/13/26 20:53:44.172611328,-0.0008568012854084373,0.0001396031002514064,0.0004771032254211605
02/13/26 20:53:44.272597248,5.936641537118703e-05,0.0003234175965189934,-0.0001482142688473687
02/13/26 20:53:44.372567808,-0.0008005377603694797,0.0002549961500335485,0.0001013720102491789
02/13/26 20:53:44.472622080,-3.499498416204005e-05,-1.32632558234036e-05,-5.00556780025363e-06
02/13/26 20:53:44.572607232,-3.718681546160951e-05,-0.0003493669210001826,4.111993621336296e-05
02/13/26 20:53:44.672576512,0.0008468693122267723,-0.0002883182605728507,-0.0005709286197088659
02/13/26 20:53:44.772630016,-0.0001647661556489766,0.001233057351782918,9.743776172399521e-05
02/13/26 20:53:44.872614400,-0.0008723441860638559,-0.0003115419822279364,-0.0001652953214943409
02/13/26 20:53:44.972582912,-0.0004507777339313179,7.683959847781807e-05,1.142080873250961e-05
02/13/26 20:53:45.072634368,-0.0002237684238934889,-5.372681698645465e-05,-0.0001377845765091479
02/13/26 20:53:45.172620032,-0.0003079232410527766,-0.0007493210723623633,0.0003108004748355597
02/13/26 20:53:45.272596736,-0.0001799816818675026,-1.700696884654462e-06,2.896157093346119e-05
02/13/26 20:53:45.372654848,0.000483213021652773,8.870474994182587e-05,-0.0004865745140705258
02/13/26 20:53:45.472641536,-0.0005047115264460444,0.0004293775709811598,-0.0003536713775247335
02/13/26 20:53:45.572616960,-0.0001738446444505826,0.0001782922481652349,0.0003126439405605197
02/13/26 20:53:45.672673536,0.0005517678218893707,0.0002358627098146826,0.0006442248122766614
02/13/26 20:53:45.772660224,-0.0005135440733283758,0.0007531322771683335,0.00032601403654553
02/13/26 20:53:45.872633856,0.0001616256195120513,0.0002930575283244252,-0.000316474586725235
02/13/26 20:53:45.972689408,-9.478536230744794e-05,0.0002467011800035834,-7.574727351311594e-05
02/13/26 20:53:46.072679680,-0.0008448252337984741,-0.0003050058148801327,-2.449950625305064e-05
02/13/26 20:53:46.172654080,-0.001062883296981454,0.001006551086902618,0.0002769898273982108
02/13/26 20:53:46.272708096,0.00116850296035409,-0.0001708711788523942,-0.0005792020820081234
02/13/26 20:53:46.372691712,0.0001595364738022909,1.718581188470125e-07,-0.0003387224569451064
02/13/26 20:53:46.472663296,7.482078217435628e-05,-0.0005294015281833708,0.0004886369570158422
02/13/26 20:53:46.572716800,-0.0004534768522717059,0.0004234599764458835,0.0001761107996571809
02/13/26 20:53:46.672700672,-0.001517523196525872,0.0005220514140091836,-0.0001336881978204474
02/13/26 20:53:46.772673280,-0.000492624647449702,-0.0001929801219375804,0.0002054010838037357
02/13/26 20:53:46.872725504,0.000103138736449182,-0.0001479945640312508,0.0004070877912454307
02/13/26 20:53:46.972706816,0.001095127430744469,-0.0002360647486057132,-0.0003358805261086673
02/13/26 20:53:47.072678144,5.306386083248071e-05,-0.000567943905480206,-8.720628102310002e-05
02/13/26 20:53:47.172731648,0.0002403131511528045,-0.0008261931361630559,-0.0003588051185943186
02/13/26 20:53:47.272711424,0.000491393031552434,0.000812148442491889,0.000356818811269477
02/13/26 20:53:47.372682496,9.636203321861103e-05,0.0001747783971950412,2.819740984705277e-05
02/13/26 20:53:47.472734208,0.0007127051940187812,0.001243782578967512,-0.000312830408802256
02/13/26 20:53:47.572719360,-0.0006531182443723083,0.0001402749039698392,0.0001012293214444071
02/13/26 20:53:47.672688128,-0.001090767094865441,0.0002767918631434441,5.892814078833908e-05
02/13/26 20:53:47.772739584,-0.0004608784802258015,0.0001400582841597497,-2.463296004862059e-05
02/13/26 20:53:47.872724480,5.67134702578187e-06,0.0003292545734439045,0.0004652574425563216
02/13/26 20:53:47.972693504,0.0005809909198433161,-0.0005448479205369949,3.129584365524352e-05
02/13/26 20:53:48.072743936,-9.688130376162007e-05,0.0002225249918410555,9.318454976892099e-05
02/13/26 20:53:48.172728320,6.334739737212658e-06,-0.0003472628886811435,-0.0002249907120130956
02/13/26 20:53:48.272694784,0.0002296736201969907,0.0005247763474471867,-0.0001992075267480686
02/13/26 20:53:48.372746496,-0.0002978455740958452,0.0003273728070780635,-0.0002869325398933142
02/13/26 20:53:48.472729344,-0.0002876993094105273,-0.0004466344253160059,0.0001467248948756605
02/13/26 20:53:48.572708096,0.0007889523403719068,0.000150476727867499,0.0002454141795169562
02/13/26 20:53:48.672764672,0.001077749766409397,0.0001765664492268115,3.452321470831521e-05
02/13/26 20:53:48.772752896,0.0004265297902747989,0.000261810899246484,0.000235345825785771
02/13/26 20:53:48.872726528,-0.0004847670206800103,-2.445920836180449e-05,7.973640458658338e-05
02/13/26 20:53:48.972782592,0.0009972574189305305,-0.0003645591496024281,-0.0001357831351924688
02/13/26 20:53:49.072767232,0.0004138576914556324,0.0002062685525743291,-0.0003412566729821265
02/13/26 20:53:49.172741120,0.000116806804726366,-0.0001154681376647204,0.0003519420279189944
02/13/26 20:53:49.272796672,-0.0006042907480150461,-0.0001749035727698356,-0.0002760856878012419
02/13/26 20:53:49.372783360,-0.0008293416467495263,-0.001194294774904847,-1.138683001045138e-05
02/13/26 20:53:49.472754944,2.823951945174485e-05,0.0002089454646920785,0.0001752567332005128
02/13/26 20:53:49.572807936,0.0004761001328006387,0.00104972836561501,0.0004795264103449881
02/13/26 20:53:49.672790016,0.0002732888387981802,0.0001949770958162844,0.0005459586973302066
02/13/26 20:53:49.772761344,0.0005969247431494296,-2.252643753308803e-05,0.0005398000939749181
02/13/26 20:53:49.872814336,-0.0008283578208647668,-0.0005241470644250512,-4.991087917005643e-05
02/13/26 20:53:49.972796416,0.001393398037180305,0.0004731700755655766,-0.0005117838736623526
02/13/26 20:53:50.072767744,6.908182695042342e-05,-0.0001291114022023976,5.263548518996686e-05
02/13/26 20:53:50.172819200,0.0005386796547099948,0.0006576566374860704,-0.0003245367552153766
02/13/26 20:53:50.272800768,0.0001154839992523193,9.483896428719163e-05,-0.0002031713374890387
02/13/26 20:53:50.372771840,-0.0002070374030154198,-0.0001975434133782983,-0.0006254613981582224
02/13/26 20:53:50.472822528,0.001767216483131051,0.0004907335387542844,0.0007431835401803255
02/13/26 20:53:50.572801280,-0.0003967834636569023,-0.0001125268245232292,-0.001046059420332313
02/13/26 20:53:50.672771328,-3.789932816289365e-05,-0.0003049177466891706,-0.0001249346823897213
02/13/26 20:53:50.772823040,0.0005717315361835063,0.0001072077357093804,-0.0003929050581064075
02/13/26 20:53:50.872807424,0.0005201718304306269,0.0004726691986434162,0.0001985061098821461
02/13/26 20:53:50.972776960,0.002703665057197213,-0.0004314831166993827,5.29004173586145e-05
02/13/26 20:53:51.072827904,0.002357800025492907,-0.0001517253695055842,3.787851892411709e-05
02/13/26 20:53:51.172810752,-0.002818909473717213,0.0003195283643435687,-0.0002473757485859096
02/13/26 20:53:51.272779264,-0.0003429078496992588,-0.0009311347967013717,0.0001524635154055431
02/13/26 20:53:51.372829952,0.0006972668925300241,0.0006614962476305664,4.472056025406346e-05
02/13/26 20:53:51.472813056,0.001322101568803191,0.0003501816827338189,1.59094634000212e-06
02/13/26 20:53:51.572779264,0.0001244940503966063,0.0003036877315025777,-0.0004279880085960031
02/13/26 20:53:51.672830208,0.0003770126204472035,0.0003071542596444488,-0.0001838168536778539
02/13/26 20:53:51.772813056,0.0001894800370791927,0.0005064026918262243,0.0003854454844258726
02/13/26 20:53:51.872781568,0.000454736320534721,-0.0007551938178949058,0.0005185228073969483
02/13/26 20:53:51.972834304,-0.0004928483394905925,0.0001414840226061642,0.0004314480465836823
02/13/26 20:53:52.072820224,-0.001549677574075758,-9.061782475328073e-05,-2.33583414228633e-05
02/13/26 20:53:52.172794880,-0.0009088930673897266,-0.0008951564086601138,0.000290378462523222
