Time,inertial-6286.188861:estLinearAccelX,inertial-6286.188861:estLinearAccelX:valid,inertial-6286.188861:estLinearAccelY,inertial-6286.188861:estLinearAccelY:valid,inertial-6286.188861:estLinearAccelZ,inertial-6286.188861:estLinearAccelZ:valid,inertial-6286.188861:estAngularRateX,inertial-6286.188861:estAngularRateX:valid,inertial-6286.188861:estAngularRateY,inertial-6286.188861:estAngularRateY:valid,inertial-6286.188861:estAngularRateZ,inertial-6286.188861:estAngularRateZ:valid
1773072703683354112,0.06070960313081741,1,-0.07120705395936966,1,-0.006363683380186558,1,0.006851010024547577,1,0.0006128292880021036,1,-0.000191826606169343,1
1773072703693897728,0.0200954508036375,1,-0.03803801909089088,1,0.06743723899126053,1,-0.00011101906420663,1,0.0003900403680745512,1,-0.0006110907415859401,1
1773072703704338432,-0.09457999467849731,1,0.007277051452547312,1,0.07112012803554535,1,-0.006265867035835981,1,-0.0009950941894203424,1,-0.0008297190070152283,1
1773072703714682624,-0.1198639646172523,1,0.03357759490609169,1,0.007867638021707535,1,-0.003179918974637985,1,-0.001028449041768909,1,-0.0002585058100521564,1
1773072703724926208,-0.01142880599945784,1,-0.008051606826484203,1,-0.01552746631205082,1,0.004078640602529049,1,-0.0001328659127466381,1,0.0002285724185639992,1
1773072703735068928,0.06691471487283707,1,-0.06324704736471176,1,0.02380561269819736,1,0.003261421341449022,1,0.0005203215405344963,1,-0.0003426109906286001,1
1773072703745112320,-0.001730639487504959,1,-0.01691510155797005,1,0.08714130520820618,1,-0.003427170217037201,1,0.0003368253528606147,1,-0.001113117788918316,1
1773072703755058688,-0.1218211054801941,1,0.04516930133104324,1,0.0971272736787796,1,-0.005631161388009787,1,-0.001274339505471289,1,-0.0006439326098188758,1
1773072703764906752,-0.1281726211309433,1,0.04575559124350548,1,0.0374995619058609,1,-0.0003045187913812697,1,-0.001757769845426083,1,-0.0002126053441315889,1
1773072703774659840,-0.02032999694347382,1,0.0003049843944609165,1,0.005045403260737658,1,0.006340512074530125,1,-0.0002698722528293729,1,0.0002616037963889539,1
1773072703784317952,0.05745606869459152,1,-0.05853687226772308,1,0.03532560169696808,1,0.003746853908523917,1,0.0001538798096589744,1,-0.0003736890794243664,1
1773072703793881600,-0.02501724287867546,1,-0.01942574977874756,1,0.05593075603246689,1,-0.004195356741547585,1,-0.0004330945666879416,1,-0.0009128507226705551,1
1773072703803351808,-0.1395419985055923,1,0.04271756112575531,1,0.05310917645692825,1,-0.006127537693828344,1,-0.0006897220737300813,1,-0.0006267398712225258,1
1773072703812728576,-0.1309625953435898,1,0.03496289253234863,1,0.02015691809356213,1,-0.0002488379832357168,1,-0.001317267306149006,1,9.789788600755855e-05,1
1773072703822029568,-0.02701773121953011,1,-0.01882254704833031,1,0.0109831839799881,1,0.005619744770228863,1,0.0005342578515410423,1,0.000179193404619582,1
1773072703832768512,0.04784752056002617,1,-0.05227779969573021,1,0.06199797242879868,1,0.00342813110910356,1,0.001242323080077767,1,-0.0005671434919349849,1
1773072703843404288,-0.04104835540056229,1,-0.01505140587687492,1,0.08196591585874557,1,-0.003862265963107347,1,7.83079449320212e-05,1,-0.001519057201221585,1
1773072703853936896,-0.1511474549770355,1,0.0452733114361763,1,0.05050662904977798,1,-0.004471499938517809,1,-0.0006645664689131081,1,-0.0006701339734718204,1
1773072703864369408,-0.123278982937336,1,0.03156094625592232,1,-0.008762173354625702,1,0.003130391472950578,1,-0.001381208305247128,1,0.0005083358846604824,1
1773072703874702080,-0.01869757473468781,1,-0.04062066227197647,1,-0.03374625742435455,1,0.009242591448128223,1,-2.549787313910201e-05,1,0.0003581095079425722,1
1773072703884933632,0.04314491525292397,1,-0.07379455864429474,1,0.02672746777534485,1,0.005971661768853664,1,0.001161645748652518,1,-0.0005295973387546837,1
1773072703895065600,-0.04028122872114182,1,-0.03829944133758545,1,0.07250341027975082,1,-0.003143667243421078,1,0.001160505111329257,1,-0.001074834493920207,1
1773072703905099008,-0.1324276179075241,1,0.01057772152125835,1,0.05581574887037277,1,-0.005808003712445498,1,0.000730522267986089,1,-0.0004127432475797832,1
1773072703915034112,-0.09452217817306519,1,0.008226476609706879,1,0.005599753465503454,1,0.0001069270074367523,1,0.00081141188275069,1,0.000177682057255879,1
1773072703924872448,0.005552763119339943,1,-0.0519336462020874,1,-0.0109742060303688,1,0.004766857251524925,1,0.001513005350716412,1,-2.26958145503886e-05,1
1773072703934616832,0.03691398352384567,1,-0.07207518815994263,1,0.03646815568208694,1,0.00257662171497941,1,0.0007687742472626269,1,-0.0004587833245750517,1
1773072703944265728,-0.05527825653553009,1,-0.02571103535592556,1,0.06334369629621506,1,-0.002965007210150361,1,-0.0002984373131766915,1,-0.0008248485974036157,1
1773072703953819648,-0.1432981342077255,1,0.01594973355531693,1,0.04139763861894608,1,-0.002089978195726871,1,-0.001169061637483537,1,-0.0004090879519935697,1
1773072703963292672,-0.07896058261394501,1,-0.01177112385630608,1,0.0023345488589257,1,0.004210631363093853,1,-0.0003370478516444564,1,0.0004029591218568385,1
1773072703972684032,0.05261630564928055,1,-0.07309864461421967,1,-0.002820382593199611,1,0.005161806475371122,1,0.001037574838846922,1,0.0002833826583810151,1
1773072703982134528,0.07605063170194626,1,-0.08132021874189377,1,0.03941626846790314,1,-0.001319858594797552,1,0.002308980794623494,1,-0.0006112351547926664,1
1773072703992840192,-0.03411505371332169,1,-0.01675703562796116,1,0.06517897546291351,1,-0.009313986636698246,1,0.00107176520396024,1,-0.0009035190450958908,1
1773072704003442688,-0.1346877962350845,1,0.03106702119112015,1,0.04222907871007919,1,-0.007287764456123114,1,-0.0003778176615014672,1,-0.0002954082447104156,1
1773072704013943808,-0.08403269201517105,1,0.001929988153278828,1,0.008173259906470776,1,0.002255825791507959,1,-0.0007322654710151255,1,0.0004607192822732031,1
1773072704024342016,0.03118161112070084,1,-0.0588635690510273,1,0.0243857130408287,1,0.006734352558851242,1,7.838576857466251e-05,1,5.962332215858623e-05,1
1773072704034638592,0.04377811774611473,1,-0.08333952724933624,1,0.07272773236036301,1,0.001894501503556967,1,7.541215018136427e-05,1,-0.000746820296626538,1
1773072704044835328,-0.05196794122457504,1,-0.02311738952994347,1,0.07480680197477341,1,-0.005556827876716852,1,-0.0006308612646535039,1,-0.001177110243588686,1
1773072704054931968,-0.1243311986327171,1,0.02241463214159012,1,0.01979321055114269,1,-0.005161304026842117,1,-0.001308830571360886,1,-0.0005450875614769757,1
1773072704064936960,-0.07155397534370422,1,0.003061973489820957,1,-0.03303147107362747,1,0.001273108879104257,1,-0.0005624137120321393,1,0.0001265994214918464,1
1773072704074849280,0.03553825244307518,1,-0.03725311160087585,1,-0.01404289621859789,1,0.004157511983066797,1,0.0006898923893459141,1,0.0001726259069982916,1
1773072704084665088,0.03791308403015137,1,-0.05483373627066612,1,0.04799086600542068,1,-0.0004508878337219357,1,0.0006121831829659641,1,-0.0006287113064900041,1
1773072704094384640,-0.06954548507928848,1,0.008116324432194233,1,0.06918609142303467,1,-0.00492853531613946,1,-0.0006326889269985259,1,-0.0008600883302278817,1
1773072704104011520,-0.137175515294075,1,0.04771183431148529,1,0.03973806649446487,1,-0.001061010058037937,1,-0.00118076940998435,1,-0.0002206311910413206,1
1773072704113543168,-0.08148530125617981,1,0.008851788938045502,1,-0.01122186612337828,1,0.006176209077239037,1,-0.0003226302505936474,1,0.0006627420661970973,1
1773072704122982144,0.03165842592716217,1,-0.04247837141156197,1,-0.01815073750913143,1,0.006857313681393862,1,0.001100294874049723,1,6.288004806265235e-05,1
1773072704132330496,0.03402450680732727,1,-0.05961504951119423,1,0.02365502156317234,1,-0.0001764940097928047,1,0.001298609655350447,1,-0.0006103483028709888,1
1773072704142194944,-0.08171184360980988,1,-0.004030350595712662,1,0.05605693161487579,1,-0.006290432997047901,1,0.0006663947133347392,1,-0.0009574809810146689,1
1773072704152872192,-0.1474310904741287,1,0.03925105929374695,1,0.05268091708421707,1,-0.004549458157271147,1,0.0005247467779554427,1,-0.0004460436757653952,1
1773072704163449600,-0.0829596221446991,1,0.0004019704647362232,1,0.02196392975747585,1,0.00198421673849225,1,0.0004108246066607535,1,0.0002404983242740855,1
1773072704173928192,0.03427549451589584,1,-0.05086442828178406,1,0.02657035365700722,1,0.003905500750988722,1,0.00117430416867137,1,-0.0001035239911288954,1
1773072704184304384,0.03501337766647339,1,-0.0593169629573822,1,0.0634654313325882,1,-0.00122887222096324,1,-5.731169949285686e-05,1,-0.0007402072660624981,1
1773072704194579456,-0.09242863953113556,1,0.007114365231245756,1,0.06584082543849945,1,-0.005753377918154001,1,-0.001219648402184248,1,-0.0009336054790765047,1
1773072704204754944,-0.1587419062852859,1,0.04445147886872292,1,0.03421186655759811,1,-0.001919648726470768,1,-0.00106302450876683,1,-0.0002935760130640119,1
1773072704214831616,-0.0851043164730072,1,0.003585410304367542,1,-0.01114543527364731,1,0.005189829505980015,1,-0.0003691151505336165,1,0.0005660639144480228,1
1773072704224817920,0.04277445748448372,1,-0.04622130841016769,1,0.007179101463407278,1,0.006173193454742432,1,0.001475983182899654,1,-6.942994514247403e-05,1
1773072704234708480,0.04223676770925522,1,-0.05791431665420532,1,0.06359811127185822,1,-0.001291057327762246,1,0.001609182567335665,1,-0.0008938731043599546,1
1773072704244503040,-0.09130240976810455,1,0.0186578594148159,1,0.07536109536886215,1,-0.007381428964436054,1,0.0007164149428717792,1,-0.001017526839859784,1
1773072704254202112,-0.1616320610046387,1,0.05572887510061264,1,0.04112309962511063,1,-0.003039041068404913,1,-0.0005417123902589083,1,-0.0001995544880628586,1
1773072704263806720,-0.09031122177839279,1,0.01519091613590717,1,-0.01050200313329697,1,0.005510665010660887,1,-0.0007391413091681898,1,0.000343157968018204,1
1773072704273316864,0.03583177179098129,1,-0.04348380863666534,1,0.01151820365339518,1,0.008158391341567039,1,0.0005564706516452134,1,-8.565457392251119e-06,1
1773072704282736128,0.0399172343313694,1,-0.06427479535341263,1,0.07568342983722687,1,0.001584900077432394,1,0.0001582465774845332,1,-0.0007533860625699162,1
1773072704292064512,-0.07670505344867706,1,0.003382508642971516,1,0.09020303934812546,1,-0.004880500491708517,1,-6.471148662967607e-05,1,-0.001093235332518816,1
1773072704302361344,-0.1300074756145477,1,0.04394388571381569,1,0.05658580362796783,1,-0.002947683911770582,1,-0.0001800429163267836,1,-0.0004460325872059911,1
1773072704313011712,-0.05547818541526794,1,0.003586011473089457,1,0.0001559755764901638,1,0.002984622260555625,1,0.0004662344581447542,1,0.0003169122501276433,1
1773072704323559168,0.06377734243869781,1,-0.04603040590882301,1,0.003929330967366695,1,0.00461685610935092,1,0.001279799966141582,1,-0.000426009763032198,1
1773072704334003712,0.03787161409854889,1,-0.05674854665994644,1,0.0514223538339138,1,-0.001000008080154657,1,0.0002991998044308275,1,-0.0009963249322026968,1
1773072704344346112,-0.1013603881001472,1,0.01026240643113852,1,0.07540363818407059,1,-0.004239645786583424,1,-0.0004497971385717392,1,-0.0009469041251577437,1
1773072704354592512,-0.1557094305753708,1,0.03529472649097443,1,0.05460366606712341,1,-2.271280391141772e-05,1,-0.001496320706792176,1,-5.867383879376575e-05,1
1773072704364738816,-0.0679226815700531,1,-0.01277872920036316,1,-0.006141289137303829,1,0.00549430912360549,1,-0.0004971729358658195,1,0.0004910004790872335,1
1773072704374786048,0.06775976717472076,1,-0.06595125049352646,1,-0.008730171248316765,1,0.005132975988090038,1,0.0009789374889805913,1,0.0001264490856556222,1
1773072704384737024,0.05068635195493698,1,-0.07189455628395081,1,0.01674375310540199,1,-0.002794756321236491,1,0.0009492529788985848,1,-0.0005873450427316129,1
1773072704394589952,-0.07707326114177704,1,0.004549953155219555,1,0.02743992395699024,1,-0.00662696547806263,1,0.0003459480067249388,1,-0.0008443163824267685,1
1773072704404347392,-0.1341823041439056,1,0.04246021807193756,1,0.01429356634616852,1,-0.0009566646767780185,1,-0.0002830588782671839,1,0.0003448209026828408,1
1773072704414008832,-0.05878676474094391,1,0.002753730397671461,1,-0.0002526730240788311,1,0.00720314122736454,1,0.0004869691911153495,1,0.0006453813402913511,1
1773072704423577856,0.05578257888555527,1,-0.05991478636860847,1,0.03199648484587669,1,0.007540601305663586,1,0.001180067425593734,1,0.0002848053409252316,1
1773072704433052160,0.02463676035404205,1,-0.06738877296447754,1,0.05947643518447876,1,-0.0002780032227747142,1,-3.918261791113764e-05,1,-0.0005189751391299069,1
1773072704442434048,-0.1054413765668869,1,0.002149202860891819,1,0.04691704362630844,1,-0.004558850079774857,1,-0.001170566771179438,1,-0.0006791404448449612,1
1773072704451724288,-0.1520350128412247,1,0.02343494445085526,1,0.0004929881542921066,1,-0.0009118168381974101,1,-0.001795239862985909,1,0.0001296552072744817,1
1773072704462464768,-0.05799481272697449,1,-0.01801507361233234,1,-0.04251400008797646,1,0.004365349188446999,1,-0.0007335474947467446,1,0.0004768826474901289,1
1773072704473103104,0.06521224230527878,1,-0.08198725432157516,1,-0.00680706650018692,1,0.003151637502014637,1,0.0006638191407546401,1,-0.000281900109257549,1
1773072704483639808,0.02578324265778065,1,-0.07205300033092499,1,0.05132555216550827,1,-0.004796147346496582,1,0.001039714785292745,1,-0.0008623339235782623,1
1773072704494080768,-0.1048264801502228,1,0.006187992636114359,1,0.08827910572290421,1,-0.008157220669090748,1,0.0009004262392409146,1,-0.001021802192553878,1
1773072704504421120,-0.1460677087306976,1,0.02649116516113281,1,0.06437943130731583,1,-0.002427319996058941,1,-0.0003222246014047414,1,0.0001894407032523304,1
1773072704514661376,-0.05238345637917519,1,-0.008520576171576977,1,0.0169779509305954,1,0.005365571472793818,1,0.000125871243653819,1,0.0003454047837294638,1
1773072704524801536,0.05096537247300148,1,-0.06550179421901703,1,0.03209927305579185,1,0.006713967304676771,1,0.0003326191217638552,1,-0.0003372866485733539,1
1773072704534842880,-0.0009037693962454796,1,-0.06274200975894928,1,0.05689956247806549,1,-0.000238942273426801,1,-0.0004324483452364802,1,-0.001058730878867209,1
1773072704544785152,-0.117196649312973,1,0.01114840991795063,1,0.06136700138449669,1,-0.003429186996072531,1,-0.001050144666805863,1,-0.001126590417698026,1
1773072704554632960,-0.1348347067832947,1,0.01801088638603687,1,0.03509056940674782,1,0.0001635414664633572,1,-0.001032146741636097,1,-8.735871233511716e-05,1
1773072704564387328,-0.03457823395729065,1,-0.01165425963699818,1,0.01722945459187031,1,0.003863336052745581,1,0.0011581169674173,1,0.0003905270423274487,1
1773072704574047232,0.06317360699176788,1,-0.06621251255273819,1,0.05028280988335609,1,0.0006913681863807142,1,0.002295458223670721,1,-0.0002735262969508767,1
1773072704583613952,0.0114560704678297,1,-0.04462827369570732,1,0.06738486886024475,1,-0.007029764354228973,1,0.00128379964735359,1,-0.0009748288430273533,1
1773072704593087488,-0.09969764947891235,1,0.03168938308954239,1,0.06080741807818413,1,-0.006074045319110155,1,-0.0001552318863105029,1,-0.00102704088203609,1
1773072704602469120,-0.1347651928663254,1,0.03919530287384987,1,0.03791510686278343,1,0.001256410265341401,1,-0.00118935527279973,1,-0.0003070490784011781,1
1773072704611959040,-0.04561919718980789,1,-0.006433310452848673,1,0.02362357079982758,1,0.006617300678044558,1,-8.628203067928553e-05,1,-3.924060001736507e-05,1
1773072704622666240,0.04694049060344696,1,-0.06290626525878906,1,0.03832805156707764,1,0.003516267519444227,1,1.713895835564472e-05,1,-0.0003291415050625801,1
1773072704633270016,-0.008012236095964909,1,-0.03784087300300598,1,0.04371988400816917,1,-0.004685193300247192,1,0.0001292129309149459,1,-0.001119589433073997,1
1773072704643770880,-0.117828369140625,1,0.02536509744822979,1,0.03375351801514626,1,-0.006766106467694044,1,-0.0004208709287922829,1,-0.000778917339630425,1
1773072704654168576,-0.1379926353693008,1,0.04135891795158386,1,-0.004836731124669313,1,-0.00166148052085191,1,-0.0006409587804228067,1,0.0003222397645004094,1
1773072704664478208,-0.01927400939166546,1,-0.005178895778954029,1,-0.0259094350039959,1,0.003973565530031919,1,0.0006793337524868548,1,0.0003442158631514758,1
1773072704674687488,0.06477586179971695,1,-0.05587037652730942,1,0.004552893806248903,1,0.003094934625551105,1,0.0008424954721704125,1,3.992878191638738e-06,1
1773072704684797440,0.007987199351191521,1,-0.02117802202701569,1,0.04910952597856522,1,-0.003194664604961872,1,0.0005720994668081403,1,-0.0008103110012598336,1
1773072704694808320,-0.1090385466814041,1,0.03280727937817574,1,0.05959273129701614,1,-0.00441151624545455,1,-0.0006618191255256534,1,-0.0003277472278568894,1
1773072704704721920,-0.1334289163351059,1,0.04665790870785713,1,0.01780287176370621,1,0.0008547828183509409,1,-0.001228964538313448,1,0.0001516299817012623,1
1773072704714538240,-0.01608020067214966,1,-0.0030167605727911,1,-0.007560411468148232,1,0.006046704482287169,1,-7.549162546638399e-06,1,0.0003973696439061314,1
1773072704724259328,0.06006569787859917,1,-0.0617121234536171,1,0.0058126007206738,1,0.003880862379446626,1,0.0002325163222849369,1,-6.331568874884397e-05,1
1773072704733885952,0.009722969494760036,1,-0.02322325110435486,1,0.04294007271528244,1,-0.003031416330486536,1,7.886577805038542e-05,1,-0.0007786947535350919,1
1773072704743418368,-0.1103181913495064,1,0.02488380670547485,1,0.05259789898991585,1,-0.004440754186362028,1,-0.001160541665740311,1,-0.0003268408472649753,1
1773072704752858368,-0.1277748048305511,1,0.04172436892986298,1,0.0199245773255825,1,0.001501627499237657,1,-0.0008562141447328031,1,9.172386489808559e-05,1
1773072704762204928,0.00304288137704134,1,-0.01308290101587772,1,0.00993729755282402,1,0.006493542809039354,1,0.0001651959610171616,1,0.0004348853253759444,1
1773072704772067584,0.07836118340492249,1,-0.07002629339694977,1,0.03788955882191658,1,0.003377918619662523,1,0.0009306881693191826,1,-0.0003716968931257725,1
1773072704782742528,0.0242803692817688,1,-0.03826664388179779,1,0.07124719768762589,1,-0.003142727306112647,1,0.0004163217381574214,1,-0.001100931782275438,1
1773072704793318400,-0.1131407022476196,1,0.009375939145684242,1,0.06070150062441826,1,-0.003646933706477284,1,-0.001271054847165942,1,-0.0008122557774186134,1
1773072704803794688,-0.1400834918022156,1,0.02855934388935566,1,0.02439077198505402,1,0.002862755674868822,1,-0.001107722986489534,1,-0.0001264846068806946,1
1773072704814175488,-0.02589709311723709,1,-0.02855051122605801,1,0.01507848687469959,1,0.007611747831106186,1,-0.0004081752558704466,1,0.0004389075620565563,1
1773072704824460288,0.04818055406212807,1,-0.08572989702224731,1,0.03322931751608849,1,0.002754431450739503,1,0.000566778879147023,1,-0.0002293990255566314,1
1773072704834652416,-0.005012253299355507,1,-0.04741393402218819,1,0.05828322470188141,1,-0.005464593414217234,1,0.0004476942704059184,1,-0.0008468208834528923,1
1773072704844748032,-0.1311773061752319,1,0.01138689741492271,1,0.04784283041954041,1,-0.006718366872519255,1,-0.0007502007065340877,1,-0.0005867488798685372,1
1773072704854748416,-0.1390921473503113,1,0.03213455528020859,1,0.01470516808331013,1,-0.0005982273141853511,1,-0.0006238088244572282,1,0.0003682225942611694,1
1773072704864660224,-0.03831479698419571,1,-0.02748432755470276,1,0.009451654739677906,1,0.004192601889371872,1,0.000281902146525681,1,0.0008563176961615682,1
1773072704874480128,0.03191881999373436,1,-0.07445034384727478,1,0.03634074330329895,1,0.001539622433483601,1,0.0003948501544073224,1,-0.0001784091291483492,1
1773072704884207616,-0.00960165448486805,1,-0.05668246746063232,1,0.06946521997451782,1,-0.00272042048163712,1,-0.0004012524150311947,1,-0.0005658793961629272,1
1773072704893846528,-0.1266688704490662,1,0.00389174185693264,1,0.06937258690595627,1,-0.002896124962717295,1,-0.001135056838393211,1,-0.0005413637263700366,1
1773072704903396608,-0.1393806636333466,1,0.02527444064617157,1,0.04249207675457001,1,0.001823493745177984,1,-0.0005686031654477119,1,-1.961262023542076e-05,1
1773072704912869376,-0.03854948654770851,1,-0.03009955771267414,1,0.009128641337156296,1,0.003876315429806709,1,0.0006675906479358673,1,0.0005153328529559076,1
1773072704922258688,0.05116702616214752,1,-0.06506197899580002,1,0.001177391037344933,1,-4.823552444577217e-06,1,0.001574359252117574,1,-0.0003466190828476101,1
1773072704932575232,0.001339280977845192,1,-0.0480375736951828,1,0.03078857995569706,1,-0.005758815910667181,1,0.0006415884126909077,1,-0.00092486193170771,1
1773072704943226112,-0.132957711815834,1,0.02458528429269791,1,0.04750657826662064,1,-0.006173221860080957,1,3.012905835930724e-05,1,-0.0004753670655190945,1
1773072704953772544,-0.1470128744840622,1,0.04781408980488777,1,0.03183722496032715,1,-4.97233122587204e-05,1,-0.0002938953693956137,1,0.0001746533234836534,1
1773072704964218112,-0.03966717794537544,1,-0.01139414310455322,1,-0.004271829500794411,1,0.004040823318064213,1,0.0004324444162193686,1,0.0005897118826396763,1
1773072704974568192,0.06455583870410919,1,-0.05657130852341652,1,0.0005466535221785307,1,0.002587294671684504,1,0.001481847604736686,1,-8.713969873497263e-05,1
1773072704984817664,0.03258204460144043,1,-0.05184515193104744,1,0.02693751081824303,1,-0.003195190569385886,1,0.0008851056918501854,1,-0.0004332653188612312,1
1773072704994965760,-0.08969403058290482,1,0.01929753646254539,1,0.03262226283550262,1,-0.004141415935009718,1,0.000668719585519284,1,-0.0006108317757025361,1
1773072705005016320,-0.1147355437278748,1,0.03988350927829742,1,0.02859224192798138,1,0.00129595585167408,1,0.001319438684731722,1,9.903225873131305e-05,1
1773072705014968576,-0.03109993040561676,1,0.002182378433644772,1,0.02874325402081013,1,0.005787191912531853,1,0.001584273879416287,1,9.747642616275698e-05,1
1773072705024822272,0.0697459951043129,1,-0.06747263669967651,1,0.04530990123748779,1,0.004281519446521997,1,0.001759724109433591,1,-0.0004540717345662415,1
1773072705034581760,0.03183279559016228,1,-0.05149206146597862,1,0.06474357098340988,1,-0.002161851851269603,1,-0.0002872322802431881,1,-0.001026424346491694,1
1773072705044245248,-0.1057709753513336,1,0.02252492308616638,1,0.06746930629014969,1,-0.003687270916998386,1,-0.0006698323995806277,1,-0.001035566092468798,1
1773072705053814528,-0.1392853856086731,1,0.04137390106916428,1,0.03612786903977394,1,0.0005334510933607817,1,-0.001504780724644661,1,-0.0001333689433522522,1
1773072705063288832,-0.04961280152201653,1,-0.005869927816092968,1,-0.01874538324773312,1,0.003844128688797355,1,-0.0005772208678536117,1,0.0001139504092861898,1
1773072705072671744,0.07324843108654022,1,-0.06370307505130768,1,-0.01356587372720242,1,0.001853585592471063,1,0.0008500783587805927,1,-0.0006539882160723209,1
1773072705082116096,0.04140795767307281,1,-0.05720827355980873,1,0.03708399087190628,1,-0.004868334624916315,1,0.001019828021526337,1,-0.001216946402564645,1
1773072705092852480,-0.08190006017684937,1,0.01854100078344345,1,0.0759434700012207,1,-0.007026699837297201,1,0.0006310001481324434,1,-0.001200608676299453,1
1773072705103486976,-0.1414760053157806,1,0.049892358481884,1,0.06526999920606613,1,-0.0029415562748909,1,0.0003210939466953278,1,-0.0002867684233933687,1
1773072705114020608,-0.0599384717643261,1,0.01534548401832581,1,0.02998688630759716,1,0.003143781796097755,1,0.0008436660282313824,1,-8.851484381011687e-06,1
1773072705124452352,0.0510806143283844,1,-0.05835811048746109,1,0.02157553099095821,1,0.004080583341419697,1,0.000180246599484235,1,3.572684727259912e-05,1
1773072705134786816,0.01440471038222313,1,-0.05930786579847336,1,0.0366896316409111,1,-3.851641668006778e-05,1,-0.001093369908630848,1,-0.0003559770993888378,1
1773072705145021952,-0.1014450713992119,1,-0.0004973160102963448,1,0.05037625879049301,1,-0.002228884492069483,1,-0.001489525893703103,1,-0.000424949248554185,1
1773072705155159552,-0.1618774831295013,1,0.0376293957233429,1,0.03671314939856529,1,0.001085196156054735,1,-0.001555532682687044,1,0.0001092362144845538,1
1773072705165199360,-0.05980439111590385,1,0.004337787628173828,1,0.0116413626819849,1,0.002969638910144567,1,0.001236762851476669,1,0.0007514709141105413,1
1773072705175143424,0.05674424394965172,1,-0.06050598993897438,1,0.00696440227329731,1,-5.631969543173909e-05,1,0.001834475784562528,1,0.0006572058191522956,1
1773072705184990976,0.04067465662956238,1,-0.05909911170601845,1,0.0230284221470356,1,-0.005596966482698917,1,0.002006901195272803,1,-0.0001298647839576006,1
1773072705194747904,-0.07636715471744537,1,0.01072963140904903,1,0.05239104107022285,1,-0.005099861416965723,1,0.0002359099016757682,1,-0.0001963649847311899,1
1773072705204416000,-0.1592700481414795,1,0.05007792636752129,1,0.06300345063209534,1,0.001029271283186972,1,0.0001009594125207514,1,0.0002834211336448789,1
1773072705213991424,-0.08690682053565979,1,0.01694332994520664,1,0.05144003033638,1,0.006542532239109278,1,0.0006664696848019958,1,0.0006819698610343039,1
1773072705223474944,0.02657857909798622,1,-0.06192850694060326,1,0.03415758162736893,1,0.0051963129080832,1,0.0004986361018382013,1,0.0003673855098895729,1
1773072705232867584,0.03482228890061378,1,-0.06796421110630035,1,0.03572180867195129,1,-0.0003878552815876901,1,0.0002722380449995399,1,-0.0004587596049532294,1
1773072705242318592,-0.08302436769008636,1,-0.01278290338814259,1,0.05056476220488548,1,-0.003568946616724133,1,-0.0006639623316004872,1,-0.0005801027873530984,1
1773072705253017088,-0.1630258858203888,1,0.04119928181171417,1,0.03343282639980316,1,-0.002301982371136546,1,-0.0001989179145311937,1,-0.0001858488540165126,1
1773072705263613440,-0.08293625712394714,1,0.01165019534528255,1,-0.01323891617357731,1,0.001658434397540987,1,0.0005750181735493243,1,0.0002378915087319911,1
1773072705274109696,0.04335499927401543,1,-0.06083927303552628,1,-0.03560921177268028,1,0.002061573090031743,1,0.001511622918769717,1,-0.0001666689931880683,1
1773072705284505600,0.05088682845234871,1,-0.06483286619186401,1,0.005398473236709833,1,-0.0006459377473220229,1,0.0007444971124641597,1,-0.0008598059648647904,1
1773072705294799872,-0.07929780334234238,1,-0.006232880521565676,1,0.05665439739823341,1,-0.002703336533159018,1,-0.0005004423437640071,1,-0.0008914946229197085,1
1773072705305001216,-0.1644495874643326,1,0.05532468855381012,1,0.05736982449889183,1,-0.000295531062874943,1,-0.0009592450223863125,1,-0.0006742629921063781,1
1773072705315106048,-0.09937603026628494,1,0.01272397674620152,1,0.01035350374877453,1,0.003942947369068861,1,-0.0003973639977630228,1,0.0002310113632120192,1
1773072705325113088,0.03111867047846317,1,-0.06266608089208603,1,-0.02334551699459553,1,0.004030683077871799,1,0.0003568306565284729,1,-7.782956527080387e-05,1
1773072705335024640,0.0618581585586071,1,-0.07706871628761292,1,0.000525372102856636,1,0.0003120652982033789,1,0.0004977880162186921,1,-0.0008598690037615597,1
1773072705344840192,-0.0560229979455471,1,-0.02308807894587517,1,0.04593374207615852,1,-0.003938408102840185,1,-0.0001064647804014385,1,-0.001295211259275675,1
1773072705354561024,-0.1412649899721146,1,0.03861171007156372,1,0.05596819892525673,1,-0.002749584149569273,1,3.606644168030471e-05,1,-0.000733368971850723,1
1773072705364188928,-0.08198726922273636,1,0.01277138479053974,1,0.02528054639697075,1,0.00156992650590837,1,0.0008311084238812327,1,-5.904476711293682e-05,1
1773072705373723392,0.05020146816968918,1,-0.04884837195277214,1,0.006982677616178989,1,0.002135976683348417,1,0.001444955240003765,1,2.066637534881011e-05,1
1773072705383164416,0.07983311265707016,1,-0.08052573353052139,1,0.03091646358370781,1,-0.001382424961775541,1,0.0005018210504204035,1,-0.0004221641283947974,1
1773072705392512512,-0.04114567488431931,1,-0.0214899368584156,1,0.06691025197505951,1,-0.003656287910416722,1,-0.0006314079510048032,1,-0.0006985237705521286,1
1773072705402373888,-0.1352458596229553,1,0.03159464150667191,1,0.08246373385190964,1,-0.0006764992140233517,1,-0.001121908077038825,1,-2.676591248018667e-05,1
1773072705413042432,-0.08725075423717499,1,0.01029833219945431,1,0.04992204904556274,1,0.003784390399232507,1,-0.0004885216476395726,1,0.00054792535956949,1
1773072705423609088,0.04825468361377716,1,-0.05132982507348061,1,0.03230063989758492,1,0.003762725042179227,1,0.00135756388772279,1,0.0003159431216772646,1
1773072705434076928,0.07620419561862946,1,-0.08074573427438736,1,0.04926855489611626,1,-0.001834182417951524,1,0.001142137101851404,1,-0.0005888020968995988,1
1773072705444444416,-0.03797434642910957,1,-0.005338456481695175,1,0.06936106085777283,1,-0.005509194917976856,1,5.988608609186485e-05,1,-0.0009642045479267836,1
1773072705454716928,-0.1384328901767731,1,0.0558457039296627,1,0.06753946095705032,1,-0.002088940003886819,1,-0.0004245545715093613,1,-0.0002867872244678438,1
1773072705464893184,-0.1068537533283234,1,0.0350392684340477,1,0.02993854880332947,1,0.003390687517821789,1,-0.0006106587243266404,1,0.0003247340791858733,1
1773072705474971648,0.01778560131788254,1,-0.02989267185330391,1,0.003345707897096872,1,0.005624311976134777,1,-0.0004494852619245648,1,0.0003239873622078449,1
1773072705484954624,0.04265233874320984,1,-0.0749945342540741,1,0.01806985959410667,1,0.002017821883782744,1,-0.0006572534330189228,1,-0.0002884109271690249,1
1773072705494842880,-0.05647997930645943,1,-0.02153096906840801,1,0.0496172308921814,1,-0.002681110287085176,1,-0.001549927867017686,1,-0.0008871253812685609,1
1773072705504641792,-0.1521065384149551,1,0.03007997758686543,1,0.05515475943684578,1,-0.002769816666841507,1,-0.001591377076692879,1,-0.0001920620852615684,1
1773072705514348800,-0.1118266955018044,1,0.02438803017139435,1,0.02300478331744671,1,-7.079570787027478e-05,1,-0.0002504265576135367,1,0.000137637704028748,1
1773072705523962624,0.0257471576333046,1,-0.04441254213452339,1,-0.007641303818672895,1,0.00058527517830953,1,0.0008267629309557378,1,-7.296599505934864e-06,1
1773072705533483008,0.05658992007374763,1,-0.07063548266887665,1,-0.001585665391758084,1,-0.001803284627385437,1,0.0004643122083507478,1,-0.0003726698050741106,1
1773072705542909952,-0.05089229345321655,1,-0.0153279472142458,1,0.04815264791250229,1,-0.003335853107273579,1,-0.0002636528806760907,1,-0.0006158460746519268,1
1773072705552245248,-0.1613511890172958,1,0.04167723283171654,1,0.06408711522817612,1,-0.001011547399684787,1,-0.001138612627983093,1,-0.0003741476102732122,1
1773072705562692352,-0.1285597532987595,1,0.03127625957131386,1,0.02887909859418869,1,0.004789312835782766,1,-0.0005393360042944551,1,0.0001823243364924565,1
1773072705573339904,0.007772406563162804,1,-0.05332912504673004,1,-0.00865798257291317,1,0.005807615350931883,1,-5.817299825139344e-05,1,5.044333738624118e-05,1
1773072705583885824,0.04553761705756187,1,-0.07645681500434875,1,-0.01838409155607224,1,0.0008499627001583576,1,0.0004869890981353819,1,-0.0003373542567715049,1
1773072705594330880,-0.04560127109289169,1,-0.02731450833380222,1,0.008435741998255253,1,-0.00363041739910841,1,-0.0001041592986439355,1,-0.0004463294171728194,1
1773072705604679936,-0.1564759314060211,1,0.03202459588646889,1,0.01720626465976238,1,-0.003432568162679672,1,0.000119006508612074,1,-0.0001801472099032253,1
1773072705614930944,-0.1137832924723625,1,0.03701037541031837,1,0.006690336391329765,1,0.001387080759741366,1,0.0008594214450567961,1,0.0001120368397096172,1
1773072705625082624,0.01554768905043602,1,-0.03745033219456673,1,0.008092302829027176,1,0.003201158484444022,1,0.001975228078663349,1,5.625648191198707e-05,1
1773072705635137280,0.06043626740574837,1,-0.06116427481174469,1,0.03431276604533195,1,-0.0001893125590868294,1,0.001615095883607864,1,-0.0003749434254132211,1
1773072705645095168,-0.03653956204652786,1,-0.009856803342700005,1,0.06730751693248749,1,-0.002781287534162402,1,0.000168035359820351,1,-0.0005868030712008476,1
1773072705654956800,-0.1450820863246918,1,0.05230904370546341,1,0.06654851883649826,1,-0.0008918537641875446,1,-0.0007888491381891072,1,-0.0003169011033605784,1
1773072705664730112,-0.105604462325573,1,0.03636243939399719,1,0.0280003733932972,1,0.003963122144341469,1,-0.0003149352269247174,1,0.0003885392798110843,1
1773072705674414848,0.01868759095668793,1,-0.03910025954246521,1,-0.008100629784166813,1,0.004833927843719721,1,0.0003939875459764153,1,4.575999992084689e-05,1
1773072705684005632,0.07742856442928314,1,-0.07232128083705902,1,0.01091763470321894,1,0.001049898681230843,1,0.0006791378255002201,1,-0.0002978526754304767,1
1773072705693501952,-0.02168864011764526,1,-0.03011678159236908,1,0.05984356254339218,1,-0.004078762605786324,1,0.0001292282540816814,1,-0.0004707154585048556,1
1773072705702905856,-0.1355137526988983,1,0.03847707062959671,1,0.08909367024898529,1,-0.004518925212323666,1,0.0001935933396453038,1,-0.0004025636008009315,1
1773072705712369664,-0.109760083258152,1,0.03221098333597183,1,0.06537853926420212,1,-7.015140727162361e-05,1,0.0002468301099725068,1,0.0001713624078547582,1
1773072705723097344,0.01229436881840229,1,-0.03316653519868851,1,0.02759283594787121,1,0.003055812325328588,1,0.00055029580835253,1,0.0003120333421975374,1
1773072705733724160,0.07021118700504303,1,-0.07142143696546555,1,0.03804385289549828,1,0.0019875334110111,1,-0.0003564767248462886,1,-0.0002755688037723303,1
1773072705744252160,-0.03159976005554199,1,-0.03190793842077255,1,0.07219105213880539,1,-0.0009985150536522269,1,-0.001798935583792627,1,-0.0009082321194000542,1
1773072705754681088,-0.1387338489294052,1,0.03115738369524479,1,0.08096250146627426,1,-0.0001991988101508468,1,-0.002120620803907514,1,-0.000632924260571599,1
1773072705765013504,-0.107531875371933,1,0.02163689769804478,1,0.04055168852210045,1,0.00350237125530839,1,-0.001327244797721505,1,6.80669181747362e-05,1
1773072705775245824,0.01733159460127354,1,-0.03852780163288116,1,-0.001716389437206089,1,0.004511414095759392,1,0.0003112615668214858,1,-5.583226447924972e-05,1
1773072705785382400,0.07005544006824493,1,-0.08613478392362595,1,0.001999767264351249,1,0.0005160977598279715,1,0.0004921166691929102,1,-0.0001744002511259168,1
1773072705795430912,-0.02719195187091827,1,-0.03339172154664993,1,0.03042193688452244,1,-0.004077648743987083,1,-8.378727943636477e-05,1,-0.00044654865632765,1
1773072705805384448,-0.1427475661039352,1,0.019580302760005,1,0.04972823709249496,1,-0.00327098579145968,1,-0.0008318822365254164,1,-0.0005133135127834976,1
1773072705815243264,-0.1323619484901428,1,0.015484350733459,1,0.0362430028617382,1,0.001903172582387924,1,-3.192781878169626e-05,1,-0.000192497915122658,1
1773072705825009152,0.003180618397891521,1,-0.05015831813216209,1,0.01703163795173168,1,0.003237009979784489,1,0.0006041055894456804,1,-2.028087328653783e-05,1
1773072705834682112,0.06205758824944496,1,-0.09363323450088501,1,0.01501697674393654,1,-0.0007002989295870066,1,0.0005215107230469584,1,-0.0002366540575167164,1
1773072705844262144,-0.02256042882800102,1,-0.04105840623378754,1,0.04278502240777016,1,-0.005469812080264091,1,5.799606879008934e-05,1,-0.0007446451345458627,1
1773072705853753344,-0.1419694274663925,1,0.02937394753098488,1,0.04345970973372459,1,-0.005056844558566809,1,-0.0007274819072335958,1,-0.0001973207399714738,1
1773072705863155200,-0.1247869655489922,1,0.03399855270981789,1,0.004930750466883183,1,0.0009289332665503025,1,-0.0004597471852321178,1,9.667382255429402e-05,1
1773072705872615424,0.006602540612220764,1,-0.03326282277703285,1,-0.01951460167765617,1,0.004914406221359968,1,0.0007403233321383595,1,0.0003118944878224283,1
1773072705883311872,0.05901153758168221,1,-0.0766017884016037,1,0.0002928483299911022,1,0.002617549849674106,1,0.000517575885169208,1,-0.0002981674042530358,1
1773072705893909760,-0.02331713400781155,1,-0.02086386643350124,1,0.0498884879052639,1,-0.001887042657472193,1,-8.698031888343394e-05,1,-0.0007281029247678816,1
1773072705904410880,-0.1352192759513855,1,0.03544843196868896,1,0.06240915507078171,1,-0.002517175395041704,1,-0.0005405305419117212,1,-0.0003569071704987437,1
1773072705914813952,-0.1170319020748138,1,0.04511790350079536,1,0.02517557702958584,1,0.001496388926170766,1,0.0003746083821170032,1,0.0001273747475352138,1
1773072705925122304,0.01785091124475002,1,-0.02656218037009239,1,-0.007187951356172562,1,0.002868330106139183,1,0.001428295625373721,1,0.0003344113938510418,1
1773072705935335680,0.06621894985437393,1,-0.06282941251993179,1,0.007658891379833221,1,-0.0001509289722889662,1,0.0009495976264588535,1,-0.0002313002041773871,1
1773072705945453312,-0.03667519241571426,1,-0.01194192469120026,1,0.05819468200206757,1,-0.003494681557640433,1,-0.0002432077599223703,1,-0.001044073607772589,1
1773072705955476992,-0.1658843159675598,1,0.03607049211859703,1,0.08640322089195251,1,-0.002857545157894492,1,-0.0008677025325596333,1,-0.0004104598192498088,1
1773072705965413376,-0.1267809271812439,1,0.04107873141765594,1,0.05271977558732033,1,0.002619128674268723,1,-0.0005140967550687492,1,1.388848249916919e-05,1
1773072705975257344,0.01182864140719175,1,-0.03953145071864128,1,0.01138086710125208,1,0.004981016274541616,1,0.0005797884077765048,1,0.0003190848510712385,1
1773072705985009152,0.06954547762870789,1,-0.08192345499992371,1,0.02016711048781872,1,0.0005978200933896005,1,0.00113421177957207,1,-0.000606392219197005,1
1773072705994671616,-0.01980019360780716,1,-0.0323224849998951,1,0.048143669962883,1,-0.004452532157301903,1,0.0003769768518395722,1,-0.0005991447251290083,1
1773072706004243200,-0.1410634517669678,1,0.03127312287688255,1,0.05418499559164047,1,-0.003933787811547518,1,0.0001765195047482848,1,-0.0006112830596975982,1
1773072706013721856,-0.1185832247138023,1,0.04192638397216797,1,0.04168257117271423,1,0.002008358249440789,1,0.0002907587040681392,1,-0.0002507713506929576,1
1773072706023116544,-0.002551267854869366,1,-0.0261877067387104,1,0.0254453606903553,1,0.004718373529613018,1,0.001373675535432994,1,0.0001200279293698259,1
1773072706033151232,0.05823507532477379,1,-0.06107545644044876,1,0.03447782248258591,1,0.002306957729160786,1,0.001194335054606199,1,-0.0003156520833726972,1
1773072706043811072,-0.03785066679120064,1,-0.01722267270088196,1,0.05982449278235435,1,-0.001391171012073755,1,-0.0002475185901857913,1,-0.0004909627605229616,1
1773072706054367488,-0.1601831912994385,1,0.04817107692360878,1,0.05613084509968758,1,-0.0003939530870411545,1,-0.0009950734674930573,1,-0.0003289494488853961,1
1773072706064822272,-0.1242302432656288,1,0.03506715595722198,1,0.01066196523606777,1,0.004825842101126909,1,-0.0010688939364627,1,7.3450748459436e-05,1
1773072706075173376,0.01964926160871983,1,-0.03434685990214348,1,-0.03314784169197083,1,0.006807468365877867,1,0.0002088678884319961,1,-0.0002479716204106808,1
1773072706085423616,0.09093930572271347,1,-0.07692712545394897,1,-0.01372052729129791,1,0.002469799248501658,1,0.002089621499180794,1,-0.0007980717928148806,1
1773072706095579392,-0.01439209096133709,1,-0.03225438669323921,1,0.04443253576755524,1,-0.004123636055737734,1,0.001133577316068113,1,-0.0009670520084910095,1
1773072706105642752,-0.1459071487188339,1,0.02854423969984055,1,0.08057807385921478,1,-0.005474584177136421,1,0.000552687153685838,1,-0.0008235779823735356,1
1773072706115607296,-0.1233858466148376,1,0.02688836865127087,1,0.05779821425676346,1,-0.0006835780222900212,1,7.299217395484447e-05,1,1.94247295439709e-05,1
1773072706125475072,0.001619737595319748,1,-0.04230353981256485,1,0.01466662995517254,1,0.003370739286765456,1,0.0006199864437803626,1,5.123250593896955e-05,1
1773072706135247360,0.0605970174074173,1,-0.08352617919445038,1,0.01666811294853687,1,0.002601169515401125,1,-9.026787301991135e-05,1,-0.0004533958854153752,1
1773072706144922624,-0.03875621780753136,1,-0.04005151614546776,1,0.04261238127946854,1,-0.0006486786296591163,1,-0.001341755501925945,1,-0.0007588898297399282,1
1773072706154503680,-0.1390048563480377,1,0.02991476841270924,1,0.03679137676954269,1,-0.001184760476462543,1,-0.001170456525869668,1,-0.0003863181918859482,1
1773072706163992320,-0.09632942080497742,1,0.02240236103534698,1,-0.0003652756568044424,1,0.002933242823928595,1,-2.257304731756449e-05,1,0.0004282188892830163,1
1773072706173388800,0.04289717227220535,1,-0.04096708446741104,1,-0.01147932931780815,1,0.003859184216707945,1,0.001898014103062451,1,0.0002884260611608624,1
1773072706182693632,0.08177502453327179,1,-0.08183012157678604,1,0.02566332928836346,1,-0.001300849718973041,1,0.001721636508591473,1,7.329881555051543e-06,1
1773072706193132544,-0.03576045483350754,1,-0.0305950902402401,1,0.069722019135952,1,-0.005628012586385012,1,-4.558841465041041e-05,1,-0.0006742276600562036,1
1773072706203776256,-0.1478133201599121,1,0.04398664087057114,1,0.07530833035707474,1,-0.004380647093057632,1,-0.002174684777855873,1,-0.0005109320627525449,1
1773072706214317824,-0.1339515000581741,1,0.02624263428151608,1,0.04317143931984901,1,0.001680489862337708,1,-0.00173098046798259,1,-0.0002807089185807854,1
1773072706224756736,0.01256963796913624,1,-0.04557111486792564,1,0.02088313177227974,1,0.003537601558491588,1,-0.001247824518941343,1,-0.0004157817747909576,1
1773072706235093504,0.05780414119362831,1,-0.07714568823575974,1,0.01546713337302208,1,-0.001880041556432843,1,-0.0005596998380497098,1,-0.0009039470460265875,1
1773072706245329408,-0.03652965277433395,1,-0.02173198387026787,1,0.03391152620315552,1,-0.006968314293771982,1,-0.0005707448581233621,1,-0.001233161543495953,1
1773072706255465216,-0.1400067806243896,1,0.04594502970576286,1,0.03954942896962166,1,-0.005793622694909573,1,-0.0009572485578246415,1,-0.0003560407494660467,1
1773072706265506304,-0.1089610606431961,1,0.03444460034370422,1,0.01877836883068085,1,0.001103685237467289,1,0.0005375108448788524,1,0.0001047364057740197,1
1773072706275463168,0.02527628652751446,1,-0.02812358178198338,1,0.02042960003018379,1,0.005554156843572855,1,0.001007861574180424,1,0.000234125938732177,1
1773072706285324032,0.06516150385141373,1,-0.07434301823377609,1,0.04987749457359314,1,0.003123574191704392,1,0.0007992801256477833,1,-0.0002413541951682419,1
1773072706295087872,-0.03511191159486771,1,-0.01289856154471636,1,0.08259917795658112,1,-9.384976874571294e-05,1,-0.0007618960225954652,1,-0.0007796806748956442,1
1773072706304760064,-0.1408312618732452,1,0.03101971559226513,1,0.0759999081492424,1,0.0001767825451679528,1,-0.00131212966516614,1,-7.574453775305301e-05,1
1773072706314338816,-0.09576325118541718,1,0.02146019041538239,1,0.0265643522143364,1,0.003699959488585591,1,-0.0006961134495213628,1,0.0002899118699133396,1
1773072706323825664,0.04104199260473251,1,-0.04700475186109543,1,-0.01790540665388107,1,0.003939454909414053,1,0.0005180029547773302,1,0.0004024718655273318,1
1773072706333225472,0.08156363666057587,1,-0.07424776256084442,1,-0.003557182848453522,1,-0.001083193346858025,1,0.0009791272459551692,1,-0.000297386955935508,1
1773072706342686208,-0.0361279658973217,1,-0.01822651922702789,1,0.04513022676110268,1,-0.005622580647468567,1,0.000423009623773396,1,-0.0008842080133035779,1
1773072706353410048,-0.1524493843317032,1,0.04724220931529999,1,0.06663134694099426,1,-0.00445024436339736,1,-0.0005653398111462593,1,-0.0005384362302720547,1
1773072706364029184,-0.1209341064095497,1,0.0420614629983902,1,0.03962450101971626,1,0.001503903418779373,1,-0.0002740595082286745,1,-0.0002090730558848009,1
1773072706374546944,0.001531360670924187,1,-0.03446492925286293,1,0.01378252729773521,1,0.003616678062826395,1,-4.909983545076102e-05,1,-0.0002781505172606558,1
1773072706384961536,0.03573319315910339,1,-0.0550721101462841,1,0.01225413754582405,1,-0.0005574281676672399,1,-0.0006810259656049311,1,-0.0008792966837063432,1
1773072706395275776,-0.07097722589969635,1,-0.006014414597302675,1,0.02586963772773743,1,-0.004389863461256027,1,-0.001604847493581474,1,-0.0009749886812642217,1
1773072706405489920,-0.1711708754301071,1,0.05272240936756134,1,0.02192309126257896,1,-0.002777157817035913,1,-0.001397314597852528,1,-0.0006722829421050847,1
1773072706415602944,-0.1201613768935204,1,0.03621523454785347,1,0.004356095101684332,1,0.002333152573555708,1,2.684617356862873e-05,1,-6.750464672222733e-05,1
1773072706425616384,0.003578141331672668,1,-0.04229734838008881,1,0.005481510423123837,1,0.003568965010344982,1,0.001895828987471759,1,-0.0001863764482550323,1
1773072706435538944,0.03607340902090073,1,-0.05698184669017792,1,0.03266115486621857,1,-7.172036566771567e-05,1,0.001585424761287868,1,-0.0007988968282006681,1
1773072706445369344,-0.07914453744888306,1,-0.00839852262288332,1,0.05517755821347237,1,-0.002633857075124979,1,0.0001858430041465908,1,-0.0008564919116906822,1
1773072706455104256,-0.1619833111763,1,0.03892181068658829,1,0.05000149086117744,1,0.0001238456170540303,1,-8.709420217201114e-05,1,-0.0001687479380052537,1
1773072706464744192,-0.1011602953076363,1,0.00419920077547431,1,0.01331516727805138,1,0.005192589480429888,1,0.0001124039117712528,1,0.0002705691731534898,1
1773072706474289920,0.0335850715637207,1,-0.07211793959140778,1,-0.0006739981472492218,1,0.005263336002826691,1,0.0014667974319309,1,-1.193534262711182e-05,1
1773072706483741952,0.07547018676996231,1,-0.09367562085390091,1,0.03326966241002083,1,-0.0005603881436400115,1,0.00164425082039088,1,-0.0006693695904687047,1
1773072706493102592,-0.0377519279718399,1,-0.0400983914732933,1,0.0623205341398716,1,-0.006099896039813757,1,0.001366797601804137,1,-0.0007480382919311523,1
1773072706502676992,-0.1220431923866272,1,0.02506465837359428,1,0.06599792093038559,1,-0.004349284805357456,1,0.001360368682071567,1,-1.652914215810597e-05,1
1773072706513369856,-0.06602400541305542,1,0.006470502354204655,1,0.03205838426947594,1,0.001114173792302608,1,0.001781130325980484,1,0.0004764416662510484,1
1773072706523959552,0.04935809969902039,1,-0.05385127291083336,1,0.02035152167081833,1,0.004672825336456299,1,0.001712308032438159,1,0.0002074867079500109,1
1773072706534446336,0.07164289802312851,1,-0.08220984786748886,1,0.05312169343233109,1,0.000993643538095057,1,0.000736851361580193,1,-0.0002672440896276385,1
1773072706544832000,-0.05951715633273125,1,-0.02639831230044365,1,0.07636568695306778,1,-0.002201309893280268,1,-0.0003867273044306785,1,-0.0004343648906797171,1
1773072706555120640,-0.1286267638206482,1,0.01330711599439383,1,0.07706138491630554,1,-0.000189500511623919,1,-0.00115632894448936,1,0.0003398980479687452,1
1773072706565309440,-0.06653519719839096,1,-0.006691135000437498,1,0.04503361880779266,1,0.003098977729678154,1,-0.000427594903158024,1,0.0004575338098220527,1
1773072706575399936,0.06525200605392456,1,-0.06623763591051102,1,0.02735636755824089,1,0.0009722501272335649,1,0.0008999509736895561,1,-0.0001100765439332463,1
1773072706585392128,0.08265392482280731,1,-0.07569567114114761,1,0.02596565335988998,1,-0.004858903121203184,1,0.000280249078059569,1,-0.0008653804543428123,1
1773072706595287808,-0.04640653356909752,1,-0.00693482905626297,1,0.02753526717424393,1,-0.008021082729101181,1,-0.0008556366083212197,1,-0.001195132965222001,1
1773072706605085952,-0.1418685466051102,1,0.05206348747014999,1,0.03309447318315506,1,-0.003556937212124467,1,-0.001428118557669222,1,-0.000830652832519263,1
1773072706614789888,-0.09140897542238235,1,0.03459514677524567,1,0.01256646122783422,1,0.002263576723635197,1,-0.00127808831166476,1,-0.0004321630985941738,1
1773072706624400384,0.03218753263354301,1,-0.02603853121399879,1,-0.001768676331266761,1,0.003133364487439394,1,-0.0005250789108686149,1,-0.0006368997856043279,1
1773072706633916928,0.02693985588848591,1,-0.04770629480481148,1,0.0119705181568861,1,-0.002339122351258993,1,-0.000392906746128574,1,-0.0009904603939503431,1
1773072706643339776,-0.09441424906253815,1,0.02149353921413422,1,0.02534256502985954,1,-0.006008115597069263,1,-0.001679666922427714,1,-0.001200872240588069,1
1773072706652671488,-0.1686798185110092,1,0.06364484876394272,1,0.01347278617322445,1,-0.003450631164014339,1,-0.00198870082385838,1,-0.0003325680736452341,1
1773072706662672896,-0.09041500091552734,1,0.0398189090192318,1,-0.01690724678337574,1,0.00221034768037498,1,-0.0009142013150267303,1,2.112032234435901e-05,1
1773072706673337088,0.0308510921895504,1,-0.02736026421189308,1,-0.003122460097074509,1,0.003113017184659839,1,0.00090876838658005,1,-0.0002718712203204632,1
1773072706683896832,0.02735129743814468,1,-0.0336812362074852,1,0.03776306658983231,1,-0.001778796315193176,1,0.001050799037329853,1,-0.0009626733371987939,1
1773072706694353664,-0.09880032390356064,1,0.03819771111011505,1,0.06813319027423859,1,-0.003780224127694964,1,4.314577381592244e-06,1,-0.0008620566222816706,1
1773072706704708352,-0.1795123368501663,1,0.06755542755126953,1,0.05896444618701935,1,0.0003191069117747247,1,-0.000237304629990831,1,-5.14188977831509e-05,1
1773072706714966272,-0.1041215658187866,1,0.04298562183976173,1,0.0144444927573204,1,0.006523447576910257,1,5.48964599147439e-05,1,0.000540256907697767,1
1773072706725131520,0.01825198158621788,1,-0.03863077983260155,1,0.002890204079449177,1,0.007332739420235157,1,0.001196743687614799,1,0.0002849383163265884,1
1773072706735196928,0.01620807498693466,1,-0.04775623604655266,1,0.02859448827803135,1,0.001761365449056029,1,0.001063448609784245,1,-0.0006444001337513328,1
1773072706745166848,-0.1370161324739456,1,0.03023206256330013,1,0.06840516626834869,1,-0.002171085681766272,1,0.0006358560640364885,1,-0.0005696759908460081,1
1773072706755040512,-0.2485127151012421,1,0.05614126846194267,1,0.07970158755779266,1,-0.0009248512797057629,1,-0.0004823610652238131,1,-0.0002239402674604207,1
1773072706764817152,-0.1858279258012772,1,0.06640177965164185,1,0.02566051669418812,1,0.003032155800610781,1,-0.0008920603431761265,1,-0.0004254303930792958,1
1773072706774498560,-0.09095340967178345,1,-0.04582933336496353,1,-0.01069547329097986,1,0.003955019637942314,1,-0.001661711605265737,1,-0.0007854340365156531,1
1773072706784086016,-0.1451601088047028,1,0.0009478842839598656,1,-0.006156102754175663,1,0.0002707234816625714,1,-0.003517110599204898,1,-0.001397292828187346,1
1773072706793581056,-0.3168414831161499,1,-0.04403721168637276,1,-0.006599871441721916,1,0.001042616320773959,1,-0.007864205166697502,1,-0.0008492151973769069,1
1773072706802982656,-0.4309680461883545,1,0.01336442865431309,1,-0.004238435532897711,1,0.004757307469844818,1,-0.00846379715949297,1,-0.0004384898638818413,1
1773072706812292096,-0.3223770260810852,1,-0.0609714463353157,1,-0.02401518635451794,1,0.007594618014991283,1,-0.006504165939986706,1,-0.0002892082557082176,1
1773072706822731776,-0.2480435222387314,1,-0.1084708794951439,1,-0.03411052376031876,1,0.001819175784476101,1,-0.003744677174836397,1,-0.000665894360281527,1
1773072706833374720,-0.2370337247848511,1,-0.1014653220772743,1,-0.01083553489297628,1,-0.007312692236155272,1,-0.002405377104878426,1,-0.0009672512533143163,1
1773072706843914752,-0.3732188045978546,1,-0.0324881300330162,1,0.00560785224661231,1,-0.01202026940882206,1,-0.003047688165679574,1,6.619780469918624e-05,1
1773072706854355712,-0.4454660713672638,1,-0.0003591196145862341,1,-0.006256102118641138,1,-0.005382291041314602,1,-0.004381377715617418,1,0.0006072925170883536,1
1773072706864696320,-0.3417230546474457,1,-0.02871602028608322,1,-0.005185637623071671,1,0.006299358792603016,1,-0.004337163176387548,1,0.00171931367367506,1
1773072706874937600,-0.1334303766489029,1,-0.1096007376909256,1,-0.02972265891730785,1,0.007942085154354572,1,-0.003908582497388124,1,0.0008676070137880743,1
1773072706885085952,-0.09409717470407486,1,-0.1005501002073288,1,-0.01182651147246361,1,0.0002199017908424139,1,-0.0005170248914510012,1,0.0007161941612139344,1
1773072706895136256,-0.3454025387763977,1,-0.06776076555252075,1,0.08154554665088654,1,-0.009499887004494667,1,0.002584939356893301,1,0.0005130099016241729,1
1773072706905089792,-0.4505845010280609,1,0.06076044216752052,1,0.04730816185474396,1,-0.00630574906244874,1,-0.0008277705637738109,1,0.001029565231874585,1
1773072706914947840,-0.2960249185562134,1,-0.0003159651532769203,1,-0.05888112261891365,1,0.004891783464699984,1,0.0007104013930074871,1,0.001623116433620453,1
1773072706924711168,-0.03638584539294243,1,-0.06079576537013054,1,-0.0498988963663578,1,0.005206072703003883,1,0.004655349534004927,1,0.0009841577848419547,1
1773072706934380288,-0.1752377897500992,1,-0.06871889531612396,1,0.06156712770462036,1,-0.005044962745159864,1,0.005278488621115685,1,0.0007404506905004382,1
1773072706943961600,-0.4512553215026855,1,0.03836536407470703,1,0.1286315321922302,1,-0.01240180246531963,1,0.000337357516400516,1,0.0001500019861850888,1
1773072706953457408,-0.5715088248252869,1,0.1303360164165497,1,0.0416279025375843,1,-0.002627111272886395,1,-0.004493630491197109,1,0.0008224186021834612,1
1773072706962860032,-0.385507732629776,1,0.05316430702805519,1,-0.05400561913847923,1,0.009543889202177525,1,-0.004321679938584566,1,0.001079394482076168,1
1773072706972322304,-0.1951017081737518,1,-0.003225524676963687,1,-0.05801122263073921,1,0.006204116623848677,1,-0.00108572409953922,1,0.0002158412826247513,1
1773072706983048192,-0.2586315274238586,1,-0.03697710856795311,1,-0.006615152582526207,1,-0.009088249877095222,1,-0.001020007999613881,1,-3.206351539120078e-05,1
1773072706993669888,-0.4979470670223236,1,0.08668844401836395,1,-0.008294535800814629,1,-0.01877044141292572,1,-0.002611799165606499,1,-0.0003529364475980401,1
1773072707004187648,-0.5755668878555298,1,0.1379219442605972,1,0.005758121609687805,1,-0.006973748095333576,1,-0.001768805668689311,1,0.0003823094011750072,1
1773072707014603776,-0.3730944991111755,1,0.03587713465094566,1,0.03479530289769173,1,0.003758304752409458,1,-0.00290404842235148,1,-0.0003710504097398371,1
1773072707024931328,-0.1725229620933533,1,-0.001157952472567558,1,0.009644286707043648,1,0.003272889414802194,1,-0.0002872674376703799,1,-0.001218748628161848,1
1773072707035158784,-0.2074709683656693,1,-0.009888149797916412,1,0.05836204439401627,1,-0.005114309955388308,1,0.0005674974527209997,1,-0.001384223578497767,1
1773072707045286144,-0.434214860200882,1,0.1014167666435242,1,0.05811718478798866,1,-0.008381887339055538,1,-0.003230552887544036,1,-0.001278568990528584,1
1773072707055315456,-0.5380674600601196,1,0.1364161968231201,1,0.02372586354613304,1,0.002729546511545777,1,-0.004568378906697035,1,0.0001158264931291342,1
1773072707065247232,-0.3982396125793457,1,0.0505530908703804,1,0.001629394595511258,1,0.01269256882369518,1,-0.005678562447428703,1,0.0007120439549908042,1
1773072707075081728,-0.2626436352729797,1,-0.04964952170848846,1,-0.01115047745406628,1,0.0115367379039526,1,-0.004114122595638037,1,0.0004264510353095829,1
1773072707084821248,-0.2663002014160156,1,-0.07227549701929092,1,0.01935431361198425,1,0.00241362676024437,1,-0.003128855722025037,1,-0.0001402322523063049,1
1773072707094467328,-0.4118296504020691,1,-0.003425189992412925,1,0.02162570878863335,1,-0.003889852901920676,1,-0.003078993875533342,1,8.779426570981741e-05,1
1773072707104018944,-0.4108022153377533,1,0.01731559820473194,1,-0.01958805881440639,1,-0.002728468272835016,1,-0.0008484225254505873,1,0.0001255571842193604,1
1773072707113476608,-0.2608223855495453,1,0.0007871477864682674,1,-0.04077669978141785,1,0.0002165481710107997,1,0.002073565265163779,1,0.0003071777755394578,1
1773072707122842368,-0.1723501235246658,1,-0.06436046212911606,1,0.01302564516663551,1,-0.001959694316610694,1,0.004919770639389753,1,0.0002403875696472824,1
1773072707132420352,-0.2534151971340179,1,-0.01192079111933708,1,0.08005665987730026,1,-0.005539019126445055,1,0.002021402586251497,1,0.0003543512721080333,1
1773072707143114240,-0.4325173497200012,1,0.03225411847233772,1,0.09001536667346954,1,-0.0007556293276138604,1,-0.0008304236107505858,1,0.001587606035172939,1
1773072707153707264,-0.4309978485107422,1,0.02535468712449074,1,0.0535733699798584,1,0.01075426023453474,1,-0.001915048807859421,1,0.002153925597667694,1
1773072707164197632,-0.2896410822868347,1,-0.05593724176287651,1,0.01816604845225811,1,0.01524237915873528,1,-0.0006828921614214778,1,0.002189304912462831,1
1773072707174585344,-0.19985431432724,1,-0.1111081317067146,1,0.01414406951516867,1,0.006713708862662315,1,0.001164504326879978,1,0.001250145258381963,1
1773072707184871936,-0.2703655958175659,1,-0.05992262437939644,1,0.01382601447403431,1,-0.00642847828567028,1,0.001250223373062909,1,0.001002353732474148,1
1773072707195058176,-0.3838042616844177,1,0.01526105217635632,1,-0.009651064872741699,1,-0.009867073036730289,1,0.001962189562618732,1,0.001693916507065296,1
1773072707205146112,-0.3476260900497437,1,0.0397169440984726,1,-0.01952410861849785,1,-0.003227282548323274,1,0.002762561198323965,1,0.002065219916403294,1
1773072707215137792,-0.2029259949922562,1,-0.01283708959817886,1,0.02670900896191597,1,0.001619755523279309,1,0.004830732475966215,1,0.00195549288764596,1
1773072707225052928,-0.1526293009519577,1,-0.06047197058796883,1,0.09413883090019226,1,-0.001476172124966979,1,0.004018222447484732,1,0.001062281313352287,1
1773072707234871808,-0.2884891927242279,1,-0.001319666393101215,1,0.1195234432816505,1,-0.00448943767696619,1,0.0001977357314899564,1,0.0007657158421352506,1
1773072707244594176,-0.4594067931175232,1,0.04740913957357407,1,0.09619183838367462,1,-4.571175668388605e-05,1,-0.003133845515549183,1,0.001223438419401646,1
1773072707254222848,-0.4394600391387939,1,0.04257772117853165,1,0.03155568242073059,1,0.008895807899534702,1,-0.004835593048483133,1,0.001440302585251629,1
1773072707263757568,-0.2467897981405258,1,-0.03635627031326294,1,-0.04300911352038383,1,0.008302571251988411,1,-0.003257965669035912,1,0.0006976796430535614,1
1773072707273199616,-0.1412581503391266,1,-0.0575411468744278,1,-0.05330364033579826,1,-0.003127976320683956,1,-0.0001130986056523398,1,-0.0005162400775589049,1
1773072707282550272,-0.2509808838367462,1,-0.01468196231871843,1,-0.02287401258945465,1,-0.01494843233376741,1,0.0006432684022001922,1,-0.00070891686482355,1
1773072707292562688,-0.4289860129356384,1,0.06609616428613663,1,-0.003716538427397609,1,-0.01473717950284481,1,-0.0001330091618001461,1,-0.0003225523978471756,1
1773072707303226368,-0.4183509945869446,1,0.07736178487539291,1,-0.0139984143897891,1,-0.003012171946465969,1,-0.001216670149005949,1,0.0004687353211920708,1
1773072707313787136,-0.2629308104515076,1,0.01300353184342384,1,-0.01196345128118992,1,0.005978902336210012,1,-0.001010956824757159,1,0.0001225911546498537,1
1773072707324245248,-0.1751023977994919,1,-0.03775984048843384,1,0.01821568235754967,1,0.004056088626384735,1,-0.0008294574799947441,1,-0.0003565062652342021,1
1773072707334607616,-0.3035353124141693,1,-0.01290871016681194,1,0.04068739339709282,1,-0.003223319305106997,1,-0.00199619960039854,1,-0.0002038701059063897,1
1773072707344873472,-0.4582841992378235,1,0.04897229745984077,1,0.01316383946686983,1,-0.003967363853007555,1,-0.002631605137139559,1,0.0004753087414428592,1
1773072707355042816,-0.3903253376483917,1,0.04577194899320602,1,-0.04935694113373756,1,0.003796604927629232,1,-0.002153224311769009,1,0.000812932092230767,1
1773072707365118464,-0.1786603033542633,1,-0.02375082671642303,1,-0.06592193245887756,1,0.006755285430699587,1,0.001562103861942887,1,0.0002960295823868364,1
1773072707375099136,-0.05652785301208496,1,-0.05729706212878227,1,-0.0234118364751339,1,-0.002075034193694592,1,0.004888373892754316,1,0.0002240372268715873,1
1773072707384984832,-0.1929183602333069,1,-0.01081668026745319,1,0.03948498144745827,1,-0.0102626895532012,1,0.00509165832772851,1,0.0003583744401112199,1
1773072707394782720,-0.3414561748504639,1,0.05488914996385574,1,0.07939470559358597,1,-0.005572733469307423,1,0.003939113114029169,1,0.001099931658245623,1
1773072707404497664,-0.2757817804813385,1,0.03771039471030235,1,0.06348073482513428,1,0.008680921047925949,1,0.002870894502848387,1,0.001724455738440156,1
1773072707414117888,-0.08108565211296082,1,-0.02147349156439304,1,0.07212606817483902,1,0.01534593570977449,1,0.003912223502993584,1,0.001395357074216008,1
1773072707423643904,-0.003736005164682865,1,-0.0668335035443306,1,0.09406723082065582,1,0.005485407076776028,1,0.005010762251913548,1,0.001189743401482701,1
1773072707433078016,-0.157066285610199,1,-0.01855252310633659,1,0.06773288547992706,1,-0.006322561763226986,1,0.003837994299829006,1,0.00121370586566627,1
1773072707442419968,-0.28305983543396,1,0.03808989375829697,1,0.02165615744888783,1,-0.003754008794203401,1,0.00251672207377851,1,0.001908921869471669,1
1773072707452864768,-0.1866336315870285,1,0.01217105612158775,1,-0.01285488810390234,1,0.006966070737689734,1,0.002760739997029305,1,0.001989131094887853,1
1773072707463505152,0.01876897923648357,1,-0.0313233882188797,1,0.02044000290334225,1,0.009230057708919048,1,0.004989737644791603,1,0.001350315753370523,1
1773072707474042624,0.0803927406668663,1,-0.0557505264878273,1,0.08333899825811386,1,-0.002482425887137651,1,0.007012711372226477,1,0.0008179377182386816,1
1773072707484476672,-0.08841264247894287,1,-0.00564970076084137,1,0.1080131977796555,1,-0.01234102714806795,1,0.005056599620729685,1,0.001572807086631656,1
1773072707494813440,-0.1986260265111923,1,0.03216170892119408,1,0.0779026597738266,1,-0.005919052287936211,1,0.002523241331800818,1,0.002362044993788004,1
1773072707505048832,-0.04409703984856606,1,0.004095724318176508,1,0.03353558480739594,1,0.009260958060622215,1,0.00150757422670722,1,0.002137487521395087,1
1773072707515186176,0.184611514210701,1,-0.04394054785370827,1,0.05480052903294563,1,0.01306813862174749,1,0.003616407979279757,1,0.001561854733154178,1
1773072707525224192,0.2415211647748947,1,-0.08064333349466324,1,0.1055853813886642,1,-0.001509033492766321,1,0.006169542670249939,1,0.0009755520150065422,1
1773072707535165184,0.06338762491941452,1,-0.03736348822712898,1,0.0954262912273407,1,-0.01402165647596121,1,0.00557226175442338,1,0.001263522426597774,1
1773072707545008128,-0.04788066446781158,1,0.02236921899020672,1,0.07497204095125198,1,-0.006357747130095959,1,0.004596285987645388,1,0.001658349414356053,1
1773072707554757376,0.08540817350149155,1,0.003009989392012358,1,0.08965706825256348,1,0.01049286685883999,1,0.004486976191401482,1,0.001222901628352702,1
1773072707564411904,0.3478578329086304,1,-0.061906348913908,1,0.1168422400951385,1,0.01336727011948824,1,0.006239855196326971,1,4.109497967874631e-05,1
1773072707573972992,0.507720947265625,1,-0.08582305908203125,1,0.08446475118398666,1,-0.002028911374509335,1,0.008376708254218102,1,-0.0005161521839909256,1
1773072707583440128,0.3546894788742065,1,-0.03022933751344681,1,0.05446678400039673,1,-0.01300519425421953,1,0.009649465791881084,1,0.0004736387927550822,1
1773072707592825344,0.1360277086496353,1,0.02892221882939339,1,0.1380988210439682,1,-0.006963575258851051,1,0.00955171138048172,1,0.001348031219094992,1
1773072707602275584,0.1523220539093018,1,0.002893220167607069,1,0.213086411356926,1,0.008273187093436718,1,0.006714104674756527,1,0.000804928713478148,1
1773072707613001728,0.4312548637390137,1,-0.101129949092865,1,0.1631730645895004,1,0.01430853269994259,1,0.00609194440767169,1,-0.0004805476928595454,1
1773072707623627776,0.64574134349823,1,-0.06339369714260101,1,0.08549909293651581,1,0.005844669882208109,1,0.008276959881186485,1,-0.001213307725265622,1
1773072707634153472,0.4828630685806274,1,-0.04735996574163437,1,0.08945593982934952,1,-0.006875291001051664,1,0.01288988254964352,1,0.0003913334221579134,1
1773072707644583424,0.2244065403938293,1,-0.004323266446590424,1,0.1479889899492264,1,-0.009157324209809303,1,0.009703924879431725,1,0.0004464977246243507,1
1773072707654914304,0.3073365688323975,1,0.02993563190102577,1,0.0951942503452301,1,0.002895942889153957,1,0.006963885854929686,1,-3.245861080358736e-05,1
1773072707665153280,0.642899751663208,1,-0.069943867623806,1,0.03787399083375931,1,0.01297811977565289,1,0.00801848154515028,1,-0.0006616623140871525,1
1773072707675294464,0.713500440120697,1,-0.06764358282089233,1,0.120434395968914,1,0.005394400097429752,1,0.01247413083910942,1,-0.0002735116868279874,1
1773072707685338112,0.4888968765735626,1,-0.04291262850165367,1,0.2649447023868561,1,-0.009895522147417068,1,0.012947509996593,1,0.0007574923220090568,1
1773072707695284480,0.3278924822807312,1,0.01718483678996563,1,0.1778536885976791,1,-0.008297912776470184,1,0.004857327789068222,1,0.001016672817058861,1
1773072707705133056,0.5988278388977051,1,-0.0154606755822897,1,-0.003569548949599266,1,0.01098436582833529,1,0.002385928528383374,1,0.0004279353306628764,1
1773072707714885888,0.8709454536437988,1,-0.08908428996801376,1,-0.009659048169851303,1,0.01330976840108633,1,0.008566726930439472,1,-0.0003657969064079225,1
1773072707724542976,0.7199098467826843,1,-0.08007901161909103,1,0.1473343968391418,1,-0.004816552624106407,1,0.01367292553186417,1,0.0002407171705272049,1
1773072707734107648,0.4750154614448547,1,-0.04203981906175613,1,0.2167953550815582,1,-0.01616725511848927,1,0.008049112744629383,1,0.000857275677844882,1
1773072707743577344,0.59369295835495,1,0.01134358625859022,1,0.05141457915306091,1,-0.003740189829841256,1,0.004524305928498507,1,0.0005196846323087811,1
1773072707752955136,0.9253453612327576,1,-0.07078024744987488,1,-0.04137520492076874,1,0.01378744654357433,1,0.01042165700346231,1,-0.0001316039270022884,1
1773072707762541568,0.9322788119316101,1,-0.05784199759364128,1,0.1374266147613525,1,0.00612370204180479,1,0.01559282559901476,1,-0.0002702193160075694,1
1773072707773232640,0.6374425888061523,1,-0.05971704050898552,1,0.2744528353214264,1,-0.01506264321506023,1,0.01210254058241844,1,0.0006888203206472099,1
1773072707783820800,0.532295286655426,1,-0.01366493105888367,1,0.08219663798809052,1,-0.01072097290307283,1,0.001924621174111962,1,0.0003628123376984149,1
1773072707794305536,0.7933857440948486,1,-0.0113565381616354,1,-0.1424692124128342,1,0.01792100258171558,1,0.0008006877615116537,1,-0.0005373638705350459,1
1773072707804687360,0.9368981122970581,1,-0.06095601990818977,1,0.00409296341240406,1,0.02544824779033661,1,0.01002366188913584,1,-0.0004560080706141889,1
1773072707814973440,0.7363936305046082,1,-0.09271425753831863,1,0.262203186750412,1,-0.003170419950038195,1,0.01340607088059187,1,7.124092371668667e-05,1
1773072707825159424,0.5872275829315186,1,-0.07890312373638153,1,0.1378810405731201,1,-0.02229893580079079,1,0.004404172766953707,1,4.846404772251844e-05,1
1773072707835244800,0.8088851571083069,1,-0.05789927393198013,1,-0.1718761473894119,1,-0.004645003937184811,1,-0.0008604357135482132,1,-0.001100401859730482,1
1773072707845233152,0.9542463421821594,1,-0.02570733241736889,1,-0.128271609544754,1,0.01581519842147827,1,0.007987532764673233,1,-0.001494132447987795,1
1773072707855127040,0.7311486601829529,1,-0.0349552184343338,1,0.2361647933721542,1,0.004653431009501219,1,0.01231161411851645,1,-0.001032510539516807,1
1773072707864926464,0.5076434016227722,1,-0.02455573342740536,1,0.2504317760467529,1,-0.01451602019369602,1,0.001899075345136225,1,6.948492955416441e-05,1
1773072707874650624,0.7112239003181458,1,-0.06440684199333191,1,-0.106127068400383,1,-0.003542949911206961,1,-0.007805889006704092,1,-0.0007304015452973545,1
1773072707884321024,0.9055485129356384,1,-0.05968139320611954,1,-0.2482433468103409,1,0.0189166497439146,1,-0.002506615361198783,1,-0.001349315862171352,1
1773072707893896704,0.7215960025787354,1,-0.06930217146873474,1,0.07271556556224823,1,0.0148917343467474,1,0.005886995699256659,1,-0.001171900890767574,1
1773072707903379200,0.4567920565605164,1,-0.05808783695101738,1,0.2230261713266373,1,-0.01059908047318459,1,-0.0009318498196080327,1,-0.0003940273600164801,1
1773072707912769792,0.607430100440979,1,-0.05956056341528893,1,-0.09425494074821472,1,-0.01692259684205055,1,-0.007879725657403469,1,-0.000916205404791981,1
1773072707922796800,0.8402105569839478,1,-0.04745463654398918,1,-0.3173744678497314,1,0.0008400382939726114,1,-0.002235681284219027,1,-0.00114836182910949,1
1773072707933450496,0.6789107322692871,1,-0.04667879641056061,1,-0.0187780037522316,1,0.008576101623475552,1,0.006690702401101589,1,-0.0004493863962125033,1
1773072707944001536,0.4461852610111237,1,-0.04793628305196762,1,0.2515240609645844,1,-0.004522531293332577,1,0.0004770478699356318,1,4.437261668499559e-05,1
1773072707954449920,0.6214696168899536,1,-0.03586176037788391,1,-0.005926143378019333,1,-0.008924380876123905,1,-0.00827346183359623,1,-0.0006922783795744181,1
1773072707964795904,0.8700989484786987,1,-0.05227954313158989,1,-0.2546042501926422,1,0.003679939778521657,1,-0.002363668289035559,1,-0.0008724196814000607,1
1773072707975041792,0.6909621357917786,1,-0.03391563147306442,1,0.02744349092245102,1,0.009400682523846626,1,0.007612125016748905,1,-0.0006479796720668674,1
1773072707985187072,0.4469868540763855,1,-0.0685751661658287,1,0.3080309331417084,1,-0.0031460199970752,1,0.00242598308250308,1,-3.171464777551591e-05,1
1773072707995237632,0.6201402544975281,1,-0.05807163938879967,1,0.06616739928722382,1,-0.006959250196814537,1,-0.006221294403076172,1,-0.0006646576221100986,1
1773072708005201920,0.8680946826934814,1,-0.03563785180449486,1,-0.1529729068279266,1,0.004146289080381393,1,0.00106612266972661,1,-0.001602528151124716,1
1773072708015069184,0.6910377144813538,1,-0.01696713827550411,1,0.1334217339754105,1,0.007288258988410234,1,0.01001140009611845,1,-0.001291095046326518,1
1773072708024840192,0.4613123536109924,1,-0.05779179930686951,1,0.3429215550422668,1,-0.005284560844302177,1,0.002304060151800513,1,-0.0008482305565848947,1
1773072708034516224,0.6170324087142944,1,-0.02140085771679878,1,0.05399405211210251,1,-0.006226817145943642,1,-0.00720170047134161,1,-0.001674787257798016,1
1773072708044096768,0.7823834419250488,1,0.01371981576085091,1,-0.1221094056963921,1,0.009344447404146194,1,-0.000165411620400846,1,-0.001767711248248816,1
1773072708053584384,0.6293823719024658,1,-0.02061095833778381,1,0.1934507787227631,1,0.01364594046026468,1,0.007801453117281199,1,-0.001607949147000909,1
1773072708062981376,0.5240862965583801,1,-0.08930575102567673,1,0.3416315019130707,1,-0.00148910004645586,1,0.0003271055757068098,1,-0.001642300398088992,1
1773072708072286976,0.6971134543418884,1,-0.08346611261367798,1,0.04798786714673042,1,-0.00799077469855547,1,-0.005316232331097126,1,-0.002022332744672894,1
1773072708082724608,0.7529047131538391,1,-0.003853652160614729,1,-0.03324228525161743,1,0.002715670736506581,1,0.00328343128785491,1,-0.001975171966478229,1
1773072708093367808,0.6309763193130493,1,-0.007902280427515507,1,0.2665958106517792,1,0.007364116609096527,1,0.007674617692828178,1,-0.001764878863468766,1
1773072708103910144,0.6143602728843689,1,-0.130853459239006,1,0.3033939301967621,1,-0.003808851819485426,1,-0.0001300774165429175,1,-0.002205883618444204,1
1773072708114355712,0.6859517097473145,1,-0.06252624094486237,1,0.05478259176015854,1,-0.008740066550672054,1,-0.003305827500298619,1,-0.003022955264896154,1
1773072708124700160,0.5974782109260559,1,0.0527375340461731,1,0.07865627855062485,1,0.004342839121818542,1,0.002169900108128786,1,-0.002408772008493543,1
1773072708134946048,0.5599737763404846,1,-0.0279751680791378,1,0.232706293463707,1,0.01169450394809246,1,-0.0007887815008871257,1,-0.001579546136781573,1
1773072708145095680,0.7348352074623108,1,-0.1334546953439713,1,0.09728927165269852,1,0.004406602121889591,1,-0.0054902583360672,1,-0.002233042614534497,1
1773072708155147776,0.7736486196517944,1,-0.05747336894273758,1,-0.06316717714071274,1,-0.003994656726717949,1,-0.001739758066833019,1,-0.002633846364915371,1
1773072708165102592,0.5728791356086731,1,0.04450493678450584,1,0.07648222148418427,1,-0.002534042578190565,1,0.002765635959804058,1,-0.001618440146557987,1
1773072708174974720,0.5466504096984863,1,-0.05776910111308098,1,0.1631054878234863,1,0.001486388850025833,1,-0.002057967241853476,1,-0.001251168316230178,1
1773072708184755456,0.7525525093078613,1,-0.1108289510011673,1,0.01400662027299404,1,0.002641229890286922,1,-0.004377086646854877,1,-0.001965135335922241,1
1773072708194442240,0.7400526404380798,1,-0.03009966760873795,1,0.01467208750545979,1,0.002531040227040648,1,0.001592304091900587,1,-0.002104555489495397,1
1773072708204037120,0.5751981735229492,1,-0.02070856466889381,1,0.1840093582868576,1,0.001683803740888834,1,0.001826423336751759,1,-0.001888844068162143,1
1773072708213539584,0.6061170101165771,1,-0.1315967440605164,1,0.1146104708313942,1,-0.000843602349050343,1,-0.004237796645611525,1,-0.002296503633260727,1
1773072708222950912,0.731839656829834,1,-0.07977035641670227,1,-0.05656439065933228,1,0.0001461946812923998,1,-0.003860255237668753,1,-0.002875293139368296,1
1773072708232422656,0.6431819796562195,1,-0.01102788932621479,1,0.05515275895595551,1,0.003420101711526513,1,0.002251062542200089,1,-0.002226298209279776,1
1773072708243144448,0.5951501727104187,1,-0.09172807633876801,1,0.1789463758468628,1,-0.0004507651901803911,1,-7.959228241816163e-05,1,-0.002247004769742489,1
1773072708253762304,0.7441157102584839,1,-0.128251925110817,1,0.01986366882920265,1,-0.005848817992955446,1,-0.003488699439913034,1,-0.00313629349693656,1
1773072708264276736,0.7678449749946594,1,-0.02704076282680035,1,-0.06741634011268616,1,-0.005514806602150202,1,0.0006471478845924139,1,-0.003366657067090273,1
1773072708274688256,0.6327317357063293,1,0.03081458061933517,1,0.1133637502789497,1,-0.002072522649541497,1,0.003764888271689415,1,-0.001871859538368881,1
1773072708285004032,0.6823130249977112,1,-0.1127515062689781,1,0.1400531679391861,1,-0.002327070804312825,1,3.776582889258862e-05,1,-0.001682098838500679,1
1773072708295228672,0.8010184764862061,1,-0.09522244334220886,1,0.001900430303066969,1,-0.001194940181449056,1,-0.0003744974092114717,1,-0.003069464582949877,1
1773072708305352960,0.690177857875824,1,0.03177588805556297,1,0.08860719949007034,1,0.00538999866694212,1,0.004837187007069588,1,-0.002635000506415963,1
1773072708315378176,0.6073896884918213,1,0.004270270466804504,1,0.2270613014698029,1,0.007149901241064072,1,0.002998808864504099,1,-0.001923133269883692,1
1773072708325307392,0.7742671370506287,1,-0.1019199788570404,1,0.07698208093643188,1,0.00319078634493053,1,-0.0006784276338294148,1,-0.002428061561658978,1
1773072708335138048,0.8582496643066406,1,-0.05468061938881874,1,-0.097807377576828,1,0.00177047704346478,1,0.003432423807680607,1,-0.003350087907165289,1
1773072708344873472,0.6837659478187561,1,0.0287189707159996,1,0.06652158498764038,1,0.003535664640367031,1,0.007079159375280142,1,-0.002583811758086085,1
1773072708354516224,0.6207431554794312,1,-0.01909269951283932,1,0.1936178356409073,1,0.001673979917541146,1,0.003162958193570375,1,-0.002369797322899103,1
1773072708364063744,0.8182047009468079,1,-0.116973988711834,1,0.06577909737825394,1,-0.0003374295774847269,1,0.0001094260514946654,1,-0.003098998917266726,1
1773072708373518592,0.8305349946022034,1,-0.04708759859204292,1,0.04895439743995667,1,0.000713725108653307,1,0.004620984196662903,1,-0.003763262880966067,1
1773072708382880000,0.7253115177154541,1,0.01493708044290543,1,0.2331164926290512,1,0.002877919469028711,1,0.005283318925648928,1,-0.003112995764240623,1
1773072708392452864,0.7849330306053162,1,-0.1066370755434036,1,0.2056005001068115,1,-0.001546782674267888,1,-0.0008783976081758738,1,-0.002997290575876832,1
1773072708403140096,0.8850491642951965,1,-0.1176391169428825,1,0.01149613782763481,1,-0.005493659060448408,1,-0.0008888270822353661,1,-0.004607816692441702,1
1773072708413722112,0.7606325149536133,1,0.01332511939108372,1,0.07305850088596344,1,-0.0004630350740626454,1,0.004603379406034946,1,-0.003996529150754213,1
1773072708424202752,0.6779406070709229,1,-0.002774765715003014,1,0.2320210635662079,1,0.004796178080141544,1,0.001761280931532383,1,-0.002668865257874131,1
1773072708434583552,0.8605750799179077,1,-0.1601753681898117,1,0.1336801946163177,1,0.003166296519339085,1,-0.001682713744230568,1,-0.003179445397108793,1
1773072708444861440,0.9499973058700562,1,-0.1034063845872879,1,0.02567931823432446,1,-0.002119604032486677,1,0.002931028138846159,1,-0.004507461562752724,1
1773072708455038720,0.7972117066383362,1,0.005684134550392628,1,0.1975180506706238,1,-0.002964263549074531,1,0.006665658205747604,1,-0.003799568163231015,1
1773072708465117952,0.7953921556472778,1,-0.02757886983454227,1,0.2397577911615372,1,-0.001333527034148574,1,0.001593730296008289,1,-0.003166487440466881,1
1773072708475098368,1.000840425491333,1,-0.1562268882989883,1,0.03884359821677208,1,-0.0002902916166931391,1,-0.0009781086118891835,1,-0.003787461668252945,1
1773072708484981248,0.9735267758369446,1,-0.0553666315972805,1,0.003607027232646942,1,0.001548508647829294,1,0.004176919348537922,1,-0.004177010618150234,1
1773072708494772224,0.7857763767242432,1,0.037716094404459,1,0.2244739979505539,1,0.005351892672479153,1,0.004761863965541124,1,-0.003540290985256433,1
1773072708504474112,0.8167028427124023,1,-0.06793104112148285,1,0.1906907111406326,1,0.006322409491986036,1,-0.001769452239386737,1,-0.003173644887283444,1
1773072708514082048,0.9973371028900146,1,-0.1432726085186005,1,-0.04476460069417953,1,0.003842867212370038,1,-0.001167873269878328,1,-0.004801344592124224,1
1773072708523595520,0.8790522813796997,1,-0.01228234078735113,1,-0.0008159829303622246,1,0.002479675924405456,1,0.005414480809122324,1,-0.005004198756068945,1
1773072708533016832,0.7204212546348572,1,0.03924758359789848,1,0.2036273032426834,1,0.002813910134136677,1,0.004064498469233513,1,-0.004355401266366243,1
1773072708542346240,0.8794599175453186,1,-0.08791822195053101,1,0.06505339592695236,1,0.001326565281488001,1,-0.002341029234230518,1,-0.004756278358399868,1
1773072708552344576,1.031578898429871,1,-0.08729570358991623,1,-0.1286571323871613,1,-0.002303055953234434,1,0.0005937482346780598,1,-0.006100194063037634,1
1773072708563003392,0.8623413443565369,1,0.03463978320360184,1,0.07026404142379761,1,-0.001366096665151417,1,0.008235597983002663,1,-0.005506637506186962,1
1773072708573560320,0.7541113495826721,1,0.02006388269364834,1,0.2898800075054169,1,0.0007556919590570033,1,0.002488113474100828,1,-0.004785213619470596,1
1773072708584015616,0.9651804566383362,1,-0.1268130391836166,1,0.103936493396759,1,0.002133402274921536,1,-0.005101863294839859,1,-0.005652320105582476,1
1773072708594371072,1.075497627258301,1,-0.08606855571269989,1,-0.08614668995141983,1,0.00131091452203691,1,-0.0003271964960731566,1,-0.006806394550949335,1
1773072708604635136,0.8356344103813171,1,0.02143516391515732,1,0.1102789342403412,1,0.001220060628838837,1,0.005819661077111959,1,-0.006165105849504471,1
1773072708614799360,0.696492612361908,1,-0.06576532125473022,1,0.2163933515548706,1,0.0008870094316080213,1,-0.001454654382541776,1,-0.005285666789859533,1
1773072708624865536,0.8967565894126892,1,-0.1657377183437347,1,-0.02939162403345108,1,0.0006800204864703119,1,-0.008185162208974361,1,-0.005977030377835035,1
1773072708634833920,0.9613332748413086,1,-0.0974288210272789,1,-0.09345017373561859,1,0.001574872760102153,1,0.0006290279561653733,1,-0.006659813690930605,1
1773072708644705792,0.7879612445831299,1,-0.02850187569856644,1,0.2152133584022522,1,-0.001677128719165921,1,0.00768507132306695,1,-0.005721753928810358,1
1773072708654481152,0.7955582737922668,1,-0.1290925741195679,1,0.27150559425354,1,-0.009595070965588093,1,0.0003328274469822645,1,-0.005149500444531441,1
1773072708664161024,1.013728737831116,1,-0.1703328937292099,1,0.008433263748884201,1,-0.01114310976117849,1,-0.002674255985766649,1,-0.005769669078290462,1
1773072708673747712,1.015877246856689,1,-0.03859453648328781,1,0.04761623963713646,1,-0.003304416313767433,1,0.006195616442710161,1,-0.005722485948354006,1
1773072708683240704,0.8698586225509644,1,0.007912857457995415,1,0.3490053415298462,1,0.005040448624640703,1,0.007972556166350842,1,-0.004658267367631197,1
1773072708692639744,0.9216201305389404,1,-0.1260482668876648,1,0.2870818376541138,1,0.005244354251772165,1,-0.001874300767667592,1,-0.004668504931032658,1
1773072708701947648,1.037240982055664,1,-0.1185785457491875,1,-0.03749785572290421,1,0.005472327582538128,1,-0.004734943620860577,1,-0.005778321996331215,1
1773072708712540928,0.8792250156402588,1,0.007088125683367252,1,0.0265742801129818,1,0.0106512364000082,1,0.002896651392802596,1,-0.005092766601592302,1
1773072708723186688,0.7423050403594971,1,-0.02227616123855114,1,0.2611474990844727,1,0.008187242783606052,1,0.001006605220027268,1,-0.004685252904891968,1
1773072708733730816,0.873033344745636,1,-0.1433421969413757,1,0.08060005307197571,1,-0.0002258809981867671,1,-0.00711627583950758,1,-0.005549842491745949,1
1773072708744176384,1.079363465309143,1,-0.1162540912628174,1,-0.1837564408779144,1,-0.00616706907749176,1,-0.002473730593919754,1,-0.007573653012514114,1
1773072708754522112,0.9591857194900513,1,-0.01979418285191059,1,0.01537699997425079,1,-0.007593946997076273,1,0.007616401650011539,1,-0.007412830833345652,1
1773072708764769024,0.8154652714729309,1,-0.003894085064530373,1,0.3214099109172821,1,-0.01271883305162191,1,0.005718271248042583,1,-0.007003954611718655,1
1773072708774917376,0.955622673034668,1,-0.02145481109619141,1,0.1719153821468353,1,-0.01210134755820036,1,-0.003481524065136909,1,-0.007648242637515068,1
1773072708784974080,1.162469625473022,1,-0.00454779202118516,1,-0.0445394441485405,1,0.0007967236451804638,1,0.001234254101291299,1,-0.00852921511977911,1
1773072708794937856,1.054682731628418,1,-0.009568077512085438,1,0.1451887041330338,1,0.00912745576351881,1,0.007577735465019941,1,-0.008377097547054291,1
1773072708804807168,0.7786059975624084,1,0.0452658124268055,1,0.3645044565200806,1,0.006426749750971794,1,0.001770462258718908,1,-0.007659824099391699,1
1773072708814583040,0.8254451751708984,1,-0.002161856973543763,1,0.1826777458190918,1,0.006601253524422646,1,-0.005976005457341671,1,-0.007792773190885782,1
1773072708824266240,1.110416293144226,1,-0.07506255805492401,1,-0.1171247214078903,1,0.01592105440795422,1,-0.003103925148025155,1,-0.008528897538781166,1
1773072708833856768,1.140636563301086,1,-0.1095671802759171,1,0.001244911924004555,1,0.01518612541258335,1,0.006866701878607273,1,-0.008811448700726032,1
1773072708843356928,0.8567807674407959,1,-0.07149062305688858,1,0.340877503156662,1,-0.004345746710896492,1,0.008542807772755623,1,-0.008088719099760056,1
1773072708852769280,0.753932774066925,1,-0.07673028111457825,1,0.3335301876068115,1,-0.01472386904060841,1,0.002450588624924421,1,-0.006945623550564051,1
1773072708862246656,1.139491677284241,1,-0.1211200729012489,1,0.04393355548381805,1,0.0008471955079585314,1,0.001124399481341243,1,-0.008067872375249863,1
1773072708872963072,1.462064981460571,1,-0.1237162947654724,1,0.03885926678776741,1,0.01273907162249088,1,0.008296720683574677,1,-0.007879511453211308,1
1773072708883575296,1.187466263771057,1,-0.138733983039856,1,0.2808609902858734,1,-0.001935580745339394,1,0.01362676825374365,1,-0.00733357947319746,1
1773072708894086656,0.7722037434577942,1,-0.0470176562666893,1,0.3726367950439453,1,-0.01693220995366573,1,0.004319874104112387,1,-0.006670997943729162,1
1773072708904496128,0.8195279836654663,1,-0.04584697261452675,1,0.06757508963346481,1,-0.001673583406955004,1,-0.006702188402414322,1,-0.007625780068337917,1
1773072708914806016,1.210336565971375,1,-0.0834912583231926,1,-0.1905468106269836,1,0.0286316592246294,1,-0.001214413437992334,1,-0.008921874687075615,1
1773072708925017088,1.296143531799316,1,-0.08616684377193451,1,0.03307764604687691,1,0.02778502553701401,1,0.006100821308791637,1,-0.007987283170223236,1
1773072708935129088,0.8671575784683228,1,-0.1272092014551163,1,0.2870036959648132,1,-0.01547681726515293,1,0.007061856333166361,1,-0.006761404220014811,1
1773072708945148160,0.5093787908554077,1,-0.01006322354078293,1,0.1808209419250488,1,-0.03551940619945526,1,-0.000108812004327774,1,-0.006151738110929728,1
1773072708955072768,0.8505288362503052,1,0.06108162179589272,1,-0.1027394011616707,1,-0.001668179873377085,1,-0.003633861197158694,1,-0.006814229302108288,1
1773072708964902144,1.526844024658203,1,-0.1327039897441864,1,-0.07007074356079102,1,0.03291821479797363,1,0.01101008802652359,1,-0.007470321375876665,1
1773072708974637568,1.401684165000916,1,-0.1157136186957359,1,0.3065907061100006,1,0.02081206627190113,1,0.009852644987404346,1,-0.006932963151484728,1
1773072708984280832,0.96684730052948,1,-0.2102549523115158,1,0.3335022628307343,1,-0.0208421740680933,1,0.009444097988307476,1,-0.007800410035997629,1
1773072708993830656,0.7217975258827209,1,-0.005036447197198868,1,0.1672491133213043,1,-0.02753353863954544,1,-0.0003769338363781571,1,-0.00778505951166153,1
1773072709003289600,0.7061042785644531,1,0.1171087026596069,1,-0.02397622726857662,1,0.01241220813244581,1,-0.004398325458168983,1,-0.007288116961717606,1
1773072709012659456,1.2770015001297,1,-0.2026448100805283,1,0.04473914206027985,1,0.04191252961754799,1,0.007303382735699415,1,-0.008630508556962013,1
1773072709022239488,1.482820868492126,1,-0.2229699045419693,1,0.1474337726831436,1,0.0162955466657877,1,0.003058716654777527,1,-0.009338266216218472,1
1773072709032926464,1.117106199264526,1,-0.1732799708843231,1,0.04178817942738533,1,-0.0273096039891243,1,0.006261239759624004,1,-0.01012151036411524,1
1773072709043510784,0.6391170024871826,1,0.01184075511991978,1,0.08402497321367264,1,-0.04023406654596329,1,-0.0008617978310212493,1,-0.01064481027424335,1
1773072709053991680,0.182573139667511,1,0.1863398551940918,1,0.09133893251419067,1,-0.02030725590884686,1,-0.01198274176567793,1,-0.008909000083804131,1
1773072709064369920,0.569286048412323,1,0.0727708712220192,1,0.01010273210704327,1,0.01734509505331516,1,-0.009918105788528919,1,-0.009120062924921513,1
1773072709074646016,1.303762674331665,1,-0.2103663384914398,1,-0.05186695605516434,1,0.02811968885362148,1,-0.0009320280514657497,1,-0.01073210407048464,1
1773072709084822016,1.349245071411133,1,-0.2299711406230927,1,0.002464608289301395,1,0.008607203140854836,1,0.0004896784666925669,1,-0.01238979957997799,1
1773072709094906624,0.9378885626792908,1,-0.1672739833593369,1,0.05408505722880363,1,-0.02302646264433861,1,0.001543628284707665,1,-0.01481843087822199,1
1773072709104902400,0.3815271854400635,1,0.2025869637727737,1,0.05949657782912254,1,-0.028912752866745,1,-0.00935870036482811,1,-0.01361722592264414,1
1773072709114800896,0.1015613675117493,1,0.2123449444770813,1,-0.05103693157434464,1,-0.008080667816102505,1,-0.01395031902939081,1,-0.009959982708096504,1
1773072709124603648,0.2808381915092468,1,-0.04294556379318237,1,-0.08490348607301712,1,0.02099032141268253,1,-0.01280013378709555,1,-0.007900116965174675,1
1773072709134311168,0.6695594191551208,1,-0.1968772113323212,1,0.007335379719734192,1,0.02941186353564262,1,-0.008779451251029968,1,-0.009937138296663761,1
1773072709143922432,0.8192941546440125,1,-0.2711489796638489,1,0.1455440670251846,1,0.01729802414774895,1,-0.005166412331163883,1,-0.01205356605350971,1
1773072709153440256,0.7554453015327454,1,-0.2129940241575241,1,0.2075423896312714,1,-0.01004638522863388,1,-0.001327840727753937,1,-0.01453746948391199,1
1773072709162865920,0.5470983982086182,1,-0.06084267795085907,1,0.05752519518136978,1,-0.03049923479557037,1,-0.006935888901352882,1,-0.01488855574280024,1
1773072709172200192,0.3102804720401764,1,0.1221220791339874,1,-0.154985174536705,1,-0.02971965819597244,1,-0.007639552000910044,1,-0.01252326462417841,1
1773072709182351616,0.2764831185340881,1,0.08574160188436508,1,-0.1872356534004211,1,-0.01091212220489979,1,-0.006795549765229225,1,-0.009559415280818939,1
1773072709193008128,0.4558466374874115,1,-0.02629368379712105,1,-0.09298773109912872,1,0.00747599033638835,1,-0.006004564929753542,1,-0.007686154451221228,1
1773072709203561216,0.632022500038147,1,-0.1985680013895035,1,0.1510055810213089,1,0.01854985021054745,1,-0.0004793343250639737,1,-0.008184975013136864,1
1773072709214011392,0.6591874957084656,1,-0.2819665670394897,1,0.4078603088855743,1,0.01161669660359621,1,0.003077374771237373,1,-0.01094476599246264,1
1773072709224360704,0.6024032235145569,1,-0.1957612037658691,1,0.3068285584449768,1,-0.006076009944081306,1,-0.00268139666877687,1,-0.01357763633131981,1
1773072709234612480,0.4770994782447815,1,-0.03841997683048248,1,-0.04322950914502144,1,-0.01614789851009846,1,-0.003532207570970058,1,-0.01311153452843428,1
1773072709244764928,0.5837709903717041,1,0.1030363962054253,1,-0.2852483987808228,1,-0.0168954823166132,1,0.004583271220326424,1,-0.01074263919144869,1
1773072709254818048,0.7146772146224976,1,0.08132931590080261,1,-0.2363257855176926,1,-0.006907579954713583,1,0.01488762535154819,1,-0.007073333952575922,1
1773072709264773888,0.8406736850738525,1,-0.1022625714540482,1,0.158164843916893,1,0.003868481609970331,1,0.02539003826677799,1,-0.0070676663890481,1
1773072709274633216,0.7139773368835449,1,-0.1725692749023438,1,0.6009454131126404,1,0.008725212886929512,1,0.01882872357964516,1,-0.009345190599560738,1
1773072709284396800,0.5753751397132874,1,-0.03535217046737671,1,0.7040465474128723,1,0.007035036105662584,1,0.008603070862591267,1,-0.0114167733117938,1
1773072709294065152,0.7096388936042786,1,0.04401713609695435,1,0.3773356676101685,1,0.007558582350611687,1,-7.362919859588146e-05,1,-0.01080881338566542,1
1773072709303640064,0.9874939918518066,1,-0.007898002862930298,1,-0.05272509157657623,1,0.009745318442583084,1,0.004504160024225712,1,-0.009758208878338337,1
1773072709313120256,1.230657339096069,1,-0.08915509283542633,1,-0.1934999525547028,1,0.008049393072724342,1,0.01125680655241013,1,-0.01079893670976162,1
1773072709322508288,1.018516421318054,1,-0.08838771283626556,1,0.01445935666561127,1,-0.0003203264204785228,1,0.01784737408161163,1,-0.01201823446899652,1
1773072709331804160,0.6438606381416321,1,-0.03863036260008812,1,0.4924629628658295,1,-0.00899969320744276,1,0.01647902280092239,1,-0.01257744058966637,1
1773072709342396672,0.4300948977470398,1,0.04680099710822105,1,0.6813197135925293,1,-0.009685676544904709,1,0.006938168779015541,1,-0.01114133093506098,1
1773072709353040128,0.8758026361465454,1,0.01466240733861923,1,0.395165354013443,1,0.009104983881115913,1,0.002008981071412563,1,-0.01076238043606281,1
1773072709363580416,1.500473499298096,1,-0.1079790964722633,1,0.0894964411854744,1,0.01777290180325508,1,0.008805615827441216,1,-0.01197169348597527,1
1773072709374019840,1.413636684417725,1,-0.185202345252037,1,-0.0217641107738018,1,0.00916953943669796,1,0.007050417829304934,1,-0.01428859308362007,1
1773072709384357632,1.015257239341736,1,-0.05272022634744644,1,0.08437971770763397,1,-0.01590997911989689,1,0.004287741146981716,1,-0.01595672219991684,1
1773072709394592512,0.4732512831687927,1,0.1537199765443802,1,0.09379205107688904,1,-0.02225965447723866,1,-0.006955815479159355,1,-0.01360618975013494,1
1773072709404729344,0.5118898153305054,1,0.1311068832874298,1,0.02287432737648487,1,0.00550404516980052,1,-0.005768811795860529,1,-0.01101307198405266,1
1773072709414766592,1.204570651054382,1,-0.1742112040519714,1,0.07737983763217926,1,0.03430744633078575,1,0.007493420504033566,1,-0.01213303953409195,1
1773072709424705280,1.406858444213867,1,-0.2971267700195312,1,0.3690123558044434,1,0.02004197239875793,1,0.008974099531769753,1,-0.01415861956775188,1
1773072709434554112,1.022122144699097,1,-0.2090778350830078,1,0.3872502148151398,1,-0.02576083317399025,1,0.004355792887508869,1,-0.01680452562868595,1
1773072709444311296,0.5930219292640686,1,0.09252841770648956,1,0.09481456875801086,1,-0.04164096340537071,1,-0.01228746864944696,1,-0.0146664148196578,1
1773072709453973248,0.5764186382293701,1,0.1846469193696976,1,-0.2966935634613037,1,-0.0109258908778429,1,-0.01379282679408789,1,-0.01156575512140989,1
1773072709463541760,1.022769570350647,1,-0.09571350365877151,1,-0.2766174077987671,1,0.03453692048788071,1,0.0007213539211079478,1,-0.01146163232624531,1
1773072709473017344,1.150753259658813,1,-0.2271900624036789,1,0.168283611536026,1,0.03498470038175583,1,0.002922830171883106,1,-0.0135439932346344,1
1773072709482400256,0.7171803712844849,1,-0.2065346390008926,1,0.4467509984970093,1,-0.006667996291071177,1,-0.004810284357517958,1,-0.01454591657966375,1
1773072709491843840,0.3849195241928101,1,-0.0004790965467691422,1,0.1716198474168777,1,-0.02861765772104263,1,-0.01757369749248028,1,-0.01294710766524076,1
1773072709502566400,0.6745043992996216,1,0.05491705238819122,1,-0.2974258661270142,1,-0.004975197836756706,1,-0.01559684053063393,1,-0.01149378903210163,1
1773072709513186048,1.082343220710754,1,-0.1933262348175049,1,-0.3929041624069214,1,0.0222417414188385,1,-0.0009167292155325413,1,-0.01112318783998489,1
1773072709523708160,0.9421994686126709,1,-0.2051782757043839,1,-0.03043556958436966,1,0.01182607468217611,1,0.005764944013208151,1,-0.01290888898074627,1
1773072709534129152,0.4266015291213989,1,-0.1240308433771133,1,0.2082989811897278,1,-0.02130849473178387,1,-0.007831902243196964,1,-0.01320740301162004,1
1773072709544448512,0.2449516952037811,1,0.09456206113100052,1,-0.03471211344003677,1,-0.02327211014926434,1,-0.01639717072248459,1,-0.01129862572997808,1
1773072709554669568,0.7070420980453491,1,-0.01412146352231503,1,-0.3257343769073486,1,0.01518499199301004,1,-0.009393269196152687,1,-0.009691675193607807,1
1773072709564791040,1.087100386619568,1,-0.2282995283603668,1,-0.1933501660823822,1,0.03418812900781631,1,0.004574454855173826,1,-0.01080066524446011,1
1773072709574814976,0.8044090867042542,1,-0.2220038324594498,1,0.2039488554000854,1,0.001186833716928959,1,0.009972750209271908,1,-0.01315776631236076,1
1773072709584743424,0.2122588157653809,1,-0.03066551499068737,1,0.2943005561828613,1,-0.03556113317608833,1,-0.006935447920113802,1,-0.01375796459615231,1
1773072709594577664,0.1765673011541367,1,0.1515608280897141,1,-0.0878070741891861,1,-0.02669491805136204,1,-0.01560233067721128,1,-0.01155149936676025,1
1773072709604316416,0.7690532207489014,1,0.004015635699033737,1,-0.4079411327838898,1,0.02365409582853317,1,-0.004632313270121813,1,-0.0106272641569376,1
1773072709613987328,1.070282816886902,1,-0.1580763161182404,1,-0.04184967651963234,1,0.04260195046663284,1,0.0113794207572937,1,-0.01200861018151045,1
1773072709623568640,0.723013699054718,1,-0.2613378763198853,1,0.4730314910411835,1,0.0008462914265692234,1,0.01281463075429201,1,-0.01472952868789434,1
1773072709633057792,0.2112137824296951,1,0.04674811288714409,1,0.4184640049934387,1,-0.0360494963824749,1,-0.00569863710552454,1,-0.01522863656282425,1
1773072709642456064,0.3067897856235504,1,0.1322141736745834,1,-0.0374528132379055,1,-0.01337226666510105,1,-0.01298958249390125,1,-0.01266530808061361,1
1773072709652206336,0.8564550876617432,1,0.01466081291437149,1,-0.2099057585000992,1,0.03202445432543755,1,0.003258736338466406,1,-0.0129717942327261,1
1773072709662892544,0.9036434888839722,1,-0.1952074319124222,1,0.2023686319589615,1,0.03601493313908577,1,0.01408031582832336,1,-0.01514840219169855,1
1773072709673475840,0.5417500734329224,1,-0.1174857094883919,1,0.5320468544960022,1,-0.0102789169177413,1,0.006731926929205656,1,-0.01672736927866936,1
1773072709683955456,0.3866807818412781,1,0.1313503086566925,1,0.1948789656162262,1,-0.03148545697331429,1,-0.009894284419715405,1,-0.01535332296043634,1
1773072709694333696,0.6956198215484619,1,0.002341330051422119,1,-0.2106906920671463,1,0.005976570304483175,1,-0.005256946198642254,1,-0.01414558757096529,1
1773072709704610560,0.9635239243507385,1,-0.1732773184776306,1,0.03865769132971764,1,0.0349673330783844,1,0.00786955002695322,1,-0.01595004089176655,1
1773072709714786048,0.7352372407913208,1,-0.08611056953668594,1,0.4917483627796173,1,0.01283618900924921,1,0.0108330836519599,1,-0.01710429415106773,1
1773072709724862208,0.4037018120288849,1,0.02842455357313156,1,0.5505752563476562,1,-0.01795804686844349,1,0.0005194554105401039,1,-0.0157132726162672,1
1773072709734853120,0.6446943283081055,1,-0.0336364284157753,1,0.1658783257007599,1,-0.01393609028309584,1,-0.008663604035973549,1,-0.01501959469169378,1
1773072709744752128,1.050565242767334,1,-0.0602630041539669,1,-0.110795721411705,1,0.01551013439893723,1,-0.002339362632483244,1,-0.01653057709336281,1
1773072709754555392,0.9200103282928467,1,-0.1525923311710358,1,0.2178890407085419,1,0.02549915760755539,1,0.008403108455240726,1,-0.01693953014910221,1
1773072709764263424,0.5983675122261047,1,0.01837444119155407,1,0.5724363923072815,1,0.000270297983661294,1,0.001488570007495582,1,-0.01670957915484905,1
1773072709773876736,0.7159934043884277,1,0.04027029126882553,1,0.2519935667514801,1,-0.01194211933761835,1,-0.010233324021101,1,-0.01499852351844311,1
1773072709783395072,0.9800890684127808,1,-0.2187395542860031,1,-0.1722665578126907,1,0.006185185164213181,1,-0.007014341652393341,1,-0.01481320057064295,1
1773072709792822272,0.9320800304412842,1,-0.09361083060503006,1,0.03671081364154816,1,0.02073467150330544,1,0.004830099642276764,1,-0.01690701954066753,1
1773072709802157824,0.6741483211517334,1,-0.02239703945815563,1,0.4567709565162659,1,0.01151940412819386,1,0.001967115793377161,1,-0.01523035112768412,1
1773072709812311040,0.7894497513771057,1,-0.08873334527015686,1,0.311618447303772,1,-0.008021224290132523,1,-0.003899179631844163,1,-0.01438952703028917,1
1773072709822969088,1.023928165435791,1,-0.2019177377223969,1,-0.1053397059440613,1,-0.00985341239720583,1,-0.004364992491900921,1,-0.01466169953346252,1
1773072709833524736,0.9067562222480774,1,-0.1161994189023972,1,-0.1238522082567215,1,0.005461220163851976,1,0.001119881868362427,1,-0.0156475305557251,1
1773072709843978240,0.7418925166130066,1,-0.09228889644145966,1,0.177601158618927,1,0.009500168263912201,1,0.000653446710202843,1,-0.0145974038168788,1
1773072709854330880,0.8097757697105408,1,-0.1348271071910858,1,0.1164902150630951,1,-0.001862696255557239,1,-0.003974077757447958,1,-0.01408693846315145,1
1773072709864582912,0.8476504683494568,1,-0.1996453106403351,1,-0.0967707484960556,1,-0.006172390654683113,1,-0.001747154165059328,1,-0.01419215742498636,1
1773072709874735360,0.7987155318260193,1,-0.08809920400381088,1,-0.0304266382008791,1,-0.001352036371827126,1,0.002493765903636813,1,-0.0142761766910553,1
1773072709884786688,0.7931507229804993,1,-0.09993404895067215,1,0.06765739619731903,1,0.001214913674630225,1,-0.0007593192858621478,1,-0.0127008305862546,1
1773072709894745088,0.8879958391189575,1,-0.1894854307174683,1,-0.05720513314008713,1,-0.003803739091381431,1,-0.00209223642013967,1,-0.01321048568934202,1
1773072709904621056,0.8029895424842834,1,-0.06965558975934982,1,-0.1413756012916565,1,-0.007605630904436111,1,2.311848220415413e-06,1,-0.01460712961852551,1
1773072709914400768,0.6615817546844482,1,0.06551900506019592,1,-0.05669160559773445,1,-0.003768699709326029,1,0.0001391346449963748,1,-0.01408593822270632,1
1773072709924084992,0.7018818855285645,1,-0.01829112507402897,1,-0.03928885981440544,1,0.001920591690577567,1,-0.001241132966242731,1,-0.01208061072975397,1
1773072709933675264,0.8715015649795532,1,-0.1439630091190338,1,-0.09376445412635803,1,0.008159535005688667,1,-0.001268218271434307,1,-0.01247767079621553,1
1773072709943172608,0.8399310111999512,1,-0.1052823960781097,1,-0.06335382163524628,1,0.008646768517792225,1,-0.000400750373955816,1,-0.01477308571338654,1
1773072709952577792,0.6473284363746643,1,0.08528761565685272,1,0.06784601509571075,1,0.002605579793453217,1,0.002669314853847027,1,-0.01577334478497505,1
1773072709961896192,0.6894277930259705,1,0.04063507169485092,1,0.05275622755289078,1,-0.004421379417181015,1,0.0003730580792762339,1,-0.01433240715414286,1
1773072709972488704,0.7451885938644409,1,-0.1206099614500999,1,-0.1320329904556274,1,-0.005367392208427191,1,-0.002065715147182345,1,-0.01388753484934568,1
1773072709983130880,0.7223348021507263,1,-0.008901346474885941,1,-0.1457561254501343,1,0.004119244404137135,1,-0.001001741271466017,1,-0.01626331172883511,1
1773072709993669120,0.6527964472770691,1,-0.0001557748764753342,1,0.07006464898586273,1,0.0153498612344265,1,-0.0006423041922971606,1,-0.01536796521395445,1
1773072710004104448,0.6850908398628235,1,-0.1785935759544373,1,0.155058965086937,1,0.007522466592490673,1,-0.00298696244135499,1,-0.01508951373398304,1
1773072710014439936,0.7455272674560547,1,-0.141982838511467,1,0.0472257062792778,1,-0.003975830506533384,1,-0.002777560148388147,1,-0.01585609093308449,1
1773072710024677376,0.6477179527282715,1,-0.09848807752132416,1,0.05999389663338661,1,-0.00545711861923337,1,0.00133691867813468,1,-0.01610128581523895,1
1773072710034815232,0.646898627281189,1,-0.09092193841934204,1,0.176760345697403,1,-0.007750592660158873,1,0.004182709846645594,1,-0.01624672673642635,1
1773072710044855296,0.7322671413421631,1,-0.1171366721391678,1,0.139770969748497,1,-0.01084245275706053,1,0.001037450507283211,1,-0.01548231299966574,1
1773072710054797568,0.6869387626647949,1,-0.1162032932043076,1,0.09140114486217499,1,-0.008967108093202114,1,0.001105798641219735,1,-0.01604911498725414,1
1773072710064642048,0.7053729295730591,1,-0.04981182888150215,1,0.1637389063835144,1,-0.002131857210770249,1,0.001530028763227165,1,-0.01566896960139275,1
1773072710074390272,0.7538807392120361,1,-0.08934931457042694,1,0.156774714589119,1,0.004290029406547546,1,-0.002602312946692109,1,-0.01450728718191385,1
1773072710084045056,0.6524268388748169,1,-0.249293252825737,1,0.153304398059845,1,0.005904415156692266,1,-0.001959167188033462,1,-0.01318468898534775,1
1773072710093605376,0.6900103688240051,1,-0.01607344299554825,1,0.09673816710710526,1,0.001884878380224109,1,-0.003500058315694332,1,-0.01322350464761257,1
1773072710103073024,0.6871710419654846,1,-0.01122822798788548,1,0.04569615051150322,1,-0.0006304866401478648,1,0.001252401154488325,1,-0.01102937012910843,1
1773072710112447744,0.6414774060249329,1,-0.224549725651741,1,0.1367558538913727,1,-0.009729655459523201,1,0.008579039014875889,1,-0.01274926494807005,1
1773072710121883904,0.7387447357177734,1,0.02300615608692169,1,0.07477940618991852,1,-0.01891666278243065,1,0.002627289388328791,1,-0.01447939034551382,1
1773072710132603904,0.8045037984848022,1,0.1289134323596954,1,0.04521702975034714,1,-0.007782711647450924,1,0.007441278081387281,1,-0.01182845886796713,1
1773072710143219968,0.8516566753387451,1,-0.08271151036024094,1,0.2696390748023987,1,0.001345895230770111,1,0.01128686033189297,1,-0.01110936794430017,1
1773072710153734144,0.8390238881111145,1,-0.05467827245593071,1,0.3264440596103668,1,-0.003336262656375766,1,0.004027499817311764,1,-0.01225954759865999,1
1773072710164147456,0.7790799140930176,1,0.1937526613473892,1,0.1914715170860291,1,0.0004474367597140372,1,0.001526289386674762,1,-0.01127759460359812,1
1773072710174457600,0.7592343091964722,1,-0.05344695597887039,1,0.1733033955097198,1,0.009303298778831959,1,0.005224111489951611,1,-0.009643088094890118,1
1773072710184667648,0.7931208610534668,1,-0.1715916395187378,1,0.0871359258890152,1,0.005655288696289062,1,0.001004504854790866,1,-0.0123083908110857,1
1773072710194777856,0.8677753210067749,1,0.05982113629579544,1,0.05170409753918648,1,0.002366988221183419,1,0.007082652766257524,1,-0.01291077304631472,1
1773072710204789248,0.841374397277832,1,-0.08520134538412094,1,0.2031479477882385,1,-0.003580695483833551,1,0.01096687838435173,1,-0.01025008596479893,1
1773072710214703104,0.7788172960281372,1,-0.1168307587504387,1,0.2605420053005219,1,-0.01670955680310726,1,0.010920618660748,1,-0.01114496495574713,1
1773072710224530944,0.8295026421546936,1,-0.1539629101753235,1,0.1586860567331314,1,-0.02033589221537113,1,0.008284294977784157,1,-0.01100912690162659,1
1773072710234263296,0.8467183113098145,1,0.0287863127887249,1,0.07317457348108292,1,-0.01064133644104004,1,0.007976396009325981,1,-0.01091767847537994,1
1773072710243900416,0.8835752010345459,1,-0.08634977042675018,1,0.1423155963420868,1,-0.003180301515385509,1,0.009487351402640343,1,-0.0100289573892951,1
1773072710253443584,0.8281616568565369,1,-0.1347958147525787,1,0.1729863286018372,1,-0.007572641130536795,1,0.006622619926929474,1,-0.01138089038431644,1
1773072710262893824,0.8853095173835754,1,-0.04516482725739479,1,0.1291220784187317,1,-0.009640880860388279,1,0.007446098141372204,1,-0.01074612233787775,1
1773072710272251136,0.9341343641281128,1,-0.02767930179834366,1,0.005789049901068211,1,-0.001645726850256324,1,0.001637851004488766,1,-0.009880240075290203,1
1773072710281974528,0.8260536193847656,1,-0.1190741583704948,1,0.09443679451942444,1,0.0008950397022999823,1,0.007466422393918037,1,-0.009945048950612545,1
1773072710292663808,0.8259689807891846,1,0.03854172304272652,1,0.1337166875600815,1,-0.006695713847875595,1,0.004119555000215769,1,-0.01060736738145351,1
1773072710303250944,0.8107745051383972,1,0.01026265695691109,1,-0.03936904668807983,1,-0.005304062739014626,1,3.712240140885115e-05,1,-0.008546586148440838,1
1773072710313734656,0.8832135200500488,1,-0.0307636521756649,1,-0.05719276145100594,1,0.003086337586864829,1,0.002447089180350304,1,-0.009720959700644016,1
1773072710324116736,0.8701285123825073,1,0.06696322560310364,1,0.09209450334310532,1,0.008518087677657604,1,0.001310249790549278,1,-0.009551472030580044,1
1773072710334401024,0.799255907535553,1,-0.00650643790140748,1,0.1588057279586792,1,0.005744711961597204,1,-5.733671423513442e-05,1,-0.008416347205638885,1
1773072710344587520,0.8704918622970581,1,0.02834773808717728,1,0.1117999777197838,1,0.003508638823404908,1,-0.001741921179927886,1,-0.00939769484102726,1
1773072710354676480,0.8395426273345947,1,0.01829246245324612,1,0.07726050168275833,1,0.005368657875806093,1,-0.00209366693161428,1,-0.008423987776041031,1
1773072710364665856,0.8777755498886108,1,0.06076152995228767,1,0.08091741800308228,1,0.005736502818763256,1,-0.003881856799125671,1,-0.008446734398603439,1
1773072710374558464,0.7733067274093628,1,-0.02847463823854923,1,0.07921484857797623,1,0.004064410924911499,1,-0.004915654193609953,1,-0.007937534712255001,1
1773072710384354048,0.7663962841033936,1,0.02339424192905426,1,0.0586785301566124,1,0.004927482455968857,1,-0.006046201102435589,1,-0.008704263716936111,1
1773072710394054912,0.7961704730987549,1,0.01612764224410057,1,0.02873876690864563,1,0.01051727775484324,1,-0.00727545702829957,1,-0.007346871308982372,1
1773072710403662848,0.7964996099472046,1,-0.1015906408429146,1,0.1070171073079109,1,0.01218439172953367,1,-0.003622811520472169,1,-0.007531376555562019,1
1773072710413176320,0.7782207131385803,1,0.03008031658828259,1,0.1816076040267944,1,0.002382167149335146,1,-0.005132477264851332,1,-0.006788375787436962,1
1773072710422597120,0.6718416810035706,1,0.01251416467130184,1,0.07103899121284485,1,-0.006163852289319038,1,-0.006219379138201475,1,-0.005403274204581976,1
1773072710431926528,0.7081312537193298,1,-0.09153375774621964,1,-0.01507369428873062,1,-0.001564313424751163,1,-0.004234794061630964,1,-0.005710863042622805,1
1773072710442077184,0.8070723414421082,1,-0.06084924191236496,1,-0.03416896983981133,1,0.004789039026945829,1,-0.004841068293899298,1,-0.005675140768289566,1
1773072710452735744,0.7291062474250793,1,0.01373019441962242,1,0.09041175246238708,1,0.009240215644240379,1,-0.0005582764861173928,1,-0.004071235656738281,1
1773072710463292672,0.6219893097877502,1,-0.1821563243865967,1,0.2764064371585846,1,0.002034404780715704,1,-0.0005492784548550844,1,-0.004176630172878504,1
1773072710473749760,0.6752778887748718,1,-0.08937551081180573,1,0.1844284236431122,1,-0.00823453813791275,1,-0.004641998559236526,1,-0.005379112903028727,1
1773072710484105472,0.773521363735199,1,-0.08972867578268051,1,0.07794483006000519,1,-0.005209388211369514,1,-0.0006720619276165962,1,-0.004394604824483395,1
1773072710494359552,0.6351960897445679,1,-0.1158964335918427,1,0.1560970395803452,1,-0.003044511424377561,1,-0.0004218159010633826,1,-0.00389222614467144,1
1773072710504515072,0.5982908606529236,1,0.005470437929034233,1,0.1886782348155975,1,-0.004725914914160967,1,-0.002111204899847507,1,-0.003593679051846266,1
1773072710514570752,0.7478727698326111,1,-0.1443361192941666,1,0.01537868566811085,1,-0.003935087006539106,1,-0.00583539204671979,1,-0.00381767051294446,1
1773072710524528640,0.7158563733100891,1,-0.1754117906093597,1,-0.08646212518215179,1,0.0003319354727864265,1,-0.003130350261926651,1,-0.005447042174637318,1
1773072710534390528,0.7077081203460693,1,0.004212363623082638,1,0.06769392639398575,1,0.0006335694342851639,1,-0.0001288479252252728,1,-0.004982689395546913,1
1773072710544156672,0.5304332971572876,1,-0.09160582721233368,1,0.09354062378406525,1,-0.005063064396381378,1,-0.004628743976354599,1,-0.00319859990850091,1
1773072710553827328,0.5460215210914612,1,-0.2070447653532028,1,0.05027829110622406,1,-0.01011168584227562,1,0.001377926906570792,1,-0.005633658263832331,1
1773072710563403008,0.8552796840667725,1,0.008285937830805779,1,-0.04280605539679527,1,-0.009959759190678596,1,-0.00119653798174113,1,-0.006475822068750858,1
1773072710572885760,0.7766785025596619,1,-0.09675031155347824,1,-0.09463590383529663,1,-0.004027359653264284,1,0.002537248190492392,1,-0.004224891774356365,1
1773072710582276352,0.6356210112571716,1,-0.09441923350095749,1,0.1012151092290878,1,-0.008627442643046379,1,0.008370785042643547,1,-0.006670231930911541,1
1773072710591586560,0.6254521012306213,1,0.02374442107975483,1,0.067095085978508,1,-0.009544448927044868,1,0.0001991327153518796,1,-0.00649190042167902,1
1773072710602182912,0.7452136278152466,1,-0.04094652459025383,1,-0.074129618704319,1,0.0009819944389164448,1,0.003411370096728206,1,-0.00581958144903183,1
1773072710612827136,0.8507371544837952,1,-0.1275343596935272,1,0.04775518551468849,1,0.005978948902338743,1,0.007689039688557386,1,-0.005754285957664251,1
1773072710623369472,0.7486286759376526,1,-0.07796332240104675,1,0.1617493331432343,1,-0.003614983055740595,1,0.007022789679467678,1,-0.005887310486286879,1
1773072710633809408,0.7644180059432983,1,-0.1542102694511414,1,0.05931108072400093,1,-0.01520586013793945,1,0.004917317070066929,1,-0.005314537789672613,1
1773072710644148224,0.7892693877220154,1,-0.004321026615798473,1,-0.02350707352161407,1,-0.01429319847375154,1,0.007710506673902273,1,-0.005099410656839609,1
1773072710654384384,0.8298290967941284,1,-0.1396312564611435,1,0.04703459143638611,1,-0.009236079640686512,1,0.008056187070906162,1,-0.004821351729333401,1
1773072710664521984,0.8939924836158752,1,-0.07781845331192017,1,0.06239013746380806,1,-0.01340156234800816,1,0.005862737074494362,1,-0.005066326353698969,1
1773072710674559744,0.9295429587364197,1,-0.0247196014970541,1,0.09393467754125595,1,-0.01837187819182873,1,0.009802397340536118,1,-0.003932998981326818,1
1773072710684500224,0.8407484292984009,1,-0.07364026457071304,1,0.1926736980676651,1,-0.01668144203722477,1,0.007442974485456944,1,-0.00265815039165318,1
1773072710694344448,0.8705521821975708,1,0.00840974785387516,1,0.1818881928920746,1,-0.00972345657646656,1,0.005036558490246534,1,-0.003177194390445948,1
1773072710704092160,1.045288681983948,1,0.05340813472867012,1,0.1708119660615921,1,-0.001706229755654931,1,0.007301389705389738,1,-0.00106836121995002,1
1773072710713743872,1.017524600028992,1,-0.003028936684131622,1,0.2133307307958603,1,-0.005047409795224667,1,0.008031582459807396,1,-0.001558737712912261,1
1773072710723302144,0.9690417647361755,1,0.1499167382717133,1,0.2248332798480988,1,-0.006291988305747509,1,0.006991268135607243,1,9.317943477071822e-05,1
1773072710732765184,0.9211564660072327,1,0.06327766925096512,1,0.1693221926689148,1,0.0003416774561628699,1,0.00380786182358861,1,0.0008383976528421044,1
1773072710742136832,0.9698823094367981,1,0.1687478572130203,1,0.1823283135890961,1,0.01246687024831772,1,0.005670538637787104,1,0.001540528959594667,1
1773072710751584256,1.047101855278015,1,0.1723743230104446,1,0.291823536157608,1,0.01771177351474762,1,0.007093125022947788,1,0.003286319551989436,1
1773072710762307328,0.9572789669036865,1,-0.01118588261306286,1,0.3137755393981934,1,0.009136904031038284,1,0.006819743197411299,1,0.002717284951359034,1
1773072710772925440,0.9787349700927734,1,0.1604421734809875,1,0.2497883588075638,1,0.003816828830167651,1,0.004012712743133307,1,0.001980321947485209,1
1773072710783443456,0.990202009677887,1,0.03772894293069839,1,0.07612283527851105,1,0.008280938491225243,1,-0.0004121477832086384,1,0.003690915647894144,1
1773072710793859584,0.9144225120544434,1,0.09416437894105911,1,0.07287786900997162,1,0.01739809662103653,1,0.00299929385073483,1,0.002792110200971365,1
1773072710804173312,0.8656226992607117,1,0.05095643177628517,1,0.2274709045886993,1,0.01790317706763744,1,0.004853280261158943,1,0.002820432186126709,1
1773072710814386944,0.9344139099121094,1,-0.05127621814608574,1,0.13144750893116,1,0.004859037231653929,1,-0.0009966635843738914,1,0.002845552749931812,1
1773072710824503040,0.9277965426445007,1,0.06773866713047028,1,0.01655575260519981,1,-0.0003404099843464792,1,0.002466705394908786,1,0.003459865227341652,1
1773072710834519296,0.8362504839897156,1,-0.137622281908989,1,0.08772054314613342,1,0.002305041067302227,1,0.003399002132937312,1,0.004093926399946213,1
1773072710844438784,0.8068217039108276,1,-0.09590068459510803,1,0.01236662361770868,1,0.0004128741275053471,1,-0.001703536137938499,1,0.001547315390780568,1
1773072710854272512,0.9459875822067261,1,-0.04141608253121376,1,-0.08685360103845596,1,0.001061802497133613,1,0.001697032595984638,1,0.002830540528520942,1
1773072710864013312,0.7963241338729858,1,-0.2454597055912018,1,-0.02413460798561573,1,-0.002853137673810124,1,0.002749232808127999,1,0.003916127141565084,1
1773072710873659136,0.7208265662193298,1,-0.210914209485054,1,-0.003798651043325663,1,-0.01008453033864498,1,0.002773371990770102,1,0.001197458477690816,1
1773072710883211776,0.7903258800506592,1,-0.2094102054834366,1,-0.05363328382372856,1,-0.008485598489642143,1,0.001336234156042337,1,0.001301176846027374,1
1773072710892670720,0.778864860534668,1,-0.2205661982297897,1,-0.02916284836828709,1,-0.01218402478843927,1,0.006015564780682325,1,0.0008557710680179298,1
1773072710902038272,0.7849278450012207,1,-0.1656562238931656,1,0.07887708395719528,1,-0.01907528936862946,1,0.008540687151253223,1,0.001335393288172781,1
1773072710911768064,0.6315953135490417,1,-0.1989280879497528,1,0.02286174148321152,1,-0.02522720769047737,1,0.003419305663555861,1,-0.0004511422594077885,1
1773072710922458112,0.7058688998222351,1,-0.07027373462915421,1,-0.08859157562255859,1,-0.0173729732632637,1,0.003758060978725553,1,-0.0006600408814847469,1
1773072710933045248,0.761751651763916,1,-0.03718484193086624,1,-0.04479382187128067,1,-0.003391537116840482,1,0.006657023914158344,1,0.0005101147689856589,1
1773072710943529472,0.6713516712188721,1,-0.03024900704622269,1,0.1600539535284042,1,0.002370180329307914,1,0.01032189838588238,1,0.001476784935221076,1
1773072710953915136,0.5956956744194031,1,0.084886834025383,1,0.2869444489479065,1,0.0001249054912477732,1,0.008756601251661777,1,0.001034451765008271,1
1773072710964199168,0.706401526927948,1,-0.04507533460855484,1,0.1102304905653,1,-0.00368883996270597,1,0.005189993884414434,1,0.00114071776624769,1
1773072710974382848,0.7397864460945129,1,0.08265741169452667,1,-0.03272629156708717,1,0.003788477508351207,1,0.009723694995045662,1,0.001362630282528698,1
1773072710984467968,0.7127395868301392,1,0.1193000376224518,1,0.1278026401996613,1,0.01212297286838293,1,0.01216387562453747,1,0.002372764516621828,1
1773072710994455296,0.5932468771934509,1,0.0165022537112236,1,0.1944889426231384,1,0.009474015794694424,1,0.00685880845412612,1,0.002228017430752516,1
1773072711004343808,0.669987678527832,1,0.1242069602012634,1,0.1236846074461937,1,0.001451403251849115,1,0.009691792540252209,1,0.0003921466413885355,1
1773072711014137856,0.6907912492752075,1,-0.008055946789681911,1,0.09615635126829147,1,0.0006260701338760555,1,0.00939192995429039,1,0.002150840125977993,1
1773072711023835904,0.7575435638427734,1,0.1019296199083328,1,0.07306281477212906,1,0.007495691534131765,1,0.006861650384962559,1,0.001119913998991251,1
1773072711033445376,0.7802889943122864,1,-0.04660570621490479,1,0.1020248904824257,1,0.006112972740083933,1,0.007765355054289103,1,0.001473753247410059,1
1773072711042970112,0.6997538208961487,1,0.07398629933595657,1,0.1309999972581863,1,-0.002519385423511267,1,0.005782952532172203,1,0.0005687096854671836,1
1773072711052402944,0.7154665589332581,1,0.01080425083637238,1,0.0657799169421196,1,-0.003412608988583088,1,0.002302197739481926,1,0.00209227274172008,1
1773072711061744384,0.8256486058235168,1,0.04567819088697433,1,-0.03919563442468643,1,0.006495916284620762,1,-0.002021892229095101,1,0.002114405622705817,1
1773072711071901440,0.7434931397438049,1,-0.100816085934639,1,0.05583883821964264,1,0.01426070556044579,1,0.0002021626569330692,1,0.004087303299456835,1
1773072711082559232,0.73319011926651,1,0.006735265254974365,1,0.1574795544147491,1,0.008988697081804276,1,-0.002981823403388262,1,0.003109580604359508,1
1773072711093114624,0.8078600764274597,1,-0.05170561373233795,1,0.03429863974452019,1,0.008590390905737877,1,-0.009026198647916317,1,0.006069119554013014,1
1773072711103570176,0.7637009024620056,1,-0.1175594702363014,1,0.009822549298405647,1,0.005577477626502514,1,-0.003229006659239531,1,0.005287219770252705,1
1773072711113923840,0.8240838646888733,1,-0.02779162861406803,1,0.05737747251987457,1,0.001729055074974895,1,-0.005857902579009533,1,0.004561209119856358,1
1773072711124175360,0.7042144536972046,1,-0.12760129570961,1,0.05095305666327477,1,0.0007475370075553656,1,-0.004457984119653702,1,0.004607854876667261,1
1773072711134328320,0.9100658893585205,1,-0.04716681316494942,1,0.0945775955915451,1,-0.0003435774415265769,1,-0.00526940543204546,1,0.0040364027954638,1
1773072711144381696,0.7624275684356689,1,-0.002119037788361311,1,0.1198370903730392,1,-0.00173023238312453,1,-0.008616501465439796,1,0.004769780207425356,1
1773072711154337024,0.7386603951454163,1,-0.154195249080658,1,0.1814554780721664,1,-0.004339748062193394,1,-0.006198397371917963,1,0.003387052565813065,1
1773072711164196608,0.8310453295707703,1,-0.04251575842499733,1,0.128131315112114,1,-0.009362367913126945,1,-0.009882044978439808,1,0.003446416929364204,1
1773072711173959680,0.7137811779975891,1,-0.07277678698301315,1,-0.007114460691809654,1,-0.003544092644006014,1,-0.01284037996083498,1,0.003610868705436587,1
1773072711183627776,0.7211137413978577,1,-0.0660172700881958,1,0.05420593172311783,1,0.00243165111169219,1,-0.008915632031857967,1,0.003640435636043549,1
1773072711193200384,0.7543476223945618,1,-0.1378638595342636,1,0.02281786873936653,1,-0.008296768181025982,1,-0.009800896979868412,1,0.002467855112627149,1
1773072711202680064,0.6511394381523132,1,-0.09221644699573517,1,-0.08636052906513214,1,-0.01371322944760323,1,-0.007197045721113682,1,0.003834937699139118,1
1773072711212067072,0.6233125925064087,1,-0.01307690609246492,1,-0.1230608895421028,1,-0.0100723784416914,1,-0.005495522636920214,1,0.003954118117690086,1
1773072711221371904,0.6546540260314941,1,-0.05414105206727982,1,-0.1283683925867081,1,-0.007621833588927984,1,-0.003493332769721746,1,0.003309450577944517,1
1773072711231968512,0.5991210341453552,1,-0.1101873442530632,1,-0.05823564901947975,1,-0.01338682137429714,1,0.002464953577145934,1,0.002735793590545654,1
1773072711242615040,0.5810950994491577,1,0.0305044911801815,1,-0.07290863990783691,1,-0.01621845178306103,1,-0.0006054788827896118,1,0.00319807673804462,1
1773072711253157888,0.5637279152870178,1,0.1186143383383751,1,-0.1612437069416046,1,-0.00619161780923605,1,0.0004307183844503015,1,0.004293629433959723,1
1773072711263598080,0.5501970052719116,1,-0.07724859565496445,1,-0.05838757008314133,1,-0.002243012189865112,1,0.007878352887928486,1,0.00269995303824544,1
1773072711273939200,0.5102725625038147,1,0.04040092974901199,1,0.05816786736249924,1,-0.008810486644506454,1,0.007316791452467442,1,0.002277380554005504,1
1773072711284184064,0.5465764999389648,1,0.0561184473335743,1,-0.002716332674026489,1,-0.007080023642629385,1,0.004581894725561142,1,0.003722348948940635,1
