Time,inertial-6286.188861:estLinearAccelX,inertial-6286.188861:estLinearAccelX:valid,inertial-6286.188861:estLinearAccelY,inertial-6286.188861:estLinearAccelY:valid,inertial-6286.188861:estLinearAccelZ,inertial-6286.188861:estLinearAccelZ:valid,inertial-6286.188861:estAngularRateX,inertial-6286.188861:estAngularRateX:valid,inertial-6286.188861:estAngularRateY,inertial-6286.188861:estAngularRateY:valid,inertial-6286.188861:estAngularRateZ,inertial-6286.188861:estAngularRateZ:valid
1773074353684374272,0.113525502383709,1,-0.04475356265902519,1,0.06195532530546188,1,-0.002030524658039212,1,0.0006280014058575034,1,-0.0007926418329589069,1
1773074353694477312,0.09417190402746201,1,-0.04734858497977257,1,0.06506580859422684,1,-0.0009840877028182149,1,-0.00157439464237541,1,-0.001372205559164286,1
1773074353704481792,0.05629856139421463,1,-0.0128876781091094,1,0.04505567997694016,1,0.002395874122157693,1,-0.002709727501496673,1,-0.001408457173965871,1
1773074353714387712,0.05350106582045555,1,0.01269550714641809,1,0.02865898795425892,1,0.003653430379927158,1,-0.001235089031979442,1,-0.0008378523052670062,1
1773074353724197888,0.09101179987192154,1,-0.007619279902428389,1,0.02401104755699635,1,0.0009865676984190941,1,0.0006533776177093387,1,-0.0003914811823051423,1
1773074353733914368,0.1240686178207397,1,-0.04133022949099541,1,0.03816422075033188,1,-0.001350962789729238,1,0.0003919321170542389,1,-0.001050267368555069,1
1773074353743534848,0.1109502837061882,1,-0.05118260905146599,1,0.05231437087059021,1,-0.001181882107630372,1,-0.001125922775827348,1,-0.001773259486071765,1
1773074353753062144,0.06634098291397095,1,-0.02023639529943466,1,0.04846573621034622,1,0.002088976092636585,1,-0.00133884244132787,1,-0.001336971530690789,1
1773074353762496000,0.050335343927145,1,0.001795344636775553,1,0.0517587848007679,1,0.002621427178382874,1,-9.838592814048752e-05,1,-0.0006602022331207991,1
1773074353771838720,0.07628617435693741,1,-0.01639811508357525,1,0.0527719184756279,1,-0.001069988822564483,1,0.000796872831415385,1,-0.0005642551695927978,1
1773074353781694208,0.1026333048939705,1,-0.04714507237076759,1,0.04882406443357468,1,-0.004847182426601648,1,0.000209953504963778,1,-0.0008985027088783681,1
1773074353792354304,0.09035556763410568,1,-0.0466330274939537,1,0.03745216876268387,1,-0.004010302480310202,1,-0.001727437949739397,1,-0.001159627223387361,1
1773074353802912512,0.05438381806015968,1,-0.01010723598301411,1,0.01880902424454689,1,0.0005707929376512766,1,-0.002201060298830271,1,-0.001271866145543754,1
1773074353813367552,0.05452681332826614,1,0.01197158731520176,1,0.01705077290534973,1,0.002548721618950367,1,-0.0003914866247214377,1,-0.0009080462623387575,1
1773074353823724288,0.08735805749893188,1,-0.01356671284884214,1,0.0299666840583086,1,-0.0009744087001308799,1,0.001405124319717288,1,-0.0007939691422507167,1
1773074353833984768,0.1112497895956039,1,-0.04822579771280289,1,0.05526659265160561,1,-0.00362964509986341,1,0.001151778502389789,1,-0.001235976116731763,1
1773074353844145408,0.1013941243290901,1,-0.0514310896396637,1,0.06604406237602234,1,-0.003092415630817413,1,-0.0005130855133756995,1,-0.001817268668673933,1
1773074353854209024,0.06359025835990906,1,-0.01092926599085331,1,0.05718926340341568,1,-0.0001293006062041968,1,-0.0009669059072621167,1,-0.001817292184568942,1
1773074353864174592,0.05680397525429726,1,0.0164286382496357,1,0.05439998582005501,1,0.00132418517023325,1,0.000444503064500168,1,-0.001258877804502845,1
1773074353874042880,0.09843101352453232,1,-0.005528273992240429,1,0.04841932654380798,1,-0.0004355813434813172,1,0.0009277110802941024,1,-0.0009400863782502711,1
1773074353883815680,0.1247449591755867,1,-0.03917887061834335,1,0.0494319312274456,1,-0.001906429999507964,1,1.609744504094124e-05,1,-0.00148583750706166,1
1773074353893494272,0.09652051329612732,1,-0.03910677880048752,1,0.05196630582213402,1,0.0002430848253425211,1,-0.002109573222696781,1,-0.001814575982280076,1
1773074353903078400,0.05202541127800941,1,-0.00454286765307188,1,0.04561580717563629,1,0.004512173123657703,1,-0.00216069701127708,1,-0.00154265807941556,1
1773074353912568832,0.0567091666162014,1,0.005934429820626974,1,0.04320095852017403,1,0.005480047781020403,1,-0.0009078416042029858,1,-0.0009516121936030686,1
1773074353921965312,0.09269402176141739,1,-0.01987751200795174,1,0.03661789745092392,1,0.001104161259718239,1,0.0007635964429937303,1,-0.0007517222547903657,1
1773074353931270912,0.1206724941730499,1,-0.04683266580104828,1,0.03664214536547661,1,-0.002568942494690418,1,0.0001270379725610837,1,-0.001436660182662308,1
1773074353941707264,0.1124781966209412,1,-0.04511316120624542,1,0.03425093367695808,1,-0.001988014439120889,1,-0.001374010811559856,1,-0.001851451001130044,1
1773074353952348928,0.07173587381839752,1,-0.005477082915604115,1,0.01711562089622021,1,0.001461447216570377,1,-0.001296207192353904,1,-0.001910749357193708,1
1773074353962888960,0.05956853926181793,1,0.009003676474094391,1,0.02535567060112953,1,0.003273561596870422,1,0.0008657571161165833,1,-0.00125072686932981,1
1773074353973325824,0.08424338698387146,1,-0.01900650560855865,1,0.04983274638652802,1,-2.600922016426921e-06,1,0.001943197217769921,1,-0.001173748285509646,1
1773074353983660800,0.09949072450399399,1,-0.04370919615030289,1,0.06303340196609497,1,-0.00412310054525733,1,0.001096414867788553,1,-0.001370628946460783,1
1773074353993898240,0.07767771184444427,1,-0.04095231741666794,1,0.05851565301418304,1,-0.003595953807234764,1,-0.00121285708155483,1,-0.001738216262310743,1
1773074354004037632,0.04247341677546501,1,0.0007682722061872482,1,0.03521299734711647,1,0.0004790686361957341,1,-0.002191275358200073,1,-0.001829758519306779,1
1773074354014077440,0.05902792140841484,1,0.0186899546533823,1,0.01706400141119957,1,0.002958363154903054,1,-0.0006938150036148727,1,-0.0009286807617172599,1
1773074354024020224,0.1059042438864708,1,-0.01431718468666077,1,0.01938840746879578,1,0.001221677754074335,1,0.0009843682637438178,1,-0.0008403728133998811,1
1773074354033864448,0.1260495781898499,1,-0.04549213498830795,1,0.03747636079788208,1,-0.0001113642501877621,1,-4.880130290985107e-05,1,-0.001402737223543227,1
1773074354043613184,0.1012582927942276,1,-0.03922222182154655,1,0.05191317200660706,1,0.000692588509991765,1,-0.001606373349204659,1,-0.001727677183225751,1
1773074354053266688,0.06001006066799164,1,-0.005113426130264997,1,0.05224360525608063,1,0.002571055432781577,1,-0.0008021376561373472,1,-0.00174119183793664,1
1773074354062827776,0.05294276028871536,1,0.004504482727497816,1,0.0532521978020668,1,0.001502271858043969,1,0.0002821036032401025,1,-0.0006693883333355188,1
1773074354072293888,0.08126384764909744,1,-0.02021793648600578,1,0.04910678043961525,1,-0.003134293248876929,1,0.001176581718027592,1,-0.0006593356956727803,1
1773074354081667840,0.09609859436750412,1,-0.04723789915442467,1,0.04792309179902077,1,-0.005806224420666695,1,-8.061196422204375e-05,1,-0.001279521617107093,1
1773074354091104512,0.08733887225389481,1,-0.03469520434737206,1,0.03834284469485283,1,-0.002918917220085859,1,-0.001884308992885053,1,-0.001804605009965599,1
1773074354101835520,0.0697917640209198,1,0.0004568737931549549,1,0.02413601987063885,1,0.001789071946404874,1,-0.001702141133137047,1,-0.00155662267934531,1
1773074354112461824,0.08139020949602127,1,0.007845080457627773,1,0.0297183021903038,1,0.003422541078180075,1,6.393658986780792e-05,1,-0.001101814210414886,1
1773074354122986752,0.1125550419092178,1,-0.01048307679593563,1,0.04583228752017021,1,0.0004612794436980039,1,0.001780529972165823,1,-0.001111557241529226,1
1773074354133409536,0.1224336251616478,1,-0.04403016343712807,1,0.07613173872232437,1,-0.002885197522118688,1,0.001245137536898255,1,-0.001559324562549591,1
1773074354143728896,0.09009365737438202,1,-0.04386791586875916,1,0.07553621381521225,1,-0.002643123501911759,1,-0.0007457775063812733,1,-0.001717424718663096,1
1773074354153948928,0.04387085139751434,1,-0.01259379088878632,1,0.05471448600292206,1,0.0002346990222577006,1,-0.0006189809646457434,1,-0.001431197277270257,1
1773074354164069888,0.04578614979982376,1,-0.004145313519984484,1,0.05068426951766014,1,0.001780783873982728,1,-0.000137328912387602,1,-0.001010736916214228,1
1773074354174092288,0.08610915392637253,1,-0.0174037292599678,1,0.04014787822961807,1,-0.001420367509126663,1,0.000620062870439142,1,-0.0009904501494020224,1
1773074354184016640,0.1142054423689842,1,-0.03965529426932335,1,0.04189863055944443,1,-0.003045369172468781,1,-4.695570532931015e-05,1,-0.001508851069957018,1
1773074354193855744,0.1029977947473526,1,-0.02856168895959854,1,0.03648264333605766,1,-0.0003949024248868227,1,-0.001661704387515783,1,-0.002034396165981889,1
1773074354203599616,0.06616222113370895,1,0.007253307849168777,1,0.03302745148539543,1,0.004269067663699389,1,-0.001358076464384794,1,-0.001305233687162399,1
1773074354213248768,0.06155600398778915,1,0.003135515144094825,1,0.04686443880200386,1,0.004629021044820547,1,0.0002594845136627555,1,-0.0005653596017509699,1
1773074354222803968,0.08039966225624084,1,-0.02997040934860706,1,0.05927076563239098,1,0.0009552702540531754,1,0.0004398121091071516,1,-0.0007915113237686455,1
1773074354232265216,0.09079301357269287,1,-0.05778859928250313,1,0.05774034187197685,1,-0.002463649259880185,1,-0.0003612576692830771,1,-0.001340120332315564,1
1773074354241634304,0.07418035715818405,1,-0.03983886912465096,1,0.03695337101817131,1,-0.001669972902163863,1,-0.002383746206760406,1,-0.001957325264811516,1
1773074354251063296,0.04783096164464951,1,0.004825955722481012,1,0.009367356076836586,1,0.001186607638373971,1,-0.001872282708063722,1,-0.001514219213277102,1
1773074354261758464,0.06465508788824081,1,0.01126627344638109,1,0.007293231785297394,1,0.002434843219816685,1,0.0001961901143658906,1,-0.0006935897399671376,1
1773074354272348672,0.1098025813698769,1,-0.02343051508069038,1,0.02303791791200638,1,4.178349627181888e-05,1,0.001574992551468313,1,-0.0005040274118073285,1
1773074354282837760,0.1315105706453323,1,-0.05188046023249626,1,0.05072509869933128,1,-0.001788437250070274,1,0.0009307681466452777,1,-0.001244013663381338,1
1773074354293228800,0.09717006981372833,1,-0.03969956934452057,1,0.0731988400220871,1,-0.0006814535590820014,1,-0.0006708969012834132,1,-0.001802704879082739,1
1773074354303520768,0.0418611541390419,1,-0.001756968442350626,1,0.06709640473127365,1,0.001566419959999621,1,-0.0007603495614603162,1,-0.001533915754407644,1
1773074354313712384,0.04699152708053589,1,0.005048145074397326,1,0.04852612689137459,1,0.001391418161801994,1,0.0003280025266576558,1,-0.001044431584887207,1
1773074354323804672,0.09565022587776184,1,-0.02499018982052803,1,0.03314225748181343,1,-0.00183205446228385,1,0.0004951090668328106,1,-0.0006944078486412764,1
1773074354333797632,0.1219882443547249,1,-0.04066963866353035,1,0.02768019214272499,1,-0.004012309014797211,1,-0.0001899883936857805,1,-0.001370966085232794,1
1773074354343693056,0.1057325750589371,1,-0.02832926623523235,1,0.02008829079568386,1,-0.001441931468434632,1,-0.001847329782322049,1,-0.001426821807399392,1
1773074354353505280,0.07052061706781387,1,0.005421610549092293,1,0.008652989752590656,1,0.003470173105597496,1,-0.0007619711686857045,1,-0.001087311538867652,1
1773074354363225088,0.06629125028848648,1,0.003177457023411989,1,0.03233252465724945,1,0.004466024693101645,1,0.001115232589654624,1,-0.0003657785709947348,1
1773074354372851968,0.08667899668216705,1,-0.03130613267421722,1,0.06157266721129417,1,0.0002724615042097867,1,0.00207302370108664,1,-0.0007605255814269185,1
1773074354382388736,0.09685596078634262,1,-0.06223611533641815,1,0.08188531547784805,1,-0.004467666149139404,1,0.001260254066437483,1,-0.00156803335994482,1
1773074354391834624,0.07132390886545181,1,-0.04460445418953896,1,0.06702549755573273,1,-0.004409993998706341,1,-0.001351998071186244,1,-0.001978454412892461,1
1773074354401190656,0.04641643166542053,1,0.001356990775093436,1,0.03406782448291779,1,-0.0006796024972572923,1,-0.001599755720235407,1,-0.001577149610966444,1
1773074354411205888,0.06846859306097031,1,0.01320323534309864,1,0.01651863567531109,1,0.0008253552368842065,1,0.0003590260748751462,1,-0.0009125585202127695,1
1773074354421869312,0.1075279787182808,1,-0.01608439721167088,1,0.02147987857460976,1,-0.0008682111511006951,1,0.001727286726236343,1,-0.0007459198241122067,1
1773074354432429824,0.1209627836942673,1,-0.04243037849664688,1,0.05497988313436508,1,-0.002243069466203451,1,0.0009471518569625914,1,-0.001346258330158889,1
1773074354442887168,0.08737377822399139,1,-0.02825319394469261,1,0.07544362545013428,1,-0.000850370735861361,1,-0.0009641778888180852,1,-0.001762744737789035,1
1773074354453244928,0.04658825322985649,1,0.004906930029392242,1,0.08073462545871735,1,0.001288455445319414,1,-0.001517648459412158,1,-0.001342136180028319,1
1773074354463503616,0.05486549064517021,1,0.0137604121118784,1,0.07182247936725616,1,0.000800963316578418,1,-0.0006713312468491495,1,-0.0006135577568784356,1
1773074354473661696,0.09242049604654312,1,-0.01446888875216246,1,0.04900222271680832,1,-0.001779006561264396,1,-0.0003536065632943064,1,-0.0006842302391305566,1
1773074354483721472,0.1077755615115166,1,-0.04176702722907066,1,0.04021276161074638,1,-0.00147403939627111,1,-0.001692086108960211,1,-0.001107347197830677,1
1773074354493683712,0.08605759590864182,1,-0.02838259376585484,1,0.02969295345246792,1,0.003481975756585598,1,-0.003144859569147229,1,-0.001747222850099206,1
1773074354503548928,0.06178813055157661,1,-0.002238380024209619,1,0.02067199908196926,1,0.008476936258375645,1,-0.002293723169714212,1,-0.001242126105353236,1
1773074354513319168,0.07312636077404022,1,-0.007301509380340576,1,0.03487107530236244,1,0.007741661742329597,1,-0.0002641748287715018,1,-0.0008572896476835012,1
1773074354522996736,0.1016083508729935,1,-0.03363285586237907,1,0.04941054433584213,1,0.0006189520354382694,1,0.00155183847527951,1,-0.0007112823659554124,1
1773074354532579328,0.1060434132814407,1,-0.0601663701236248,1,0.05928236991167068,1,-0.005048012360930443,1,0.0005213322001509368,1,-0.001580961630679667,1
1773074354542067968,0.07551974803209305,1,-0.04199104756116867,1,0.04076913371682167,1,-0.005752421449869871,1,-0.0009117069421336055,1,-0.002134643960744143,1
1773074354551463424,0.04472406208515167,1,0.002385707106441259,1,0.02176488935947418,1,-0.003295492148026824,1,-0.0001338472065981477,1,-0.001714646234177053,1
1773074354560766464,0.06252871453762054,1,0.004072165582329035,1,0.02395244315266609,1,-0.002533994382247329,1,0.001161615597084165,1,-0.0007640463882125914,1
1773074354571206912,0.1102603077888489,1,-0.01565927639603615,1,0.02840890735387802,1,-0.004116678144782782,1,0.001250148983672261,1,-0.0008472181507386267,1
1773074354581851904,0.1282726377248764,1,-0.03236234933137894,1,0.04363273829221725,1,-0.004068604670464993,1,0.0002223428891738877,1,-0.001594116911292076,1
1773074354592396544,0.09167139232158661,1,-0.01742369867861271,1,0.05091981217265129,1,0.0004020905180368572,1,-0.002000859240069985,1,-0.001724554807879031,1
1773074354602839040,0.05663241446018219,1,0.01086924225091934,1,0.04138097912073135,1,0.005013132002204657,1,-0.001979089574888349,1,-0.00097200385062024,1
1773074354613179648,0.06304647773504257,1,-0.003489619586616755,1,0.03934600204229355,1,0.005172894336283207,1,-0.000231025434914045,1,-0.000409599335398525,1
1773074354623418880,0.08191452175378799,1,-0.0435500480234623,1,0.04111171513795853,1,0.001240960555151105,1,-5.944857548456639e-06,1,-0.0007855260628275573,1
1773074354633558272,0.08945406228303909,1,-0.05758600682020187,1,0.04037211090326309,1,-0.001906247111037374,1,-0.00101989193353802,1,-0.001408568350598216,1
1773074354643598848,0.07419437170028687,1,-0.03445401787757874,1,0.02639671415090561,1,-0.001666094874963164,1,-0.001742758089676499,1,-0.001662611146457493,1
1773074354653551104,0.06227206811308861,1,0.001110105076804757,1,0.02104252576828003,1,4.955708573106676e-05,1,-0.0006308149313554168,1,-0.001187741290777922,1
1773074354663408640,0.08869949728250504,1,0.002669217297807336,1,0.03487051278352737,1,0.0002600029110908508,1,0.001435235841199756,1,-0.0006419525598175824,1
1773074354673169664,0.1283446699380875,1,-0.02689430117607117,1,0.05994876474142075,1,-0.002222426002845168,1,0.001882958691567183,1,-0.001058995258063078,1
1773074354682835968,0.1152902543544769,1,-0.03838285803794861,1,0.08914384245872498,1,-0.003741731634363532,1,0.0004769974912051111,1,-0.001521179918199778,1
1773074354692408576,0.05803394317626953,1,-0.01919438503682613,1,0.08872232586145401,1,-0.001157498452812433,1,-0.00160259276162833,1,-0.002000060630962253,1
1773074354701886208,0.02685588225722313,1,0.003682984970510006,1,0.07500840723514557,1,0.003016047412529588,1,-0.001946556614711881,1,-0.001575643313117325,1
1773074354711272704,0.05376926064491272,1,-0.004496852867305279,1,0.04882353544235229,1,0.003370542777702212,1,-0.001498381840065122,1,-0.0009895814582705498,1
1773074354720720896,0.09990933537483215,1,-0.02809521369636059,1,0.02619947865605354,1,0.0009158659959211946,1,-0.00125326297711581,1,-0.00105700921267271,1
1773074354731450880,0.1255809813737869,1,-0.03940778225660324,1,0.02139100059866905,1,-5.757373583037406e-05,1,-0.002001794753596187,1,-0.00176085252314806,1
1773074354742077952,0.1034087389707565,1,-0.02188976481556892,1,0.008562917821109295,1,0.001847276347689331,1,-0.001907638390548527,1,-0.001910907216370106,1
1773074354752604160,0.06848288327455521,1,-0.004154590889811516,1,0.02422171458601952,1,0.00465663243085146,1,0.0001377407170366496,1,-0.001361713511869311,1
1773074354763037440,0.06849785149097443,1,-0.02051502093672752,1,0.06090689077973366,1,0.002662212355062366,1,0.002288324292749166,1,-0.0008033644407987595,1
1773074354773372672,0.08419356495141983,1,-0.04811587184667587,1,0.08186435699462891,1,-0.003940664697438478,1,0.00222637876868248,1,-0.001029169303365052,1
1773074354783609344,0.07608260214328766,1,-0.04896555840969086,1,0.07963328808546066,1,-0.008884475566446781,1,-5.330803105607629e-06,1,-0.001834809547290206,1
1773074354793749760,0.04278213903307915,1,-0.02088239043951035,1,0.04172972589731216,1,-0.006379716098308563,1,-0.002228148747235537,1,-0.001677363179624081,1
1773074354803791872,0.04915445670485497,1,0.01611817069351673,1,0.003711683908477426,1,0.0003578527248464525,1,-0.002053339267149568,1,-0.001113324658945203,1
1773074354813737728,0.09522219747304916,1,0.004623337648808956,1,-0.0145569546148181,1,0.003904333105310798,1,-0.0005578269483521581,1,-0.0004714090609923005,1
1773074354823590912,0.1320657432079315,1,-0.03009193390607834,1,0.01384558714926243,1,0.003844094695523381,1,0.000323338492307812,1,-0.0007713360246270895,1
1773074354833349376,0.1262605637311935,1,-0.04199381917715073,1,0.05428259074687958,1,0.002219637855887413,1,6.533408304676414e-05,1,-0.001539580873213708,1
1773074354843011840,0.08084387332201004,1,-0.03073498606681824,1,0.07330133020877838,1,0.002151531400159001,1,-0.0006451441440731287,1,-0.001737211714498699,1
1773074354852580608,0.05096016451716423,1,-0.01166895311325788,1,0.07630399614572525,1,0.002092228503897786,1,-8.887332660378888e-05,1,-0.001023461925797164,1
1773074354862055680,0.0605468861758709,1,-0.0225662849843502,1,0.06138616427779198,1,-0.001474702614359558,1,0.0008154548122547567,1,-0.0007637274102307856,1
1773074354871437056,0.08967514336109161,1,-0.0455239862203598,1,0.04399432986974716,1,-0.00565648265182972,1,0.0002907028829213232,1,-0.001149226678535342,1
1773074354881028352,0.08494115620851517,1,-0.03991241753101349,1,0.02924436144530773,1,-0.0062708780169487,1,-0.0008089707116596401,1,-0.002040576655417681,1
1773074354891721728,0.06288452446460724,1,-0.01137896999716759,1,0.01556955743581057,1,-0.00145905464887619,1,-0.001611001673154533,1,-0.002082264982163906,1
1773074354902311680,0.06893452256917953,1,0.01010395586490631,1,0.02839360386133194,1,0.003082930808886886,1,-0.0007632208289578557,1,-0.001343960291706026,1
1773074354912798464,0.09904816746711731,1,-0.003534117480739951,1,0.04344413802027702,1,0.002006714697927237,1,0.0006677648052573204,1,-0.0007942898664623499,1
1773074354923183104,0.1285264045000076,1,-0.03388937935233116,1,0.07192955911159515,1,-0.001342517556622624,1,0.0006673999596387148,1,-0.001352619263343513,1
1773074354933475840,0.118622712790966,1,-0.03996821120381355,1,0.08274704962968826,1,-0.003364832606166601,1,-0.0004074153257533908,1,-0.002016006503254175,1
1773074354943672576,0.07005127519369125,1,-0.01575702056288719,1,0.05896849557757378,1,-0.00152692524716258,1,-0.001219964819028974,1,-0.001965154660865664,1
1773074354953770752,0.04030031710863113,1,0.004559566266834736,1,0.04248078539967537,1,0.001472449977882206,1,-0.0004295588587410748,1,-0.001337170018814504,1
1773074354963770880,0.05529694631695747,1,-0.007740254048258066,1,0.03871102631092072,1,0.0008635616977699101,1,6.055412086425349e-05,1,-0.001259573036804795,1
1773074354973673984,0.08958569169044495,1,-0.0277781318873167,1,0.03187994286417961,1,-0.001720787608064711,1,6.118629971751943e-05,1,-0.001827190280891955,1
1773074354983479808,0.09730184078216553,1,-0.02757097780704498,1,0.0402103029191494,1,-0.002447776030749083,1,-0.001397621119394898,1,-0.002337000798434019,1
1773074354993189888,0.06975043565034866,1,-0.004297484643757343,1,0.03013792634010315,1,0.0003956305154133588,1,-0.00211958447471261,1,-0.00207621743902564,1
1773074355002807552,0.06952595710754395,1,0.01061409059911966,1,0.02706416137516499,1,0.004234529566019773,1,-0.0007544667460024357,1,-0.001009901752695441,1
1773074355012331264,0.09797871857881546,1,-0.01839564368128777,1,0.04251227527856827,1,0.003245237749069929,1,0.0008500426192767918,1,-0.0007148018921725452,1
1773074355021761024,0.1122569590806961,1,-0.04841754585504532,1,0.05821218714118004,1,-0.0002960196288768202,1,0.0005419339286163449,1,-0.001430189586244524,1
1773074355031099392,0.09615360945463181,1,-0.0439734160900116,1,0.06393132358789444,1,-0.002935094758868217,1,-0.0005203961627557874,1,-0.002050373703241348,1
1773074355041104640,0.05450385436415672,1,-0.009824842214584351,1,0.04297425225377083,1,-0.001869073486886919,1,-0.00133185216691345,1,-0.001812547561712563,1
1773074355051768576,0.041609987616539,1,0.005936386063694954,1,0.0250856839120388,1,0.001181134022772312,1,-0.000547080475371331,1,-0.001189450500532985,1
1773074355062327808,0.0721161887049675,1,-0.0193506982177496,1,0.01787511073052883,1,0.001356142340227962,1,0.0004350132076069713,1,-0.0006951182731427252,1
1773074355072783872,0.1072384640574455,1,-0.04735938832163811,1,0.03125875815749168,1,8.340194472111762e-05,1,9.47844673646614e-05,1,-0.00131132104434073,1
1773074355083142144,0.1008608639240265,1,-0.04070672020316124,1,0.0501600056886673,1,-0.0001752835814841092,1,-0.001135999569669366,1,-0.001915982342325151,1
1773074355093400320,0.06674361228942871,1,-0.01709127239882946,1,0.0499952957034111,1,0.001305810175836086,1,-0.001276320079341531,1,-0.00177775404881686,1
1773074355103558656,0.05842923745512962,1,-0.008013607002794743,1,0.04964642971754074,1,0.003171252319589257,1,3.434109385125339e-05,1,-0.00106996379327029,1
1773074355113617664,0.09084471315145493,1,-0.02600504085421562,1,0.05016439780592918,1,0.0007565183332189918,1,0.001350680366158485,1,-0.001042762189172208,1
1773074355123578624,0.1168277263641357,1,-0.04732023924589157,1,0.0552457682788372,1,-0.003773005912080407,1,0.001089946017600596,1,-0.001646135933697224,1
1773074355133442304,0.100460946559906,1,-0.03474899008870125,1,0.04874568432569504,1,-0.005247705616056919,1,-0.0005686345393769443,1,-0.001763215055689216,1
1773074355143209216,0.05729014798998833,1,-0.007243312895298004,1,0.02835956588387489,1,-0.001832765061408281,1,-0.001061478280462325,1,-0.001907421741634607,1
1773074355152883456,0.04150010645389557,1,0.0001325737684965134,1,0.02794812992215157,1,0.002664211671799421,1,0.0001989860320463777,1,-0.001103984424844384,1
1773074355162463488,0.07505162060260773,1,-0.0216587670147419,1,0.03909632563591003,1,0.001795194577425718,1,0.00143578986171633,1,-0.001016835100017488,1
1773074355171950848,0.1061210259795189,1,-0.04664699733257294,1,0.05712639912962914,1,-0.002120895311236382,1,0.000942918355576694,1,-0.00147477223072201,1
1773074355181353472,0.09902693331241608,1,-0.04058376327157021,1,0.06455212831497192,1,-0.004911341704428196,1,-0.0004371186660137028,1,-0.001999234780669212,1
1773074355190669056,0.07101371139287949,1,-0.01069777086377144,1,0.04550506919622421,1,-0.002714050933718681,1,-0.0008086713496595621,1,-0.001987758558243513,1
1773074355201112576,0.07123619318008423,1,0.006262866780161858,1,0.03506168350577354,1,-0.0001508871791884303,1,0.0005064459983259439,1,-0.001274478272534907,1
1773074355211760896,0.0966324657201767,1,-0.01187530718743801,1,0.03624897822737694,1,-0.0004750785883516073,1,0.001886310987174511,1,-0.001144071109592915,1
1773074355222305280,0.1056652590632439,1,-0.03792563453316689,1,0.05434436723589897,1,-0.002473171800374985,1,0.001569090876728296,1,-0.001704339170828462,1
1773074355232746496,0.08028262853622437,1,-0.0358719490468502,1,0.06295377761125565,1,-0.003255090210586786,1,-7.277742406586185e-05,1,-0.002267062896862626,1
1773074355243086336,0.04113835096359253,1,-0.007149109151214361,1,0.05063626915216446,1,-0.0003052045940421522,1,-0.0008660381427034736,1,-0.001875517074950039,1
1773074355253326080,0.05237088352441788,1,0.007125758565962315,1,0.03938579931855202,1,0.002129263943061233,1,-0.0002003748377319425,1,-0.001154272817075253,1
1773074355263463680,0.1067356839776039,1,-0.009891416877508163,1,0.03235149011015892,1,0.0007712797960266471,1,0.0006780139519833028,1,-0.0005213178810663521,1
1773074355273508096,0.1334969848394394,1,-0.0329040139913559,1,0.04418502002954483,1,-0.001551698427647352,1,0.0001065215037669986,1,-0.001002158969640732,1
1773074355283472896,0.1097615510225296,1,-0.02506952546536922,1,0.05570046603679657,1,-0.0006501906318590045,1,-0.001166264060884714,1,-0.001697488245554268,1
1773074355293340672,0.06711956858634949,1,-0.004594848025590181,1,0.06143239140510559,1,0.002749301725998521,1,-0.001596215413883328,1,-0.001343608368188143,1
1773074355303112448,0.05493276566267014,1,-0.006302377209067345,1,0.06072778627276421,1,0.004694935865700245,1,-0.001263373880647123,1,-0.0007817938458174467,1
1773074355312788992,0.0749845951795578,1,-0.02913538366556168,1,0.05458085611462593,1,0.0020075764041394,1,-0.0005966632743366063,1,-0.0006547876400873065,1
1773074355322370304,0.08938199281692505,1,-0.05118449777364731,1,0.04184551537036896,1,-0.001168941031210124,1,-0.001897511887364089,1,-0.001195355085656047,1
1773074355331858688,0.07804055511951447,1,-0.04113170132040977,1,0.01538990437984467,1,-0.001653301762416959,1,-0.003133479971438646,1,-0.001494926516897976,1
1773074355341254656,0.05350404605269432,1,-0.01496437005698681,1,-0.008846770040690899,1,0.001326124416664243,1,-0.001932255690917373,1,-0.001612344873137772,1
1773074355350711296,0.06398794054985046,1,-0.01439725421369076,1,-0.004107867833226919,1,0.002692706417292356,1,0.0007471471326425672,1,-0.001053025829605758,1
1773074355361438208,0.1049013808369637,1,-0.031515933573246,1,0.02423431724309921,1,-0.000575440819375217,1,0.002283544279634953,1,-0.001131889061070979,1
1773074355372059392,0.1179210618138313,1,-0.04314786568284035,1,0.05835624039173126,1,-0.006249985657632351,1,0.00181630824226886,1,-0.001961849397048354,1
1773074355382576896,0.08275911211967468,1,-0.02144381776452065,1,0.06731728464365005,1,-0.008643968030810356,1,0.0007244326407089829,1,-0.002574652200564742,1
1773074355392992256,0.04078743606805801,1,0.0147380530834198,1,0.05871181935071945,1,-0.00619835639372468,1,0.0002119224373018369,1,-0.001989078242331743,1
1773074355403305984,0.04968811199069023,1,0.01278987154364586,1,0.04037840664386749,1,-0.001819093362428248,1,0.0001966791314771399,1,-0.00115052261389792,1
1773074355413533952,0.08447460830211639,1,-0.01519956067204475,1,0.02806212194263935,1,0.0004218280082568526,1,-4.552134123514406e-05,1,-0.001221154117956758,1
1773074355423661568,0.1036577299237251,1,-0.03122005425393581,1,0.03936158865690231,1,0.001829191693104804,1,-0.001098612323403358,1,-0.002123301383107901,1
1773074355433691136,0.08714484423398972,1,-0.01621046289801598,1,0.03921755403280258,1,0.002639602171257138,1,-0.002079574391245842,1,-0.002238915069028735,1
1773074355443623168,0.06485571712255478,1,0.004162499215453863,1,0.03839942067861557,1,0.004552516154944897,1,-0.001070682192221284,1,-0.001493425690568984,1
1773074355453458944,0.06855808198451996,1,-0.01037570647895336,1,0.05030164122581482,1,0.005205052439123392,1,0.0007662351708859205,1,-0.0007808594964444637,1
1773074355463197184,0.09986919164657593,1,-0.04150649905204773,1,0.06911587715148926,1,0.002346719615161419,1,0.00158475455828011,1,-0.0007858576718717813,1
1773074355472842240,0.09758896380662918,1,-0.05127226188778877,1,0.08596264570951462,1,-0.002674723509699106,1,0.0004337170103099197,1,-0.001832196256145835,1
1773074355482392320,0.05325618758797646,1,-0.03052409738302231,1,0.07613825052976608,1,-0.003736439859494567,1,-0.0009375713998451829,1,-0.002044321736320853,1
1773074355491849728,0.02907546609640121,1,-0.001501250546425581,1,0.05182771012187004,1,-7.794777047820389e-05,1,-0.001407793490216136,1,-0.001490334281697869,1
1773074355501214464,0.05277888849377632,1,-0.009543201886117458,1,0.02806401811540127,1,0.003361986484378576,1,-0.0003733925404958427,1,-0.0006180055206641555,1
1773074355510791424,0.1054282560944557,1,-0.0278860405087471,1,0.02321317419409752,1,0.003213763935491443,1,0.00021979863231536,1,-0.0006180315976962447,1
1773074355521487616,0.1316922903060913,1,-0.04141006991267204,1,0.04404628649353981,1,0.0007777918362990022,1,-0.0002118716365657747,1,-0.00121512683108449,1
1773074355532083200,0.1064482778310776,1,-0.03108597546815872,1,0.04628343135118484,1,0.0002806730335578322,1,-0.001235638745129108,1,-0.001391137018799782,1
1773074355542577408,0.07072324305772781,1,-0.01205943059176207,1,0.04853371903300285,1,0.002270163269713521,1,9.125156793743372e-06,1,-0.001268729800358415,1
1773074355552969472,0.06702151149511337,1,-0.02676442079246044,1,0.06297630071640015,1,0.002472797874361277,1,0.001517349039204419,1,-0.0006479363073594868,1
1773074355563259392,0.08954384177923203,1,-0.04607755690813065,1,0.07003886997699738,1,-0.001900768605992198,1,0.00113983207847923,1,-0.0009739118395373225,1
1773074355573449472,0.09035619348287582,1,-0.04160691797733307,1,0.05809740349650383,1,-0.007512166630476713,1,-0.0001606958103366196,1,-0.001785907428711653,1
1773074355583539712,0.06302764266729355,1,-0.01653590984642506,1,0.03055497072637081,1,-0.007212752476334572,1,-0.002101775724440813,1,-0.001821790472604334,1
1773074355593533696,0.05551076307892799,1,0.01415449474006891,1,-0.003431724384427071,1,-0.002271495293825865,1,-0.001767856767401099,1,-0.001143008703365922,1
1773074355603433728,0.08986988663673401,1,0.005058844108134508,1,-0.01493857242166996,1,0.002137229312211275,1,0.0002026008296525106,1,-0.000270518270554021,1
1773074355613238272,0.1301803737878799,1,-0.02940960600972176,1,0.02197438105940819,1,0.003048043698072433,1,0.0005668869125656784,1,-0.0003908315557055175,1
1773074355622948352,0.1253245174884796,1,-0.04068230465054512,1,0.05966445803642273,1,0.0003732579643838108,1,-8.167405758285895e-05,1,-0.00162269698921591,1
1773074355632578304,0.08572632074356079,1,-0.02922484837472439,1,0.08311161398887634,1,-0.0006669450085610151,1,-0.001028131693601608,1,-0.002141123870387673,1
1773074355642118144,0.04759245738387108,1,-0.004666806198656559,1,0.07234714925289154,1,-0.0001779343001544476,1,-0.001014151144772768,1,-0.001692316262051463,1
1773074355651566080,0.05705129727721214,1,-0.009309083223342896,1,0.0477033406496048,1,5.389392754295841e-05,1,3.842174919554964e-05,1,-0.0009052589302882552,1
1773074355660922368,0.09509678930044174,1,-0.03759151324629784,1,0.03160107135772705,1,-0.001961563946679235,1,-0.000217256267205812,1,-0.00117863854393363,1
1773074355670937600,0.09136699140071869,1,-0.03810122609138489,1,0.02202612906694412,1,-0.003317889990285039,1,-0.001141974818892777,1,-0.00210533756762743,1
1773074355681603328,0.06040948256850243,1,-0.01609352044761181,1,0.02030694298446178,1,-3.468402428552508e-05,1,-0.002114673145115376,1,-0.002208763035014272,1
1773074355692167680,0.05301831290125847,1,0.003501198021695018,1,0.02164793573319912,1,0.004141144920140505,1,-0.001249745488166809,1,-0.001554903225041926,1
1773074355702632448,0.07437174022197723,1,-0.01201623678207397,1,0.0326743870973587,1,0.004146741237491369,1,0.0006129151443019509,1,-0.001011990825645626,1
1773074355712997376,0.1052372008562088,1,-0.03910894319415092,1,0.05712538585066795,1,0.001320769661106169,1,0.001108885509893298,1,-0.0009946842910721898,1
1773074355723262720,0.1071812063455582,1,-0.04645470902323723,1,0.072681725025177,1,-0.002757082227617502,1,0.0003172505821567029,1,-0.001718618208542466,1
1773074355733429760,0.07485605776309967,1,-0.02176813408732414,1,0.05115049704909325,1,-0.002207960700616241,1,-0.000642536033410579,1,-0.001935842796228826,1
1773074355743502592,0.04884818568825722,1,0.004561423789709806,1,0.03777414187788963,1,0.0008141108555719256,1,-0.000233938975725323,1,-0.001286014448851347,1
1773074355753483264,0.05813368782401085,1,-0.004339887294918299,1,0.03128042444586754,1,0.001410752302035689,1,0.0009132181876339018,1,-0.0006325286231003702,1
1773074355763369984,0.09384635835886002,1,-0.02789971604943275,1,0.04112884774804115,1,9.536504512652755e-05,1,0.001014031236991286,1,-0.0005923681310378015,1
1773074355773163776,0.0948999896645546,1,-0.03066420741379261,1,0.06163940578699112,1,-0.002260772045701742,1,9.047322964761406e-05,1,-0.001457156264223158,1
1773074355782865920,0.06540311872959137,1,-0.006311416625976562,1,0.05505707114934921,1,-0.001126705901697278,1,-0.001205938053317368,1,-0.001534604583866894,1
1773074355792475136,0.0604482926428318,1,0.01746588200330734,1,0.04500509425997734,1,0.002232121769338846,1,-0.001077572582289577,1,-0.0007527329144068062,1
1773074355801999360,0.08498072624206543,1,-0.007980278693139553,1,0.04113404080271721,1,0.002908383030444384,1,-6.915042467880994e-05,1,-8.945164154283702e-05,1
1773074355811433216,0.1156680732965469,1,-0.03192208707332611,1,0.04493439570069313,1,0.001881803851574659,1,0.0002507773751858622,1,-0.0007122599636204541,1
1773074355820775168,0.1155467182397842,1,-0.04084349051117897,1,0.06502097100019455,1,-0.0005083705764263868,1,-0.0006112020928412676,1,-0.001299399184063077,1
1773074355831222528,0.07679297029972076,1,-0.01481298450380564,1,0.05106249451637268,1,-0.000945136824157089,1,-0.001414927188307047,1,-0.001831151312217116,1
1773074355841867264,0.05199042335152626,1,0.004213761072605848,1,0.04306301102042198,1,0.001108649419620633,1,-0.0004705484898295254,1,-0.001091738231480122,1
1773074355852412416,0.06699924170970917,1,-0.01486886385828257,1,0.04428200051188469,1,0.002181204501539469,1,0.0001253471127711236,1,-0.0004508084093686193,1
1773074355862859776,0.1039610281586647,1,-0.03785984963178635,1,0.04401830956339836,1,0.0004001027555204928,1,4.252040525898337e-05,1,-0.0009341991972178221,1
1773074355873204992,0.1092274487018585,1,-0.04128005728125572,1,0.05712337419390678,1,-0.001790677779354155,1,-0.001288264989852905,1,-0.001726883463561535,1
1773074355883448064,0.07156593352556229,1,-0.01955623552203178,1,0.04302489012479782,1,-0.001258480362594128,1,-0.002151060849428177,1,-0.001833690912462771,1
1773074355893592832,0.05971644446253777,1,-0.0007309293141588569,1,0.02941507287323475,1,0.003361575538292527,1,-0.001071110251359642,1,-0.001190101145766675,1
1773074355903638272,0.08464273810386658,1,-0.01718025095760822,1,0.03547955304384232,1,0.003993379883468151,1,0.0003210147842764854,1,-0.0006150853005237877,1
1773074355913586176,0.1132788807153702,1,-0.0364830419421196,1,0.04671370610594749,1,0.0007260443526320159,1,0.0004600613901857287,1,-0.001005501602776349,1
1773074355923445760,0.1179315745830536,1,-0.04142399877309799,1,0.04828323796391487,1,-0.002395443618297577,1,-0.0003774007200263441,1,-0.001821203622967005,1
1773074355933210112,0.07913593947887421,1,-0.02316942438483238,1,0.05012549832463264,1,-0.002091381698846817,1,-0.001706692622974515,1,-0.002107813255861402,1
1773074355942879232,0.03848497197031975,1,0.00283002108335495,1,0.02660330757498741,1,0.001024093246087432,1,-0.000958563236054033,1,-0.001538458047434688,1
1773074355952454144,0.05192424729466438,1,-0.01157971285283566,1,0.02947263978421688,1,0.002668202156201005,1,0.0008245654753409326,1,-0.001116051920689642,1
1773074355961936384,0.08783718198537827,1,-0.03995529934763908,1,0.04783114790916443,1,-0.0008988147601485252,1,0.0002460095565766096,1,-0.001378442044369876,1
1773074355971324928,0.09336927533149719,1,-0.03899817168712616,1,0.04316221922636032,1,-0.003784316591918468,1,-0.001105773146264255,1,-0.001866667764261365,1
1773074355980775936,0.06680255383253098,1,-0.01515605673193932,1,0.03634711727499962,1,-0.002475711982697248,1,-0.001725684036500752,1,-0.0019373525865376,1
1773074355991502592,0.05075956135988235,1,0.008309764787554741,1,0.02660439908504486,1,0.001361218863166869,1,-0.0008288469980470836,1,-0.001062401686795056,1
1773074356002125312,0.0747675895690918,1,-0.005131283774971962,1,0.02711527422070503,1,0.003263571299612522,1,0.0005183903267607093,1,-0.0004296981496736407,1
1773074356012646656,0.1085501611232758,1,-0.04368480667471886,1,0.05516376718878746,1,0.001408188603818417,1,0.00092325359582901,1,-0.0008042723638936877,1
1773074356023066880,0.1055013239383698,1,-0.05718287080526352,1,0.07267946004867554,1,-0.0006918860599398613,1,-0.0006584016373381019,1,-0.001758057740516961,1
1773074356033386240,0.07193478941917419,1,-0.03048841282725334,1,0.06828614324331284,1,-0.0004900486674159765,1,-0.002001569140702486,1,-0.001856128685176373,1
1773074356043606272,0.03870071098208427,1,-0.002998376497998834,1,0.04841714724898338,1,0.0009965762728825212,1,-0.001731647411361337,1,-0.001519473269581795,1
1773074356053725952,0.06183144822716713,1,-0.005245069973170757,1,0.02726422995328903,1,0.0009828628972172737,1,-2.042594132944942e-06,1,-0.0008105068700388074,1
1773074356063747328,0.1101838350296021,1,-0.03609961643815041,1,0.03191881254315376,1,-0.001262047444470227,1,0.000355761731043458,1,-0.001022321870550513,1
1773074356073669376,0.1096240729093552,1,-0.04754431545734406,1,0.04171626642346382,1,-0.00328114815056324,1,-0.0007059155614115298,1,-0.001907575060613453,1
1773074356083497216,0.0686463788151741,1,-0.02387360483407974,1,0.04403696209192276,1,-0.000921386294066906,1,-0.001631485181860626,1,-0.002082958118990064,1
1773074356093228544,0.05024333670735359,1,0.008783405646681786,1,0.03828543052077293,1,0.001148359151557088,1,-0.000378351571271196,1,-0.001650402788072824,1
1773074356102875904,0.07021734863519669,1,0.006869470234960318,1,0.04650682210922241,1,-0.0003884310426656157,1,0.001423688721843064,1,-0.001062597963027656,1
1773074356112429568,0.1035531759262085,1,-0.02892723865807056,1,0.05020963400602341,1,-0.003157528350129724,1,0.001451828284189105,1,-0.001121376757510006,1
1773074356121889280,0.1194060444831848,1,-0.03779926523566246,1,0.05561864003539085,1,-0.004107526037842035,1,7.517443737015128e-05,1,-0.001549955923110247,1
1773074356131257600,0.08968344330787659,1,-0.01931188255548477,1,0.05365479737520218,1,-0.001553925569169223,1,-0.001451860880479217,1,-0.001785583328455687,1
1773074356140838400,0.05642809718847275,1,0.005017170682549477,1,0.02685833163559437,1,0.003098642686381936,1,-0.00115304091013968,1,-0.001242689904756844,1
1773074356151532800,0.07760917395353317,1,-0.006676149554550648,1,0.03242833539843559,1,0.005435465835034847,1,0.0008598361746408045,1,-0.0007847663364373147,1
1773074356162124800,0.1096507012844086,1,-0.04512575268745422,1,0.05206618458032608,1,0.003341356525197625,1,0.0004881647764705122,1,-0.001227666856721044,1
1773074356172613376,0.1084608882665634,1,-0.04776559770107269,1,0.05915489420294762,1,5.548309127334505e-05,1,-0.0005461125983856618,1,-0.002454999601468444,1
1773074356182999296,0.07366589456796646,1,-0.03197981789708138,1,0.05863146111369133,1,0.0006441543227992952,1,-0.002008405048400164,1,-0.001942917937412858,1
1773074356193290752,0.05188333243131638,1,-0.004333778284490108,1,0.02306388318538666,1,0.002428749809041619,1,-0.001549823791719973,1,-0.001298281014896929,1
1773074356203482112,0.08027967065572739,1,-0.008162188343703747,1,0.02281633391976357,1,0.001199770020321012,1,0.0007750631193630397,1,-0.0008858077926561236,1
1773074356213574912,0.110457256436348,1,-0.04764943569898605,1,0.03168967366218567,1,-0.0009520378080196679,1,0.0004193738277535886,1,-0.00101398047991097,1
1773074356223570176,0.1161260828375816,1,-0.05347453430294991,1,0.03342122212052345,1,-0.001936832559294999,1,-0.0002758852788247168,1,-0.001996617531403899,1
1773074356233468160,0.07417447865009308,1,-0.03378220275044441,1,0.05221769213676453,1,-0.0002745987439993769,1,-0.001636397792026401,1,-0.002009897958487272,1
1773074356243269120,0.03519105166196823,1,-0.006048793904483318,1,0.0312184039503336,1,0.001856025890447199,1,-0.001481169136241078,1,-0.001271999790333211,1
1773074356252974848,0.05793927609920502,1,-0.0130952438339591,1,0.03157826513051987,1,0.00154599139932543,1,-0.0002122014120686799,1,-0.0006234077736735344,1
1773074356262587648,0.09657250344753265,1,-0.04095897823572159,1,0.02112792991101742,1,-0.002403625287115574,1,-0.0004183576093055308,1,-0.0005985761526972055,1
1773074356272105728,0.09923204779624939,1,-0.04466450586915016,1,0.01690737716853619,1,-0.004192863591015339,1,-0.001540944096632302,1,-0.001418937696143985,1
1773074356281530368,0.07121431827545166,1,-0.0160664152354002,1,0.01361172460019588,1,-0.002060158411040902,1,-0.001630844897590578,1,-0.00166503491345793,1
1773074356290863616,0.04804009944200516,1,0.006158298347145319,1,0.01722091995179653,1,0.0008238605805672705,1,-0.0004492973384913057,1,-0.001142602530308068,1
1773074356300866816,0.06705396622419357,1,0.005309712141752243,1,0.03087848797440529,1,-0.0004453368601389229,1,0.001733381883241236,1,-0.0008246935904026031,1
1773074356311532288,0.1031800955533981,1,-0.02018719725310802,1,0.06546876579523087,1,-0.00384515174664557,1,0.002543886657804251,1,-0.001025012112222612,1
1773074356322093824,0.1048099994659424,1,-0.03401433303952217,1,0.08778797090053558,1,-0.006769089493900537,1,0.0008167820051312447,1,-0.001408488140441477,1
1773074356332552704,0.06826087832450867,1,-0.004225973971188068,1,0.0685102567076683,1,-0.004075479228049517,1,-0.0004935700562782586,1,-0.001681096269749105,1
1773074356342910464,0.04651876911520958,1,0.02096834406256676,1,0.0626181960105896,1,0.001419139909557998,1,-3.703856054926291e-05,1,-0.00136809831019491,1
1773074356353171712,0.07455062866210938,1,0.02034001052379608,1,0.05700748786330223,1,0.002561145927757025,1,0.001360823167487979,1,-0.0008986596367321908,1
1773074356363334912,0.1169918179512024,1,-0.006252552848309278,1,0.06354550272226334,1,0.0007130876765586436,1,0.001787726883776486,1,-0.001148910261690617,1
1773074356373397760,0.1106504127383232,1,-0.02419787831604481,1,0.0815417543053627,1,-0.000870903895702213,1,0.0003214289899915457,1,-0.001741950050927699,1
1773074356383362816,0.06657509505748749,1,0.008812364190816879,1,0.070637047290802,1,0.0002559111162554473,1,-0.0004778575676027685,1,-0.002163455821573734,1
1773074356393230336,0.05229966342449188,1,0.03113753721117973,1,0.06304028630256653,1,0.002245006151497364,1,-4.628527676686645e-06,1,-0.001412111916579306,1
1773074356403001344,0.0677662119269371,1,0.005561346653848886,1,0.04257374256849289,1,0.001835761126130819,1,0.0006528148078359663,1,-0.000629476853646338,1
1773074356412677632,0.08456315100193024,1,-0.02791059017181396,1,0.04498592019081116,1,0.001457391539588571,1,0.0005809806170873344,1,-0.0007434779545292258,1
1773074356422260224,0.09740401804447174,1,-0.04532017931342125,1,0.04827548936009407,1,0.001721039530821145,1,-0.001292734174057841,1,-0.001561344601213932,1
1773074356431749376,0.07308939099311829,1,-0.0252233911305666,1,0.03111349046230316,1,0.002430304186418653,1,-0.002164482371881604,1,-0.001448770752176642,1
1773074356441145344,0.05803465843200684,1,-0.01199885923415422,1,0.02253968454897404,1,0.004419919103384018,1,-0.0009957243455573916,1,-0.0008522390853613615,1
1773074356450449664,0.09066366404294968,1,-0.02474020048975945,1,0.03089211881160736,1,0.003355213440954685,1,0.001119364984333515,1,-0.0001932322629727423,1
1773074356460889600,0.1278593093156815,1,-0.05900169163942337,1,0.04875988513231277,1,-8.229704690165818e-05,1,0.0008051821496337652,1,-0.0005925432778894901,1
1773074356471534848,0.1155393868684769,1,-0.068863645195961,1,0.0539439469575882,1,-0.001072033774107695,1,-0.0004301166627556086,1,-0.001029281062074006,1
1773074356482078464,0.05772554129362106,1,-0.03626179322600365,1,0.06853847205638885,1,-0.001303929835557938,1,-0.0008612847304902971,1,-0.001411001663655043,1
1773074356492518912,0.0285932831466198,1,-0.01055261865258217,1,0.04546255618333817,1,0.0006831914070062339,1,-0.0006865065079182386,1,-0.0008131613722071052,1
1773074356502856448,0.05490824207663536,1,-0.02704666741192341,1,0.04198664054274559,1,0.0004327694186940789,1,-8.229620289057493e-05,1,-0.000422706623794511,1
1773074356513094400,0.09901478886604309,1,-0.03953339904546738,1,0.02943702787160873,1,-0.002873454242944717,1,-0.0004404098144732416,1,-0.0008496197406202555,1
1773074356523232000,0.1277386248111725,1,-0.04147784411907196,1,0.01736987754702568,1,-0.00198497879318893,1,-0.00198640488088131,1,-0.001515445997938514,1
1773074356533270016,0.1030429229140282,1,-0.02260832861065865,1,0.008836584165692329,1,0.0007431504782289267,1,-0.003124944865703583,1,-0.001706911716610193,1
1773074356543211520,0.06624995172023773,1,-0.000559396343305707,1,-0.008729190565645695,1,0.0040413080714643,1,-0.001104422379285097,1,-0.001138290739618242,1
1773074356553060864,0.07206182181835175,1,-0.02631248906254768,1,0.01802664250135422,1,0.004420222248882055,1,0.001351796789094806,1,-0.0005775740137323737,1
1773074356562828800,0.09239127486944199,1,-0.06667213886976242,1,0.05607286095619202,1,-0.002354090334847569,1,0.001051721745170653,1,-0.001048060599714518,1
1773074356572502016,0.07231917977333069,1,-0.07545105367898941,1,0.06541472673416138,1,-0.00773211196064949,1,-0.0004271161160431802,1,-0.001924955053254962,1
1773074356582081024,0.02972586825489998,1,-0.04870741069316864,1,0.05644668266177177,1,-0.007343596778810024,1,-0.001518924720585346,1,-0.002039210172370076,1
1773074356591566848,0.02764111943542957,1,-0.01308899000287056,1,0.02922584861516953,1,-0.004475586116313934,1,-0.0007632048800587654,1,-0.001575288479216397,1
1773074356600959488,0.08309932053089142,1,-0.01673267036676407,1,0.01745308376848698,1,-0.002433426445350051,1,0.00109879148658365,1,-0.0008537074900232255,1
1773074356610413056,0.1317740231752396,1,-0.04067445918917656,1,0.02951607666909695,1,-0.00213703466579318,1,0.001882661017589271,1,-0.001313155400566757,1
1773074356621142784,0.131093442440033,1,-0.0445840023458004,1,0.06881970167160034,1,-0.0005644024349749088,1,0.001169708790257573,1,-0.002181621268391609,1
1773074356631770112,0.08421929180622101,1,-0.00699248630553484,1,0.08025834709405899,1,0.001464524189941585,1,0.0002380816440563649,1,-0.002089467598125339,1
1773074356642300160,0.04376337304711342,1,0.02456966042518616,1,0.07891365140676498,1,0.001872989698313177,1,0.0008365624235011637,1,-0.001585919177159667,1
1773074356652731392,0.04863040149211884,1,0.01386611070483923,1,0.07418373972177505,1,-0.002119014970958233,1,0.001181540545076132,1,-0.001242216792888939,1
1773074356663062016,0.07987885922193527,1,-0.01191133446991444,1,0.04855845123529434,1,-0.005649743136018515,1,-0.0001083405513782054,1,-0.001267517451196909,1
1773074356673294592,0.08127441257238388,1,-0.02054652199149132,1,0.03633930534124374,1,-0.005360129289329052,1,-0.002341309329494834,1,-0.001564991776831448,1
1773074356683429120,0.05984817817807198,1,0.006498395465314388,1,0.008590042591094971,1,0.001290230313315988,1,-0.002870844909921288,1,-0.001729961368255317,1
1773074356693466624,0.06786694377660751,1,0.01959187909960747,1,0.03796473890542984,1,0.006793731823563576,1,-0.001737136393785477,1,-0.001232086680829525,1
1773074356703407872,0.1053047776222229,1,0.002208395628258586,1,0.05646828562021255,1,0.005762345157563686,1,-0.0004809802339877933,1,-0.0006244819960556924,1
1773074356713263104,0.1331264525651932,1,-0.0374225452542305,1,0.05677539110183716,1,0.003829354420304298,1,0.0004093256429769099,1,-0.0009316506329923868,1
1773074356723033856,0.1148589998483658,1,-0.05922066792845726,1,0.1041323691606522,1,0.001912561943754554,1,-0.001724111731164157,1,-0.001822603750042617,1
1773074356732709888,0.05090180039405823,1,-0.03444143384695053,1,0.05349398031830788,1,0.001761983847245574,1,-0.003717612940818071,1,-0.002103355713188648,1
1773074356742291456,0.01912946999073029,1,-0.008393297903239727,1,0.001589504070580006,1,0.004286270122975111,1,-0.00239881407469511,1,-0.001307890517637134,1
1773074356751780608,0.04346301779150963,1,-0.02562092244625092,1,-0.009564880281686783,1,0.002348325680941343,1,-0.0005845517734996974,1,-0.0009190789423882961,1
1773074356761175552,0.07730700075626373,1,-0.04523203894495964,1,-0.00901870708912611,1,-0.004152812529355288,1,-0.001175849698483944,1,-0.001281045726500452,1
1773074356770777600,0.09513439983129501,1,-0.03899671137332916,1,-0.03541270643472672,1,-0.004970581270754337,1,-0.001217904733493924,1,-0.001706021721474826,1
1773074356781472000,0.08715683966875076,1,-0.01535267475992441,1,-0.002674559131264687,1,-0.00161494524218142,1,9.63527854764834e-05,1,-0.001877009053714573,1
1773074356792066560,0.0765048936009407,1,0.02084022387862206,1,0.0434640496969223,1,-0.0002216692519141361,1,0.001281882519833744,1,-0.001049683196470141,1
1773074356802562304,0.1015574634075165,1,-0.002475429093465209,1,0.05901603028178215,1,-0.0001851684501161799,1,0.003099770518019795,1,-0.0004845635558012873,1
1773074356812959232,0.12972292304039,1,-0.04808175563812256,1,0.1175859346985817,1,-0.002585571259260178,1,0.002152139320969582,1,-0.001180383609607816,1
1773074356823256064,0.09741843491792679,1,-0.04488292336463928,1,0.1094846352934837,1,-0.003868754021823406,1,-0.001183308660984039,1,-0.001795103307813406,1
1773074356833455616,0.05444075539708138,1,-0.01770826801657677,1,0.06426257640123367,1,0.001537977601401508,1,-0.003226503729820251,1,-0.002037105150520802,1
1773074356843558144,0.05609401687979698,1,-0.002983949612826109,1,0.04240934550762177,1,0.005031389649957418,1,-0.003248986788094044,1,-0.001102037727832794,1
1773074356853564416,0.09043943136930466,1,-0.01604875177145004,1,0.004976002499461174,1,0.003583018900826573,1,-0.001858390285633504,1,-0.0009642941877245903,1
1773074356863507200,0.1291221976280212,1,-0.04837026447057724,1,0.00635091494768858,1,0.001265798695385456,1,-0.0004561311507131904,1,-0.001189238508231938,1
1773074356873355776,0.1224411725997925,1,-0.05456786975264549,1,0.05297034978866577,1,-0.001262992154806852,1,-0.0005542964790947735,1,-0.001572993118315935,1
1773074356883108864,0.07200012356042862,1,-0.02724078483879566,1,0.06644514203071594,1,-0.001815521740354598,1,-0.0004825398500543088,1,-0.00156018661800772,1
1773074356892767488,0.05130177363753319,1,-0.007003765553236008,1,0.08892430365085602,1,-0.001804934116080403,1,0.0008160214056260884,1,-0.0008322222856804729,1
1773074356902331392,0.07457064092159271,1,-0.01582766324281693,1,0.09944164007902145,1,-0.00528644910082221,1,0.00142064702231437,1,-0.0005862161051481962,1
1773074356911802624,0.1006762087345123,1,-0.03031355887651443,1,0.09003392606973648,1,-0.008213222958147526,1,-0.0004406844091136009,1,-0.001303187804296613,1
1773074356921180672,0.09953836351633072,1,-0.02292214147746563,1,0.06587649136781693,1,-0.006963749416172504,1,-0.003502269042655826,1,-0.002030377043411136,1
1773074356931202560,0.06590530276298523,1,0.0112517736852169,1,0.0288348775357008,1,-0.001093335216864944,1,-0.004699594341218472,1,-0.002112290123477578,1
1773074356941858816,0.05871948972344398,1,0.03423473238945007,1,0.01914678886532784,1,0.004413323011249304,1,-0.003340237075462937,1,-0.001534243114292622,1
1773074356952412160,0.0829249694943428,1,0.005513809155672789,1,0.03537149354815483,1,0.00265214592218399,1,-0.001771291019394994,1,-0.001114211627282202,1
1773074356962862080,0.09993231296539307,1,-0.03320973366498947,1,0.04434765130281448,1,-0.001894707442261279,1,-0.001707558869384229,1,-0.001573030953295529,1
1773074356973211136,0.07279184460639954,1,-0.02659461088478565,1,0.05441481992602348,1,-0.004361895844340324,1,-0.002550953067839146,1,-0.002022250788286328,1
1773074356983456256,0.02221920341253281,1,0.00426719943061471,1,0.03153791278600693,1,-0.0038107018917799,1,-0.002720092656090856,1,-0.001810785615816712,1
1773074356993613824,0.02228430658578873,1,0.01985401287674904,1,0.00275895232334733,1,-0.00158794061280787,1,-0.001541119068861008,1,-0.001041956711560488,1
1773074357003672576,0.05725665390491486,1,0.002166789723560214,1,-0.01277441717684269,1,-0.002032771706581116,1,5.415800114860758e-05,1,-0.0006612856523133814,1
1773074357013633280,0.08389846980571747,1,-0.01861895248293877,1,-0.01291279867291451,1,-0.001623687683604658,1,0.0005865579005330801,1,-0.0009498788276687264,1
1773074357023496960,0.09090515971183777,1,-0.0206423569470644,1,-0.006377012934535742,1,0.001976907486096025,1,0.0001675790263107046,1,-0.001413219841197133,1
1773074357033263616,0.06003864854574203,1,-0.005417876876890659,1,0.002494679298251867,1,0.007275501731783152,1,6.82306126691401e-05,1,-0.001097370986826718,1
1773074357042935040,0.04745529592037201,1,0.003123938804492354,1,0.01759052835404873,1,0.01072557829320431,1,0.001566486898809671,1,-6.083027983549982e-05,1
1773074357052511488,0.07242383062839508,1,-0.02810665220022202,1,0.04978099092841148,1,0.008278296329081059,1,0.002973068039864302,1,0.0003588742692954838,1
1773074357061996288,0.09231036901473999,1,-0.05473531410098076,1,0.0736943706870079,1,0.002259113360196352,1,0.002077066106721759,1,-0.0003712350444402546,1
1773074357071387648,0.07610619068145752,1,-0.05571672320365906,1,0.07110513001680374,1,-0.0006724839913658798,1,0.0004723386082332581,1,-0.00102255551610142,1
1773074357080687104,0.04753801971673965,1,-0.03012115322053432,1,0.04986723139882088,1,0.0007914395537227392,1,-0.0004097344353795052,1,-0.0008948580943979323,1
1773074357091276544,0.06416816264390945,1,-0.01534243673086166,1,0.02532700076699257,1,0.003158648265525699,1,0.0008554269443266094,1,-0.0006754689384251833,1
1773074357101917184,0.1187883913516998,1,-0.03520700708031654,1,0.02817026525735855,1,0.00255347415804863,1,0.001767966197803617,1,-0.0005485126166604459,1
1773074357112454656,0.1490508317947388,1,-0.0643918365240097,1,0.03968609124422073,1,0.001297945738770068,1,0.001025114324875176,1,-0.0008998720441013575,1
1773074357122889216,0.1224170699715614,1,-0.06982138007879257,1,0.05622823908925056,1,0.002394967479631305,1,-6.4314495830331e-05,1,-0.001638346933759749,1
1773074357133222656,0.07408442348241806,1,-0.05441488698124886,1,0.0715254470705986,1,0.004719012882560492,1,-0.0004933770978823304,1,-0.001234685420058668,1
1773074357143452416,0.04417546465992928,1,-0.05326778441667557,1,0.08558008074760437,1,0.005002397578209639,1,0.0003329109167680144,1,-0.0006218458293005824,1
1773074357153584640,0.07531508803367615,1,-0.07304777204990387,1,0.08744484931230545,1,0.0003207846311852336,1,0.0008796389447525144,1,-0.0004620249092113227,1
1773074357163619840,0.1085437536239624,1,-0.09123649448156357,1,0.07452450692653656,1,-0.005958855617791414,1,-0.0008212199900299311,1,-0.001240420853719115,1
1773074357173565696,0.1039803177118301,1,-0.07102897763252258,1,0.04487572610378265,1,-0.008878915570676327,1,-0.002180055947974324,1,-0.001780362683348358,1
1773074357183414528,0.08446739614009857,1,-0.01237171515822411,1,0.009299423545598984,1,-0.00558485509827733,1,-0.001572103705257177,1,-0.001685348455794156,1
1773074357193166336,0.08951684087514877,1,0.008240936324000359,1,0.0119749465957284,1,-0.002546091796830297,1,0.0006601972272619605,1,-0.0005561138968914747,1
1773074357202823168,0.1105321049690247,1,-0.00908967200666666,1,0.03728291019797325,1,-0.002637878991663456,1,0.002380278659984469,1,-0.000132645494886674,1
1773074357212386816,0.1190909966826439,1,-0.03850116953253746,1,0.09258358925580978,1,-0.004345698282122612,1,0.001129356445744634,1,-0.0009177832398563623,1
1773074357221855232,0.07441446185112,1,-0.03291366249322891,1,0.1101412922143936,1,-0.004705017898231745,1,-0.001510202884674072,1,-0.001548197120428085,1
1773074357231234048,0.02300667762756348,1,0.01158770173788071,1,0.07820869237184525,1,-0.002128960797563195,1,-0.003065857104957104,1,-0.001508664921857417,1
1773074357240673792,0.03076007217168808,1,0.02377077378332615,1,0.0467153936624527,1,-0.0008605032926425338,1,-0.002803870942443609,1,-0.0007736666011624038,1
1773074357251399424,0.07880624383687973,1,0.004463192541152239,1,-0.002030578907579184,1,-0.002339754486456513,1,-0.001989117125049233,1,-0.001118412241339684,1
1773074357262021120,0.1111348569393158,1,-0.01459620706737041,1,-0.01763967797160149,1,-0.003033570945262909,1,-0.001827623578719795,1,-0.001810202258639038,1
1773074357272542208,0.08974763005971909,1,-0.008896430023014545,1,0.00182736967690289,1,-0.003013828303664923,1,-0.001745213405229151,1,-0.002388441702350974,1
1773074357282961408,0.04402945935726166,1,0.02469980716705322,1,0.01624075882136822,1,-0.0006137017626315355,1,-0.0004761638410855085,1,-0.00219421018846333,1
1773074357293277952,0.0375489704310894,1,0.03935777023434639,1,0.0411488451063633,1,-0.001071145408786833,1,0.00167615432292223,1,-0.001336597022600472,1
1773074357303494656,0.0611710399389267,1,0.0124002555385232,1,0.06014865264296532,1,-0.004240849055349827,1,0.002334230579435825,1,-0.001299806986935437,1
1773074357313611520,0.07774706929922104,1,-0.01328098028898239,1,0.06819809973239899,1,-0.005459611769765615,1,0.0002711515116970986,1,-0.001792368944734335,1
1773074357323634944,0.06214866414666176,1,-0.0001045858953148127,1,0.04814376682043076,1,-0.003054993692785501,1,-0.00207811314612627,1,-0.002327226335182786,1
1773074357333568256,0.03689441457390785,1,0.0265833418816328,1,0.01406596414744854,1,0.004397902172058821,1,-0.002106295665726066,1,-0.001737905782647431,1
1773074357343405056,0.04838402196764946,1,0.02705533802509308,1,0.009566395543515682,1,0.009202525019645691,1,-0.0006999763427302241,1,-0.00102583912666887,1
1773074357353146112,0.08921037614345551,1,-0.00737264659255743,1,0.01950584538280964,1,0.008214285597205162,1,0.0006874859682284296,1,-0.0008401524391956627,1
1773074357362792704,0.1154560819268227,1,-0.04155324026942253,1,0.04999210312962532,1,0.005282746627926826,1,0.000738241767976433,1,-0.001230985857546329,1
1773074357372344064,0.09875532239675522,1,-0.04832062497735023,1,0.07409059256315231,1,0.00270588812418282,1,-0.0003490161034278572,1,-0.001610374543815851,1
1773074357381802496,0.05594640225172043,1,-0.02301943115890026,1,0.06621963530778885,1,0.003054648172110319,1,-0.0007914844900369644,1,-0.001467832364141941,1
1773074357391169024,0.06424834579229355,1,-0.01522809080779552,1,0.05275031924247742,1,0.00301561295054853,1,0.0006031867815181613,1,-0.0009581035701557994,1
1773074357400747520,0.1006028652191162,1,-0.04548228904604912,1,0.05469761416316032,1,-0.0001996547798626125,1,0.001098129549063742,1,-0.0009426778415217996,1
1773074357411435264,0.1151594445109367,1,-0.06348422169685364,1,0.0451384149491787,1,-0.002543205628171563,1,-0.0002578093844931573,1,-0.001369529752992094,1
1773074357422020352,0.1038283854722977,1,-0.05459585413336754,1,0.04833140224218369,1,-0.001073638908565044,1,-0.001665367628447711,1,-0.001982963643968105,1
1773074357432502528,0.07372685521841049,1,-0.02119453996419907,1,0.04052964597940445,1,0.001414794940501451,1,-0.001653710496611893,1,-0.001391938421875238,1
1773074357442884096,0.08224575966596603,1,-0.007570113521069288,1,0.03247944265604019,1,0.002551906276494265,1,0.0002194755361415446,1,-0.0003023624012712389,1
1773074357453169664,0.1212751790881157,1,-0.04265322163701057,1,0.05546487495303154,1,0.000124425656395033,1,0.001271943561732769,1,-0.0002446498838253319,1
1773074357463355136,0.1316350847482681,1,-0.06604952365159988,1,0.05307706445455551,1,-0.003005396109074354,1,0.0001389943063259125,1,-0.001035541412420571,1
1773074357473439744,0.09384683519601822,1,-0.04959084466099739,1,0.05202276632189751,1,-0.002782761584967375,1,-0.001421244232915342,1,-0.001818398479372263,1
1773074357483427072,0.04436230286955833,1,-0.008217370137572289,1,0.03569205105304718,1,-0.0007585322018712759,1,-0.001423321780748665,1,-0.001826260122470558,1
1773074357493316608,0.05046999081969261,1,0.001958505250513554,1,0.0236140675842762,1,9.711996972328052e-05,1,-0.0003086965880356729,1,-0.0009673080057837069,1
1773074357503109888,0.09869629144668579,1,-0.02308369986712933,1,0.0165560394525528,1,-0.002050877083092928,1,0.0005761380307376385,1,-0.0007108299760147929,1
1773074357512808960,0.1213726028800011,1,-0.04398475959897041,1,0.02398853562772274,1,-0.002925780136138201,1,-0.000593361328355968,1,-0.001183298998512328,1
1773074357522413568,0.1030163690447807,1,-0.03735924512147903,1,0.03268742933869362,1,-0.0006645585526712239,1,-0.002168334554880857,1,-0.001652294304221869,1
1773074357531924736,0.05930600687861443,1,-0.005068467929959297,1,0.02537904307246208,1,0.003649827791377902,1,-0.001681950874626637,1,-0.001505343127064407,1
1773074357541342464,0.05449294298887253,1,-0.003989330492913723,1,0.04453283920884132,1,0.004511091392487288,1,0.0002975795941893011,1,-0.001034690300002694,1
1773074357550684416,0.09476997703313828,1,-0.02963326312601566,1,0.05585364252328873,1,0.0006253846222534776,1,0.0007002718048170209,1,-0.0009843619773164392,1
1773074357560841728,0.08637107908725739,1,-0.03082803264260292,1,0.05425864458084106,1,-0.005141730420291424,1,0.0004768747603520751,1,-0.001456531696021557,1
1773074357571499008,-0.01690587401390076,1,0.03149577602744102,1,0.07204531133174896,1,-0.008962297812104225,1,-0.001096227555535734,1,-0.001396892592310905,1
1773074357582054656,-0.1516755223274231,1,0.04800955951213837,1,0.06357384473085403,1,-0.008983191102743149,1,-0.003796729957684875,1,-0.0005563187296502292,1
1773074357592507392,-0.2370525002479553,1,0.09574291110038757,1,0.02501378767192364,1,-0.005871510598808527,1,-0.005216045305132866,1,0.000127551902551204,1
1773074357602857728,-0.2046597003936768,1,0.01298517733812332,1,-0.02131781168282032,1,-0.007524637505412102,1,-0.007288958411663771,1,0.001093643950298429,1
1773074357613108736,-0.2073201984167099,1,-0.02851509861648083,1,-0.06234103068709373,1,-0.003130989149212837,1,-0.01083787716925144,1,0.001901266165077686,1
1773074357623259136,-0.2476590871810913,1,-0.05320031568408012,1,-0.07994430512189865,1,0.003479548264294863,1,-0.01298920158296824,1,0.001854132395237684,1
1773074357633310976,-0.2593800127506256,1,-0.02266116440296173,1,-0.1104697957634926,1,0.009459733963012695,1,-0.0103911142796278,1,0.003099389839917421,1
1773074357643270656,-0.1956337541341782,1,-0.04997540265321732,1,-0.07784842699766159,1,0.009336793795228004,1,-0.005095628090202808,1,0.00415583373978734,1
1773074357653138176,-0.1929212957620621,1,-0.0196309257298708,1,-0.009179972112178802,1,-0.003976882435381413,1,0.001210167887620628,1,0.005145547445863485,1
1773074357662910720,-0.2969663739204407,1,-0.07910645008087158,1,0.1047543585300446,1,-0.01575137861073017,1,0.003246418200433254,1,0.005757973063737154,1
1773074357672587008,-0.3062993884086609,1,-0.04815685749053955,1,0.142980545759201,1,-0.01808612421154976,1,-0.0003331725893076509,1,0.005296422634273767,1
1773074357682170112,-0.2261286228895187,1,-0.004512541927397251,1,0.01764213666319847,1,-0.02007667161524296,1,-0.003055009292438626,1,0.006062810774892569,1
1773074357691661056,-0.1897317916154861,1,0.06709799915552139,1,-0.05530061572790146,1,-0.01388751342892647,1,-0.002560381079092622,1,0.006589865777641535,1
1773074357701059328,-0.1503182798624039,1,0.07671031355857849,1,-0.07895444333553314,1,-0.006432149093598127,1,-0.0002210579405073076,1,0.006550224963575602,1
1773074357710367232,-0.1085254326462746,1,0.1159581989049911,1,-0.08098015189170837,1,0.005582939367741346,1,0.001103285001590848,1,0.006127902306616306,1
1773074357720960512,-0.1491270512342453,1,0.06669643521308899,1,0.05068165063858032,1,0.01516918744891882,1,0.00304227159358561,1,0.006751063745468855,1
1773074357731603968,-0.2427367120981216,1,0.02897801622748375,1,0.1464311629533768,1,0.02085686288774014,1,0.002668892266228795,1,0.006191581953316927,1
1773074357742142976,-0.2568931579589844,1,0.02771368622779846,1,0.2195423394441605,1,0.01817622408270836,1,0.001590811531059444,1,0.006404250860214233,1
1773074357752579072,-0.240838959813118,1,-0.02000532485544682,1,0.1935753375291824,1,-4.793982952833176e-06,1,-0.003081118920817971,1,0.005314143840223551,1
1773074357762918912,-0.2702577114105225,1,0.03818412125110626,1,0.01668887585401535,1,-0.007991579361259937,1,-0.0046924720518291,1,0.003757145022973418,1
1773074357773158912,-0.2856062948703766,1,0.02749363705515862,1,-0.03032603859901428,1,-0.004008867312222719,1,-0.00575747387483716,1,0.004145704675465822,1
1773074357783298816,-0.2858477830886841,1,0.04413305222988129,1,-0.1609513610601425,1,0.00427039572969079,1,-0.004784428514540195,1,0.004832366947084665,1
1773074357793339648,-0.2853159010410309,1,0.02225900813937187,1,-0.1162707358598709,1,0.007939103059470654,1,0.001538168638944626,1,0.005996313411742449,1
1773074357803284224,-0.2971729934215546,1,-0.03223200142383575,1,0.03881065547466278,1,0.00320793897844851,1,0.002794606843963265,1,0.006475997157394886,1
1773074357813131776,-0.3310665190219879,1,-0.05406597256660461,1,0.09596297889947891,1,-0.00656865444034338,1,0.001011017942801118,1,0.006743599660694599,1
1773074357822885376,-0.340703159570694,1,-0.04283779487013817,1,0.1199405714869499,1,-0.009151487611234188,1,-0.0006677014753222466,1,0.0074584586545825,1
1773074357832553216,-0.3160522878170013,1,-0.05097516626119614,1,0.1048224195837975,1,-0.008077340200543404,1,-0.002327322727069259,1,0.0085981460288167,1
1773074357842129664,-0.2585984170436859,1,-0.03790395706892014,1,0.03988118842244148,1,-0.00622226856648922,1,-0.003501704195514321,1,0.008966092020273209,1
1773074357851613440,-0.1784472614526749,1,-0.01420227531343699,1,-0.007895765826106071,1,-0.005574323702603579,1,-0.001390523742884398,1,0.009442073293030262,1
1773074357861004288,-0.1980755180120468,1,0.00163322314620018,1,0.04669379815459251,1,-0.00768603477627039,1,-0.001243973965756595,1,0.01030641980469227,1
1773074357870455040,-0.2763874232769012,1,0.05094381794333458,1,0.04490375518798828,1,-0.00766314473003149,1,-0.0007029724074527621,1,0.0120155643671751,1
1773074357881175808,-0.313771516084671,1,0.04599324613809586,1,0.09469442814588547,1,-0.003855770220980048,1,0.0003326812875457108,1,0.01423716451972723,1
1773074357891792384,-0.3038136661052704,1,0.02046802826225758,1,0.1183812543749809,1,-0.003236690536141396,1,-0.001399970729835331,1,0.01546604372560978,1
1773074357902308608,-0.2706566452980042,1,0.01464991550892591,1,0.08668087422847748,1,-0.005328583065420389,1,-0.003848931053653359,1,0.01575375534594059,1
1773074357912723712,-0.2465508729219437,1,0.01571464352309704,1,0.03200216591358185,1,-0.003483834210783243,1,-0.006517831701785326,1,0.01571465656161308,1
1773074357923037952,-0.2492629140615463,1,0.04779282212257385,1,-0.03144193440675735,1,0.002937869168817997,1,-0.00684136338531971,1,0.01618104241788387,1
1773074357933254144,-0.2381636202335358,1,0.06528579443693161,1,-0.06007624045014381,1,0.00906249787658453,1,-0.003786423709243536,1,0.0170082114636898,1
1773074357943372288,-0.1895821541547775,1,0.03741905465722084,1,-0.02791495248675346,1,0.008935155346989632,1,0.0008297617314383388,1,0.01768811047077179,1
1773074357953398528,-0.1794810146093369,1,0.00329530262388289,1,0.04971471801400185,1,-0.0007100520888343453,1,0.0034592489246279,1,0.01768830418586731,1
1773074357963327488,-0.2457301020622253,1,0.006122657097876072,1,0.09799813479185104,1,-0.008975068107247353,1,0.003245819825679064,1,0.01760086044669151,1
1773074357973159168,-0.3238702416419983,1,0.02042801678180695,1,0.1075183898210526,1,-0.01032247953116894,1,0.001359776477329433,1,0.01790041849017143,1
1773074357982895616,-0.3325656056404114,1,0.04244760796427727,1,0.04237086325883865,1,-0.006562129594385624,1,-0.0006251361919566989,1,0.01843415945768356,1
1773074357992537600,-0.2680323123931885,1,0.04440246894955635,1,-0.01999115198850632,1,-0.003356974571943283,1,-0.000427141465479508,1,0.01850645057857037,1
1773074358002084608,-0.2068739086389542,1,0.05220604315400124,1,-0.05278250575065613,1,-0.002249308163300157,1,-0.0005326656391844153,1,0.01810378208756447,1
1773074358011539456,-0.2083549946546555,1,0.07387573271989822,1,-0.04198290407657623,1,-0.000707262777723372,1,-0.0008432105532847345,1,0.01815225556492805,1
1773074358020902912,-0.2290402352809906,1,0.0899883508682251,1,-0.02211187966167927,1,0.004176392685621977,1,-0.0003431618970353156,1,0.01851378381252289,1
1773074358030628864,-0.2289232760667801,1,0.0830637663602829,1,0.01661163941025734,1,0.009050497785210609,1,0.00156891078222543,1,0.01969020627439022,1
1773074358041317120,-0.2064143121242523,1,0.0314900130033493,1,0.06792799383401871,1,0.007553417701274157,1,0.001964730676263571,1,0.01951487362384796,1
1773074358051900672,-0.2008183747529984,1,-0.02255448140203953,1,0.08224018663167953,1,0.003674918320029974,1,4.390240064822137e-05,1,0.01856026239693165,1
1773074358062380288,-0.2554716467857361,1,-0.01669668406248093,1,0.07087040692567825,1,0.002305825473740697,1,-0.003025290789082646,1,0.01777294650673866,1
1773074358072758016,-0.3220974206924438,1,0.01168251410126686,1,0.03729545325040817,1,0.00407825643196702,1,-0.003640792332589626,1,0.01788167841732502,1
1773074358083036416,-0.3106091916561127,1,0.01794798485934734,1,-0.005941182840615511,1,0.005995678715407848,1,-0.002441225806251168,1,0.01888351514935493,1
1773074358093224704,-0.222257673740387,1,-0.005447565577924252,1,-0.02657098136842251,1,0.003319239243865013,1,-0.0005388365825638175,1,0.02005227841436863,1
1773074358103314176,-0.1666898727416992,1,-0.02436297945678234,1,-0.01332835853099823,1,-0.001997510669752955,1,0.000509364006575197,1,0.02045570127665997,1
1773074358113304320,-0.1949550807476044,1,-0.03656315058469772,1,0.02209170162677765,1,-0.003502058330923319,1,7.044010271783918e-05,1,0.02069686353206635,1
1773074358123197440,-0.2602545619010925,1,-0.02646963484585285,1,0.04632304608821869,1,0.001201726496219635,1,-0.0004898465122096241,1,0.02180273830890656,1
1773074358132993792,-0.2869836986064911,1,-0.03636808693408966,1,0.06012874096632004,1,0.005189502611756325,1,0.0006354029173962772,1,0.02323743887245655,1
1773074358142693632,-0.2696147561073303,1,-0.06943681836128235,1,0.07452927529811859,1,0.003092962317168713,1,0.001184598659165204,1,0.02415638230741024,1
1773074358152299520,-0.2612260580062866,1,-0.08380940556526184,1,0.0736333429813385,1,-0.004089438356459141,1,-1.772474206518382e-05,1,0.02455979399383068,1
1773074358161814784,-0.2908011674880981,1,-0.05930905044078827,1,0.04851322248578072,1,-0.01020161062479019,1,-0.001706948620267212,1,0.0251008179038763,1
1773074358171236352,-0.3181539475917816,1,-0.004890015348792076,1,-0.01527608744800091,1,-0.01033613178879023,1,-0.001353049301542342,1,0.02628907933831215,1
1773074358180565760,-0.278612494468689,1,0.01353725232183933,1,-0.04467158392071724,1,-0.006133165676146746,1,0.001660230685956776,1,0.02814353816211224,1
1773074358190716928,-0.1921330839395523,1,-0.02080947905778885,1,-0.02207184955477715,1,-0.004287858959287405,1,0.004076465964317322,1,0.02877881564199924,1
1773074358201377024,-0.1431597769260406,1,-0.04291203618049622,1,0.01537685934454203,1,-0.004091004375368357,1,0.003636511042714119,1,0.02832266688346863,1
1773074358211937024,-0.1779149025678635,1,-0.01343146897852421,1,0.05999507755041122,1,-0.003983630798757076,1,0.003095418913289905,1,0.02828429639339447,1
1773074358222398208,-0.2115809768438339,1,0.01263030339032412,1,0.07929272949695587,1,-0.002512651961296797,1,0.00253575574606657,1,0.02901055850088596,1
1773074358232761344,-0.1687013208866119,1,0.02015752904117107,1,0.04820384085178375,1,-0.001476825796999037,1,0.003225046675652266,1,0.02994362264871597,1
1773074358243027968,-0.08494905382394791,1,-0.005398106761276722,1,0.03160519897937775,1,-0.003769807750359178,1,0.004280431661754847,1,0.03015345521271229,1
1773074358253196288,-0.04870326444506645,1,-0.0005021407268941402,1,0.02025748789310455,1,-0.007259798236191273,1,0.004035467747598886,1,0.02918007597327232,1
1773074358263269376,-0.058307234197855,1,0.02237614989280701,1,0.03160525113344193,1,-0.006927209440618753,1,0.002795940265059471,1,0.02844936028122902,1
1773074358273253632,-0.08297961205244064,1,0.04688594490289688,1,0.01528165023773909,1,-0.002221269067376852,1,0.002396530704572797,1,0.02855667844414711,1
1773074358283143680,-0.05407717823982239,1,0.02972276881337166,1,0.01614411920309067,1,0.002953141462057829,1,0.003388534532859921,1,0.02868358418345451,1
1773074358292940800,0.02545918896794319,1,0.009635735303163528,1,0.02440673671662807,1,0.002659473801031709,1,0.003545907093212008,1,0.02825355902314186,1
1773074358302646528,0.07296598702669144,1,-0.01517867110669613,1,0.04126771911978722,1,-0.001926443073898554,1,0.003019259544089437,1,0.02767627872526646,1
1773074358312260608,0.06378258019685745,1,-0.02149766869843006,1,0.03835742548108101,1,-0.003160804975777864,1,0.001440800377167761,1,0.02671775221824646,1
1773074358321782784,0.02574415877461433,1,-0.01963302493095398,1,0.02189764566719532,1,0.002119312062859535,1,0.002978099044412374,1,0.02679621055722237,1
1773074358331223552,0.05780331790447235,1,-0.03654232248663902,1,0.05787013843655586,1,0.006853164173662663,1,0.00561422435566783,1,0.02682491764426231,1
1773074358340580864,0.1633077263832092,1,-0.07285532355308533,1,0.09535063803195953,1,0.002229613717645407,1,0.007461911998689175,1,0.02641984075307846,1
1773074358351176960,0.2309671193361282,1,-0.08635678887367249,1,0.1080198511481285,1,-0.006379299331456423,1,0.006558805704116821,1,0.02540458366274834,1
1773074358361821184,0.2230067104101181,1,-0.03804297745227814,1,0.08177089691162109,1,-0.01068759523332119,1,0.007505016401410103,1,0.02504007890820503,1
1773074358372365824,0.2369299381971359,1,-0.01436114311218262,1,0.1057926937937737,1,-0.004668787587434053,1,0.009532623924314976,1,0.025141641497612,1
1773074358382811136,0.2963988780975342,1,-0.0187943372875452,1,0.1289226114749908,1,0.001194813172332942,1,0.01011147256940603,1,0.02553466521203518,1
1773074358393160960,0.4057209193706512,1,-0.04741523787379265,1,0.1404707729816437,1,0.005040830466896296,1,0.009972617961466312,1,0.02471712231636047,1
1773074358403414784,0.5074602365493774,1,-0.060030497610569,1,0.1571418792009354,1,0.005399562418460846,1,0.007636374793946743,1,0.02389800176024437,1
1773074358413574144,0.5171471238136292,1,-0.03255023434758186,1,0.1484727561473846,1,0.005764449946582317,1,0.00634825462475419,1,0.02321638539433479,1
1773074358423637248,0.4455269575119019,1,-0.02505151182413101,1,0.1352653950452805,1,0.01105784345418215,1,0.008243393152952194,1,0.02328995615243912,1
1773074358433606400,0.4189268946647644,1,-0.03533503413200378,1,0.2113855481147766,1,0.01834248192608356,1,0.01128002349287271,1,0.0232530701905489,1
1773074358443482112,0.5169177055358887,1,-0.1006034091114998,1,0.2769769728183746,1,0.01502843759953976,1,0.01078478991985321,1,0.02186763472855091,1
1773074358453261312,0.6399567723274231,1,-0.164365291595459,1,0.2242089211940765,1,0.006437231320887804,1,0.006095938384532928,1,0.02004684694111347,1
1773074358462946048,0.6817594766616821,1,-0.1085753738880157,1,0.1012717559933662,1,0.002099362434819341,1,0.005373242311179638,1,0.01813909038901329,1
1773074358472536320,0.6666421890258789,1,-0.05365912988781929,1,0.06463023275136948,1,0.001785019179806113,1,0.0109848864376545,1,0.01804221048951149,1
1773074358482032896,0.5547530651092529,1,-0.001347593264654279,1,0.06821124255657196,1,0.006336402148008347,1,0.01309771649539471,1,0.01842628791928291,1
1773074358491436288,0.6573858857154846,1,-0.1011396050453186,1,0.1686181128025055,1,0.016274094581604,1,0.01773479022085667,1,0.01791305281221867,1
1773074358500900352,0.8955600261688232,1,-0.2485039234161377,1,0.2786493897438049,1,0.007328699808567762,1,0.01180371828377247,1,0.01628263294696808,1
1773074358511617024,0.8594837188720703,1,-0.1719982028007507,1,0.1460347771644592,1,-0.002954355673864484,1,0.007463784888386726,1,0.01432075910270214,1
1773074358522234112,0.7656999826431274,1,-0.1068509966135025,1,0.1603712290525436,1,-0.007869758643209934,1,0.01075669378042221,1,0.01455992180854082,1
1773074358532751616,0.6716641783714294,1,-0.06549103558063507,1,0.06955869495868683,1,-0.006878277752548456,1,0.01025283336639404,1,0.01450619753450155,1
1773074358543172352,0.7773522734642029,1,-0.1106765270233154,1,0.05264823138713837,1,0.007939312607049942,1,0.01364462077617645,1,0.01418757252395153,1
1773074358553496320,1.002070069313049,1,-0.2459022849798203,1,0.1870674937963486,1,0.00683103408664465,1,0.01338702160865068,1,0.01254972722381353,1
1773074358563720704,0.8695816993713379,1,-0.1470482051372528,1,0.1185442954301834,1,-0.003414712613448501,1,0.009897884912788868,1,0.01114961970597506,1
1773074358573852416,0.6578723788261414,1,-0.06978354603052139,1,0.1404989808797836,1,-0.0043570501729846,1,0.01126834005117416,1,0.01141331065446138,1
1773074358583891712,0.8046212792396545,1,-0.1578022390604019,1,0.153907909989357,1,-0.003600780619308352,1,0.00891517847776413,1,0.01120950933545828,1
1773074358593834240,1.073145270347595,1,-0.2001417577266693,1,-0.03767095506191254,1,-0.009585488587617874,1,0.00573020288720727,1,0.008958017453551292,1
1773074358603678720,1.058517694473267,1,-0.1691917777061462,1,-0.04520779848098755,1,-0.01315276511013508,1,0.01259120926260948,1,0.007721601519733667,1
1773074358613429760,0.8293682336807251,1,-0.06114957854151726,1,0.04415959864854813,1,-0.01544167380779982,1,0.0133018521592021,1,0.007479257881641388,1
1773074358623084288,0.6853994131088257,1,-0.02715297415852547,1,0.06768309324979782,1,-0.001377893146127462,1,0.01081323064863682,1,0.007585436105728149,1
1773074358632645376,0.9263707995414734,1,-0.2106386721134186,1,0.1233092993497849,1,0.022721778601408,1,0.007774186786264181,1,0.006697820499539375,1
1773074358642113792,1.176046252250671,1,-0.2621201276779175,1,0.1605242937803268,1,0.012173717841506,1,0.007638528943061829,1,0.004013719968497753,1
1773074358651491328,0.978376567363739,1,-0.08961797505617142,1,0.1368631720542908,1,-0.0158542413264513,1,0.007927361875772476,1,0.00228146044537425,1
1773074358661225728,0.6836636662483215,1,0.004455586429685354,1,0.03704261779785156,1,-0.02370200492441654,1,0.005649660713970661,1,0.002679374068975449,1
1773074358671907584,0.8434845805168152,1,-0.1510724872350693,1,-0.03617128729820251,1,0.001621187664568424,1,0.002772807609289885,1,0.001684504095464945,1
1773074358682487808,1.214556097984314,1,-0.2021196782588959,1,-0.0512099489569664,1,0.003046704456210136,1,0.004166694357991219,1,-0.0009792901109904051,1
1773074358692966144,0.953130304813385,1,0.00403686985373497,1,-0.06238963454961777,1,-0.01744506880640984,1,0.009625636972486973,1,-0.002048143884167075,1
1773074358703345152,0.6541083455085754,1,0.07742279767990112,1,0.09659279882907867,1,-0.02056311070919037,1,0.008675417862832546,1,-0.001372547121718526,1
1773074358713630720,0.8955768346786499,1,-0.1761596351861954,1,0.06945421546697617,1,-0.005435870494693518,1,0.001008764607831836,1,-0.00238893274217844,1
1773074358723817728,1.067287087440491,1,-0.1975872218608856,1,-0.1205225586891174,1,0.006270878948271275,1,-0.004558421205729246,1,-0.005965751595795155,1
1773074358733905664,0.8002623319625854,1,0.05052757263183594,1,-0.06917290389537811,1,0.007873325608670712,1,0.002983615268021822,1,-0.006696363445371389,1
1773074358743898880,0.6246731281280518,1,0.04647016525268555,1,0.0938829705119133,1,-0.0008228744263760746,1,0.0009278662037104368,1,-0.004880442284047604,1
1773074358753795328,0.8351900577545166,1,-0.1731321662664413,1,-0.0487256720662117,1,0.0007795745623297989,1,-0.003955050371587276,1,-0.005609242711216211,1
1773074358763596288,0.9528079032897949,1,-0.2075802981853485,1,-0.141151487827301,1,0.006376511882990599,1,-0.004110458772629499,1,-0.008214189670979977,1
1773074358773315840,0.7319085597991943,1,-0.02397504821419716,1,-0.0342119038105011,1,0.001545056351460516,1,0.000122772267786786,1,-0.008905353955924511,1
1773074358782947072,0.6446529626846313,1,-0.02693358436226845,1,0.06151372194290161,1,-0.007774036377668381,1,-0.0009273791220039129,1,-0.008263184688985348,1
1773074358792486400,0.849237322807312,1,-0.1349978595972061,1,-0.077196404337883,1,-0.0134022943675518,1,-0.0045660100877285,1,-0.009109331294894218,1
1773074358801934848,0.8435901403427124,1,-0.1220178753137589,1,-0.186938539147377,1,-0.008536125533282757,1,-0.00106699438765645,1,-0.01080798543989658,1
1773074358811292160,0.6641039252281189,1,0.02788393571972847,1,0.004905305802822113,1,-0.002594550605863333,1,0.003937316127121449,1,-0.01062500383704901,1
1773074358821449216,0.6765244007110596,1,-0.05340160429477692,1,0.1277291029691696,1,-0.004166990984231234,1,0.0003641464281827211,1,-0.009728118777275085,1
1773074358832099584,0.7978017926216125,1,-0.1611512750387192,1,0.02954635769128799,1,0.001870008185505867,1,-0.004311409778892994,1,-0.01135911140590906,1
1773074358842649344,0.7526248097419739,1,-0.05915357917547226,1,0.01914389804005623,1,0.008097362704575062,1,-0.0007070249412208796,1,-0.01376520097255707,1
1773074358853099008,0.7277100086212158,1,0.005120970774441957,1,0.1525745689868927,1,0.005865721497684717,1,0.001142044784501195,1,-0.01390428189188242,1
1773074358863448832,0.8349013328552246,1,-0.1261756420135498,1,0.1233302056789398,1,0.001719513209536672,1,-0.003537548938766122,1,-0.01445877086371183,1
1773074358873698048,0.8427818417549133,1,-0.1693610846996307,1,-0.02338123507797718,1,0.01152600347995758,1,-0.004071204457432032,1,-0.01643088273704052,1
1773074358883846912,0.6940135359764099,1,0.01884268224239349,1,0.06258480995893478,1,0.01527880504727364,1,0.004977546166628599,1,-0.0175694078207016,1
1773074358893895680,0.681882381439209,1,-0.05108123272657394,1,0.2848092615604401,1,0.005229724571108818,1,0.005060935858637094,1,-0.01704749092459679,1
1773074358903847168,0.7649382352828979,1,-0.2035523653030396,1,0.1991644501686096,1,-0.005255616270005703,1,-0.003468445036560297,1,-0.01858521997928619,1
1773074358913699840,0.6894275546073914,1,-0.1250037401914597,1,0.04309719428420067,1,-0.0002836092608049512,1,-0.002798681147396564,1,-0.02165728248655796,1
1773074358923466240,0.6793359518051147,1,-0.006793633103370667,1,0.1625896245241165,1,0.00524907186627388,1,-0.0002315281453775242,1,-0.02135702967643738,1
1773074358933142528,0.8075897097587585,1,-0.1210688874125481,1,0.1039968952536583,1,-0.003892869921401143,1,-0.005050370469689369,1,-0.02187500521540642,1
1773074358942726144,0.8413523435592651,1,-0.1659756004810333,1,-0.08091698586940765,1,0.004235382657498121,1,-0.003363413736224174,1,-0.02452445775270462,1
1773074358952218112,0.7557014226913452,1,-0.02861404046416283,1,0.05748096108436584,1,0.01304906979203224,1,0.004792339168488979,1,-0.02535296231508255,1
1773074358961619968,0.7271012663841248,1,-0.1032313406467438,1,0.2328678071498871,1,0.006423688493669033,1,0.00436303811147809,1,-0.02451212704181671,1
1773074358970930944,0.7394691109657288,1,-0.204420804977417,1,0.1856641471385956,1,0.002920862752944231,1,0.001556041650474072,1,-0.02632428891956806,1
1773074358981517824,0.7027330994606018,1,-0.1198837161064148,1,0.194066509604454,1,0.005856427364051342,1,0.00174098729621619,1,-0.02828538231551647,1
1773074358992154880,0.752045750617981,1,-0.05734226852655411,1,0.2173691987991333,1,-0.00436901580542326,1,-0.001035270281136036,1,-0.02762889675796032,1
1773074359002688000,0.7894444465637207,1,-0.1545561254024506,1,0.01793630421161652,1,-0.01223123259842396,1,-0.003171711461618543,1,-0.02879348397254944,1
1773074359013118464,0.7698726058006287,1,-0.07921412587165833,1,-0.0546366348862648,1,0.005777216982096434,1,0.0002288723480887711,1,-0.03035778924822807,1
1773074359023447808,0.7832503914833069,1,-0.01232681609690189,1,0.09915105253458023,1,0.009292146191000938,1,0.002527768490836024,1,-0.02915512770414352,1
1773074359033677568,0.7670789957046509,1,-0.1649788320064545,1,0.08688794076442719,1,0.005039602983742952,1,0.001491978066042066,1,-0.02913861349225044,1
1773074359043805952,0.7520588636398315,1,-0.1582920551300049,1,0.1515782922506332,1,0.01352037116885185,1,0.002437976188957691,1,-0.0317615270614624,1
1773074359053844480,0.7809482216835022,1,-0.08527866750955582,1,0.3115422129631042,1,0.004461918026208878,1,-0.0005176113918423653,1,-0.0322362519800663,1
1773074359063789568,0.7488805651664734,1,-0.1613465845584869,1,0.1715431958436966,1,-0.01377399824559689,1,-0.005386548116803169,1,-0.03233036398887634,1
1773074359073637376,0.7172293663024902,1,-0.1305794417858124,1,0.01622557640075684,1,-0.003590929554775357,1,-0.003115441650152206,1,-0.03455221280455589,1
1773074359083389440,0.7923997640609741,1,-0.04568459466099739,1,0.1008003428578377,1,0.001461751759052277,1,-0.001599099487066269,1,-0.03504939004778862,1
1773074359093047296,0.7690942883491516,1,-0.1077201813459396,1,0.01655304990708828,1,-0.01093284320086241,1,-0.003166412934660912,1,-0.03512665256857872,1
1773074359102609152,0.6861164569854736,1,-0.066722072660923,1,-0.04726647585630417,1,-0.001035145134665072,1,0.001080172136425972,1,-0.03657134249806404,1
1773074359112078848,0.7360873818397522,1,-0.03600377589464188,1,0.158530130982399,1,0.002236678497865796,1,0.002255913801491261,1,-0.03640897199511528,1
1773074359121458688,0.7489466667175293,1,-0.1248989999294281,1,0.1174009069800377,1,-0.008670193143188953,1,-0.003850142704322934,1,-0.03653461486101151,1
1773074359130897664,0.6948004961013794,1,-0.0736725926399231,1,0.004658878780901432,1,0.0008402577368542552,1,-0.002066300483420491,1,-0.0386505126953125,1
1773074359141613568,0.7395967841148376,1,0.004930098541080952,1,0.1437244117259979,1,0.005541659891605377,1,-0.0008139630081132054,1,-0.03903060406446457,1
1773074359152225536,0.7357114553451538,1,-0.05788720026612282,1,0.09749134629964828,1,-0.006210764870047569,1,-0.003658968489617109,1,-0.03873408585786819,1
1773074359162734080,0.6645010113716125,1,-0.09145749360322952,1,0.002625659573823214,1,0.004338331986218691,1,-0.0007763521862216294,1,-0.04069416597485542,1
1773074359173148416,0.7095823287963867,1,-0.01378742605447769,1,0.1753423362970352,1,0.01395739894360304,1,0.001226115971803665,1,-0.04121394455432892,1
1773074359183473664,0.7371475100517273,1,-0.05600325018167496,1,0.1884155124425888,1,-0.002362068276852369,1,-0.002298083622008562,1,-0.04103099554777145,1
1773074359193700864,0.6724007129669189,1,-0.07592512667179108,1,0.05896199867129326,1,-0.0009825818706303835,1,-0.002696304116398096,1,-0.04276712983846664,1
1773074359203830272,0.6916032433509827,1,0.02049281820654869,1,0.1315366923809052,1,0.007555533666163683,1,-0.001623084652237594,1,-0.04348289221525192,1
1773074359213865472,0.7475874423980713,1,-0.04097475111484528,1,0.07276248931884766,1,-0.0008909610914997756,1,-0.005266456864774227,1,-0.04239644855260849,1
1773074359223805184,0.7013394236564636,1,-0.1064528524875641,1,-0.07317503541707993,1,0.006516700610518456,1,-0.004617589525878429,1,-0.04371891170740128,1
1773074359233649920,0.6898566484451294,1,-0.03317030519247055,1,0.02783562429249287,1,0.01594366505742073,1,-0.0008199624717235565,1,-0.04491579160094261,1
1773074359243405568,0.7183647751808167,1,-0.07917419821023941,1,0.09275780618190765,1,0.002302303910255432,1,-0.002669925335794687,1,-0.04391445964574814,1
1773074359253067520,0.684873104095459,1,-0.1698516458272934,1,-0.00708971731364727,1,-0.00171663542278111,1,-0.002034217119216919,1,-0.04499266669154167,1
1773074359262637056,0.6975220441818237,1,-0.09097938239574432,1,0.07079343497753143,1,0.005261106416583061,1,0.001340067596174777,1,-0.04616382718086243,1
1773074359272115200,0.7415400743484497,1,-0.05702809616923332,1,0.1403792649507523,1,-0.006283018738031387,1,0.0007536612101830542,1,-0.04542144760489464,1
1773074359281502976,0.7063226699829102,1,-0.1324649602174759,1,0.03644193708896637,1,-0.01169209089130163,1,0.0009230822906829417,1,-0.04586128517985344,1
1773074359291245312,0.6782196760177612,1,-0.07334278523921967,1,0.06673474609851837,1,0.001866211416199803,1,0.003517445409670472,1,-0.04730428010225296,1
1773074359301927424,0.7456409931182861,1,0.0045445766299963,1,0.1581578552722931,1,-0.002567633986473083,1,0.002020716667175293,1,-0.04668081551790237,1
1773074359312508160,0.7462502121925354,1,-0.07376202940940857,1,0.0550704225897789,1,-0.01122005190700293,1,-0.0007026378298178315,1,-0.04611415043473244,1
1773074359322987520,0.686687171459198,1,-0.07273316383361816,1,0.01384258456528187,1,0.002911422634497285,1,-0.0005117140826769173,1,-0.04729126021265984,1
1773074359333369600,0.7024838924407959,1,0.02159669995307922,1,0.1143182292580605,1,0.006825866643339396,1,-0.001138755003921688,1,-0.04704287648200989,1
1773074359343661056,0.7091951370239258,1,-0.06768094003200531,1,0.06431153416633606,1,-0.002422794001176953,1,-0.003684201976284385,1,-0.04613873362541199,1
1773074359353854208,0.6717072725296021,1,-0.1311972886323929,1,-0.01489407662302256,1,0.006756222806870937,1,-0.003622773103415966,1,-0.04780614003539085,1
1773074359363948800,0.6726999878883362,1,-0.04280903562903404,1,0.08232139050960541,1,0.01091754529625177,1,-0.002321621403098106,1,-0.0481676422059536,1
1773074359373948160,0.7042572498321533,1,-0.06533998996019363,1,0.07615973055362701,1,-0.003530447371304035,1,-0.003919299691915512,1,-0.04740273952484131,1
1773074359383852800,0.6969294548034668,1,-0.1414621919393539,1,-0.03119127079844475,1,-0.005936366971582174,1,-0.00324095250107348,1,-0.04862212017178535,1
1773074359393661696,0.6537633538246155,1,-0.05940451100468636,1,0.01299929991364479,1,0.001531032845377922,1,0.0001218716788571328,1,-0.05005326867103577,1
1773074359403379456,0.650413453578949,1,0.02386942692101002,1,0.1030129864811897,1,-0.00646137073636055,1,0.001567690283991396,1,-0.04918160662055016,1
1773074359413004288,0.6763292551040649,1,-0.07521443068981171,1,0.06422626972198486,1,-0.01185962837189436,1,0.0004854528233408928,1,-0.04865450412034988,1
1773074359422536448,0.6418712139129639,1,-0.1040781363844872,1,0.051685631275177,1,-0.00245009153150022,1,-0.001027453574351966,1,-0.05017554387450218,1
1773074359431976960,0.6011783480644226,1,0.02738850191235542,1,0.08750203996896744,1,0.0001432163990102708,1,-0.00117476109880954,1,-0.05124476552009583,1
1773074359441326592,0.6215961575508118,1,0.01792178861796856,1,0.07611224055290222,1,-0.004917695187032223,1,-0.001297504641115665,1,-0.05013761296868324,1
1773074359451480064,0.6814999580383301,1,-0.06366211175918579,1,0.05737365782260895,1,-0.00234388280659914,1,-0.002531366655603051,1,-0.05092689767479897,1
1773074359462130688,0.6730042695999146,1,-0.03609520196914673,1,0.03681959584355354,1,0.003049964085221291,1,-0.001755235251039267,1,-0.05211983621120453,1
1773074359472679936,0.6070541143417358,1,0.005242451559752226,1,0.1141902804374695,1,0.005483320448547602,1,0.001440773019567132,1,-0.05211624503135681,1
1773074359483127296,0.652910053730011,1,-0.02670856565237045,1,0.1965086907148361,1,0.003269718727096915,1,0.0008166368352249265,1,-0.05235233157873154,1
1773074359493475328,0.7273227572441101,1,-0.06051485612988472,1,0.159300684928894,1,-0.002094316761940718,1,-0.001809093868359923,1,-0.05323298275470734,1
1773074359503727360,0.6401103734970093,1,0.007031871005892754,1,0.1073738485574722,1,-0.003500140272080898,1,0.000823203707113862,1,-0.05409326404333115,1
1773074359513892352,0.563040554523468,1,0.04412798583507538,1,0.2010351866483688,1,0.0005655064014717937,1,0.002963845152407885,1,-0.05333967134356499,1
1773074359523960320,0.6589060425758362,1,-0.01425190176814795,1,0.2172884345054626,1,0.002149553736671805,1,-0.001552513800561428,1,-0.05319363251328468,1
1773074359533932800,0.7399088740348816,1,-0.0463867262005806,1,0.09750070422887802,1,0.00630613137036562,1,-0.005222986917942762,1,-0.05412411689758301,1
1773074359543811328,0.6293597221374512,1,0.007269854657351971,1,0.08540897071361542,1,0.01288340054452419,1,-0.00444384478032589,1,-0.05472166463732719,1
1773074359553594112,0.5293102264404297,1,0.04406379908323288,1,0.12718565762043,1,0.01591295562684536,1,-0.004133790731430054,1,-0.0543065220117569,1
1773074359563282688,0.6384327411651611,1,-0.0579846203327179,1,0.05295643955469131,1,0.01630637608468533,1,-0.00644279271364212,1,-0.05387062579393387,1
1773074359572880640,0.7565599679946899,1,-0.1377537101507187,1,-0.08452903479337692,1,0.01743271760642529,1,-0.00645318441092968,1,-0.05525092035531998,1
1773074359582387200,0.6575773954391479,1,-0.08139750361442566,1,-0.08316180109977722,1,0.01420363038778305,1,-0.0002603263128548861,1,-0.05626390501856804,1
1773074359591802112,0.5313989520072937,1,-0.03878593444824219,1,0.03538110852241516,1,0.007288352586328983,1,0.005317823961377144,1,-0.05591036751866341,1
1773074359601126912,0.624482274055481,1,-0.0955280065536499,1,0.08662779629230499,1,-0.0001430244883522391,1,0.006707228254526854,1,-0.05520070344209671,1
1773074359611712256,0.786483108997345,1,-0.1318615674972534,1,0.06484275311231613,1,-0.005899720825254917,1,0.006845603697001934,1,-0.05541567131876945,1
1773074359622348544,0.7660610675811768,1,-0.07466110587120056,1,0.1090570464730263,1,-0.01148032676428556,1,0.007473616860806942,1,-0.0556349940598011,1
1773074359632883200,0.6207221746444702,1,0.0006526284851133823,1,0.1554851830005646,1,-0.01219028886407614,1,0.007603680714964867,1,-0.05510612204670906,1
1773074359643317248,0.6020681262016296,1,0.01999728567898273,1,0.1863613426685333,1,-0.003674458945170045,1,0.0053442707285285,1,-0.05391540005803108,1
1773074359653651456,0.7853752374649048,1,-0.0758121982216835,1,0.1390564441680908,1,0.007184496615082026,1,0.001171556883491576,1,-0.05314785987138748,1
1773074359663896320,0.8548733592033386,1,-0.08635596185922623,1,0.09408973157405853,1,0.01237747445702553,1,-0.002207285491749644,1,-0.05307460203766823,1
1773074359674043904,0.7041246891021729,1,-0.01160578895360231,1,0.114170029759407,1,0.01171038020402193,1,-0.0005193004617467523,1,-0.05212561786174774,1
1773074359684096000,0.5729398727416992,1,-0.04002879559993744,1,0.1550122499465942,1,0.01132708135992289,1,-0.0006276422645896673,1,-0.05023534968495369,1
1773074359694052352,0.6525886654853821,1,-0.11838348954916,1,0.150652289390564,1,0.01795676723122597,1,3.151362761855125e-06,1,-0.04970463365316391,1
1773074359703912960,0.8882086277008057,1,-0.2090315520763397,1,0.1423986703157425,1,0.01601364836096764,1,-0.00215063919313252,1,-0.05011888220906258,1
1773074359713678592,0.8519133329391479,1,-0.1179278641939163,1,0.117761641740799,1,0.0008038390660658479,1,-0.003050222061574459,1,-0.05081788077950478,1
1773074359723352064,0.6519596576690674,1,-0.005331640597432852,1,0.06608523428440094,1,-0.01785405538976192,1,0.0006336738588288426,1,-0.0494917668402195,1
1773074359732934400,0.4345723390579224,1,0.02857524715363979,1,0.03359072282910347,1,-0.009854099713265896,1,0.002157811773940921,1,-0.04889848828315735,1
1773074359742424320,0.6613869667053223,1,-0.1164007484912872,1,0.1310027241706848,1,0.008250042796134949,1,0.003395256586372852,1,-0.0491383783519268,1
1773074359751823104,0.8753075003623962,1,-0.1041467934846878,1,0.09589517116546631,1,-0.001092139049433172,1,-0.004256267566233873,1,-0.05135943368077278,1
1773074359761281280,0.7778246998786926,1,0.05813366919755936,1,-0.0179398451000452,1,-0.01408824790269136,1,-0.007459378335624933,1,-0.05138277262449265,1
1773074359771991808,0.6680203676223755,1,0.08620496094226837,1,-0.08607324212789536,1,-0.01775473915040493,1,-0.003630463033914566,1,-0.04983653873205185,1
1773074359782600960,0.5116307735443115,1,0.05799859762191772,1,-0.1139646098017693,1,-0.0001321206800639629,1,-0.00268021272495389,1,-0.04969234392046928,1
1773074359793113856,0.6985554099082947,1,-0.01819643378257751,1,-0.01531911920756102,1,0.02586271427571774,1,0.002236465457826853,1,-0.05030518770217896,1
1773074359803526656,0.9488804340362549,1,-0.09875653684139252,1,0.1060840114951134,1,0.02056959457695484,1,0.0004217933164909482,1,-0.05165491253137589,1
1773074359813839104,0.7845771312713623,1,0.002988869324326515,1,0.1427264511585236,1,5.708960816264153e-05,1,-0.000837393628899008,1,-0.05191700533032417,1
1773074359824054016,0.5763465166091919,1,0.0445154570043087,1,0.1261634975671768,1,-0.01195400301367044,1,0.001532862428575754,1,-0.05184537172317505,1
1773074359834172160,0.4446200728416443,1,0.04406936466693878,1,0.07654435187578201,1,0.005529497750103474,1,0.0003674839390441775,1,-0.0512855276465416,1
1773074359844194304,0.7341250777244568,1,-0.09223145246505737,1,0.1542819291353226,1,0.02428560517728329,1,0.002872427459806204,1,-0.05126772075891495,1
1773074359854135808,0.9272385239601135,1,-0.1384850293397903,1,0.1373633742332458,1,0.009677005000412464,1,-0.004453135654330254,1,-0.05257542803883553,1
1773074359863992064,0.6960288286209106,1,-0.04055158048868179,1,0.01240637805312872,1,-0.002704800805076957,1,-0.003520094556733966,1,-0.05228539928793907,1
1773074359873754880,0.538788378238678,1,-0.01944308914244175,1,0.06490197032690048,1,-0.0002378550707362592,1,-0.001039509079419076,1,-0.05068474262952805,1
1773074359883424512,0.6045101881027222,1,-0.08630219846963882,1,0.0818328857421875,1,0.006420972757041454,1,0.0005530687631107867,1,-0.04958128929138184,1
1773074359893002496,0.8764870762825012,1,-0.1879115402698517,1,0.06440399587154388,1,0.01105852052569389,1,0.0007209698669612408,1,-0.04950585216283798,1
1773074359902488320,0.9229661822319031,1,-0.1114284172654152,1,0.1245835497975349,1,-0.0003236377378925681,1,0.002671780297532678,1,-0.04987569525837898,1
1773074359911884032,0.7308221459388733,1,-0.02768078073859215,1,0.202260360121727,1,-0.01719336211681366,1,0.006410639733076096,1,-0.04813468083739281,1
1773074359921632512,0.4822835624217987,1,0.02828037738800049,1,0.1656775027513504,1,-0.008778692223131657,1,0.004019136540591717,1,-0.04734838753938675,1
1773074359932311552,0.6567993760108948,1,-0.04802761599421501,1,0.2504090964794159,1,0.01725835725665092,1,0.004805078264325857,1,-0.04610178992152214,1
1773074359942888960,0.9577159881591797,1,-0.1275194734334946,1,0.2245348691940308,1,0.009831828065216541,1,-0.003250125097110868,1,-0.04752757772803307,1
1773074359953365248,0.7778960466384888,1,0.0707072839140892,1,0.007958242669701576,1,-0.007413388695567846,1,-0.004736886359751225,1,-0.04813656583428383,1
1773074359963752448,0.5314307808876038,1,0.1105192974209785,1,0.02902773208916187,1,-0.003395912004634738,1,-0.001549757900647819,1,-0.04591876640915871,1
1773074359974043136,0.6005100607872009,1,-0.04429787397384644,1,0.02829736471176147,1,0.009407032281160355,1,-0.005682934075593948,1,-0.04531940072774887,1
1773074359984235776,0.826027512550354,1,-0.08177253603935242,1,-0.13338802754879,1,0.0202344860881567,1,-0.007150120101869106,1,-0.04669538885354996,1
1773074359994332672,0.8466001749038696,1,-0.07047984749078751,1,-0.05531563609838486,1,0.01770569570362568,1,-0.002303298795595765,1,-0.04722407460212708,1
1773074360004333568,0.7141579389572144,1,-0.04317397996783257,1,0.09957850724458694,1,0.0005567248445004225,1,0.00360382255166769,1,-0.04640630260109901,1
1773074360014239488,0.5789653062820435,1,-0.04070679843425751,1,0.1070700287818909,1,-0.009208308532834053,1,0.001929366611875594,1,-0.04618383944034576,1
1773074360024052224,0.6672837138175964,1,-0.1155213937163353,1,0.1068743988871574,1,0.01283536199480295,1,0.001431036740541458,1,-0.04658618569374084,1
1773074360033772800,0.9143933653831482,1,-0.1501528769731522,1,0.1887190937995911,1,0.01222026254981756,1,0.001108276774175465,1,-0.04806501418352127,1
1773074360043399680,0.7126604318618774,1,0.01278154924511909,1,0.08240929245948792,1,-0.01128602493554354,1,0.001074673840776086,1,-0.04856662824749947,1
1773074360052933632,0.4532103538513184,1,0.06242986768484116,1,0.09576691687107086,1,-0.01191987749189138,1,0.003455641213804483,1,-0.04637102410197258,1
1773074360062375936,0.619990348815918,1,-0.1147050485014915,1,0.07550095021724701,1,-0.003009103937074542,1,-0.001835980685427785,1,-0.04587028175592422,1
1773074360071727104,0.8394827246665955,1,-0.1132170408964157,1,-0.1486917287111282,1,0.002987846732139587,1,-0.005302072037011385,1,-0.04806702584028244,1
1773074360081877760,0.7599493265151978,1,0.0002956129610538483,1,-0.09344933927059174,1,0.008208361454308033,1,-0.0005489744362421334,1,-0.04778401553630829,1
1773074360092522240,0.692574143409729,1,0.04842965677380562,1,0.07387354969978333,1,0.001178520498797297,1,0.003009600332006812,1,-0.04582079127430916,1
1773074360103063040,0.676899790763855,1,0.03539885953068733,1,0.05190703645348549,1,0.002570594660937786,1,0.001960312016308308,1,-0.04497125372290611,1
1773074360113500160,0.8170196413993835,1,-0.1133756041526794,1,0.1143700778484344,1,0.02577362768352032,1,0.002813954371958971,1,-0.04559341073036194,1
1773074360123836160,0.8781445622444153,1,-0.1584875285625458,1,0.311016321182251,1,0.02458917163312435,1,0.001225475920364261,1,-0.04742022976279259,1
1773074360134070784,0.6591523289680481,1,0.02612794749438763,1,0.2214774787425995,1,0.008719192817807198,1,-0.0001571303873788565,1,-0.04767625406384468,1
1773074360144205056,0.5954394936561584,1,0.02739397063851357,1,0.2645150125026703,1,-0.000338328187353909,1,0.0006915675476193428,1,-0.04483650997281075,1
1773074360154243840,0.727445662021637,1,-0.1765597462654114,1,0.118084691464901,1,-0.008403424173593521,1,-0.008017972111701965,1,-0.04519722238183022,1
1773074360164207616,0.7472989559173584,1,-0.105738677084446,1,-0.1705942749977112,1,-0.001042984775267541,1,-0.009646404534578323,1,-0.04720783233642578,1
1773074360174074368,0.6243792772293091,1,-0.006820462178438902,1,-0.1195157766342163,1,0.01068555377423763,1,-0.002216675318777561,1,-0.0458725169301033,1
1773074360183844352,0.5450365543365479,1,-0.04432004690170288,1,0.045728899538517,1,0.01163545809686184,1,-0.001064046518877149,1,-0.04368261247873306,1
1773074360193519104,0.7007207870483398,1,-0.1076846718788147,1,0.05617021024227142,1,0.01365296915173531,1,-0.001393927610479295,1,-0.04340353608131409,1
1773074360203099136,0.9358254671096802,1,-0.2114435732364655,1,0.07728308439254761,1,0.0153464637696743,1,-0.0004651216440834105,1,-0.04366881772875786,1
1773074360212585728,0.8588492870330811,1,-0.1420134007930756,1,0.1909289509057999,1,-1.347297802567482e-05,1,0.006758519914001226,1,-0.04460813477635384,1
1773074360221980672,0.6086716651916504,1,-0.008177937939763069,1,0.2487436085939407,1,-0.007368786260485649,1,0.004315196070820093,1,-0.04331653192639351,1
1773074360231283968,0.6273459196090698,1,-0.01446740888059139,1,0.1591075211763382,1,0.004468227736651897,1,0.002719694748520851,1,-0.04314997792243958,1
1773074360242016768,0.8978098034858704,1,-0.1383972018957138,1,0.1643720418214798,1,0.01832505688071251,1,0.003675928572192788,1,-0.04357243329286575,1
1773074360252647168,0.7625088095664978,1,-0.04978537559509277,1,0.151349276304245,1,0.005082583054900169,1,0.002077305689454079,1,-0.04505779966711998,1
1773074360263173120,0.4384404420852661,1,0.04446380212903023,1,0.1582453846931458,1,-0.0003416976542212069,1,-0.0001589391176821664,1,-0.0437917560338974,1
1773074360273597184,0.5735811591148376,1,-0.07569742947816849,1,0.06000347062945366,1,0.006158703472465277,1,-0.003983365371823311,1,-0.04276417568325996,1
1773074360283929856,0.8138617873191833,1,-0.1693255305290222,1,-0.08055362850427628,1,0.0007074357708916068,1,-0.008589049801230431,1,-0.04379588738083839,1
1773074360294165504,0.7814295291900635,1,-0.0581519640982151,1,-0.1424815952777863,1,-0.004082744941115379,1,-0.004145035054534674,1,-0.0450020506978035,1
1773074360304303104,0.7425132393836975,1,-0.03945331647992134,1,-0.01520299538969994,1,-0.009532342664897442,1,0.003314075758680701,1,-0.04376983642578125,1
1773074360314346496,0.6750325560569763,1,-0.02946390770375729,1,0.05285751819610596,1,-0.007782913744449615,1,0.002022344153374434,1,-0.04275909811258316,1
1773074360324296960,0.7973753809928894,1,-0.08746719360351562,1,0.04844161123037338,1,0.01231695152819157,1,0.005954333581030369,1,-0.04319238290190697,1
1773074360334155008,0.8935917615890503,1,-0.1785591542720795,1,0.3080407679080963,1,0.01660118624567986,1,0.008970798924565315,1,-0.04462537914514542,1
1773074360343918848,0.6572691798210144,1,-0.04228324443101883,1,0.3334589302539825,1,0.0005138268461450934,1,0.005066441372036934,1,-0.04540912806987762,1
1773074360353588992,0.4834778010845184,1,0.04959981888532639,1,0.2529958188533783,1,0.002351279370486736,1,0.0006650227587670088,1,-0.04383419826626778,1
1773074360363166464,0.767510712146759,1,-0.1827031672000885,1,0.22337506711483,1,0.004408061038702726,1,-0.002147177699953318,1,-0.04299634695053101,1
1773074360372651264,0.8228411674499512,1,-0.1368167102336884,1,-0.0856432318687439,1,-0.01198493596166372,1,-0.01121784839779139,1,-0.04570367932319641,1
1773074360382044672,0.5614529848098755,1,0.1075228676199913,1,-0.2472948133945465,1,-0.00909376610070467,1,-0.005848390515893698,1,-0.04464122653007507,1
1773074360391500544,0.6363158226013184,1,-0.02457358874380589,1,-0.1072862595319748,1,-0.0005680230678990483,1,-0.003660593181848526,1,-0.04165209084749222,1
1773074360402206720,0.8514509201049805,1,-0.04986853152513504,1,-0.2358600497245789,1,0.0009797667153179646,1,-0.003362078219652176,1,-0.04255045205354691,1
1773074360412810240,0.91153883934021,1,-0.1150701865553856,1,-0.05247039347887039,1,0.009144160896539688,1,0.008695707656443119,1,-0.04234044998884201,1
1773074360423332864,0.7734142541885376,1,-0.09895127266645432,1,0.2288227379322052,1,0.007218130864202976,1,0.01116000488400459,1,-0.04377108067274094,1
1773074360433756160,0.6297182440757751,1,-0.01579158380627632,1,0.3122874796390533,1,0.003087023971602321,1,0.009908207692205906,1,-0.04345312714576721,1
1773074360444079872,0.6993002891540527,1,-0.08066400140523911,1,0.4033402800559998,1,0.01021894346922636,1,0.005609644576907158,1,-0.04319494962692261,1
1773074360454303744,0.8939927220344543,1,-0.1659367680549622,1,0.3347022831439972,1,0.004700128920376301,1,8.125620661303401e-05,1,-0.04470869153738022,1
1773074360464430592,0.7803282737731934,1,-0.04829002544283867,1,0.1028213575482368,1,-0.005365003366023302,1,-0.004524577874690294,1,-0.04478874057531357,1
1773074360474460160,0.4384093284606934,1,0.07383544743061066,1,0.02997695468366146,1,-0.007391029037535191,1,-0.00185387977398932,1,-0.04363369196653366,1
1773074360484394240,0.5494190454483032,1,-0.05371579527854919,1,-0.01179090701043606,1,-0.0009328412124887109,1,-0.003277077572420239,1,-0.04175354912877083,1
1773074360494233856,0.8313621878623962,1,-0.1371679604053497,1,-0.1961950808763504,1,-0.006338131614029408,1,-0.004615411628037691,1,-0.04242612421512604,1
1773074360503978240,0.7891126871109009,1,-0.03833142295479774,1,-0.1540414392948151,1,-0.007850277237594128,1,-6.042438326403499e-05,1,-0.0425819493830204,1
1773074360513628416,0.7775027751922607,1,-0.008896544575691223,1,0.06411940604448318,1,-0.0118581922724843,1,0.01054542418569326,1,-0.04102432727813721,1
1773074360523185152,0.7872248888015747,1,-0.01609380170702934,1,0.1628017127513885,1,-0.01515282969921827,1,0.01048189681023359,1,-0.04044580459594727,1
1773074360532686336,0.8389204740524292,1,-0.05467290431261063,1,0.186144694685936,1,0.01037673279643059,1,0.01050945185124874,1,-0.0404377356171608,1
1773074360542099968,0.8588643074035645,1,-0.1657357960939407,1,0.4155842661857605,1,0.02795637026429176,1,0.008932629600167274,1,-0.04231651127338409,1
1773074360551856640,0.7592790126800537,1,-0.008987873792648315,1,0.3787358105182648,1,0.0237182192504406,1,0.0001731770171318203,1,-0.04290483146905899,1
1773074360562525440,0.5461728572845459,1,0.03152682259678841,1,0.2370153963565826,1,0.01194899715483189,1,-0.004093130119144917,1,-0.04075658693909645,1
1773074360573092864,0.4823653995990753,1,-0.09802120178937912,1,0.03677588701248169,1,0.02554492652416229,1,-0.01229128893464804,1,-0.04072251170873642,1
1773074360583558656,0.8629308342933655,1,-0.1990597397089005,1,-0.08783256262540817,1,0.02178671769797802,1,-0.00406969478353858,1,-0.04169933870434761,1
1773074360593922816,0.8445530533790588,1,-0.1181590557098389,1,-0.2063503712415695,1,-0.01995520852506161,1,-0.002179846400395036,1,-0.04213748872280121,1
1773074360604195072,0.5299173593521118,1,-0.00374611048027873,1,-0.2389080673456192,1,-0.03819507732987404,1,0.006371098104864359,1,-0.03998224437236786,1
1773074360614374912,0.7013293504714966,1,-0.05779286473989487,1,-0.05372016504406929,1,-0.02887996472418308,1,0.01062540709972382,1,-0.03958054259419441,1
1773074360624458496,0.8144010305404663,1,-0.06548628956079483,1,0.001734280027449131,1,-0.0247411523014307,1,0.01006859820336103,1,-0.04019743204116821,1
1773074360634446848,0.6512331962585449,1,-0.00341664906591177,1,0.2072118669748306,1,-0.01025683898478746,1,0.01214682403951883,1,-0.04238257184624672,1
1773074360644340992,0.6342318058013916,1,0.05585798993706703,1,0.3079038262367249,1,0.02201648987829685,1,0.005318203940987587,1,-0.04213303327560425,1
1773074360654140416,0.9382730722427368,1,-0.06201650574803352,1,0.3256510198116302,1,0.03734242916107178,1,-0.0009211934520862997,1,-0.04106509312987328,1
1773074360663847168,1.083958745002747,1,-0.1342129707336426,1,0.1815637648105621,1,0.0266407560557127,1,-0.003060873365029693,1,-0.04265587776899338,1
1773074360673465856,0.8088915348052979,1,-0.0399589017033577,1,0.02850070595741272,1,0.01253138389438391,1,-0.002164260251447558,1,-0.0434381440281868,1
1773074360682993152,0.3731061816215515,1,0.06909691542387009,1,-0.09203310310840607,1,0.01562188100069761,1,-0.002437586896121502,1,-0.0420386865735054,1
1773074360692431360,0.4304552972316742,1,-0.08672600984573364,1,0.02165495418012142,1,0.03118623979389668,1,0.004065534565597773,1,-0.04078050330281258,1
1773074360701779712,0.9002968668937683,1,-0.282870352268219,1,0.118074357509613,1,0.005550091620534658,1,0.0005303267389535904,1,-0.04218310862779617,1
1773074360712077056,0.8531147837638855,1,-0.08392727375030518,1,-0.07608646899461746,1,-0.03268520534038544,1,-0.002375110518187284,1,-0.04386333003640175,1
1773074360722720256,0.7402787208557129,1,0.01756168156862259,1,0.001179147511720657,1,-0.04322735592722893,1,0.009447662159800529,1,-0.04142840579152107,1
1773074360733263360,0.8069136738777161,1,-0.001898192800581455,1,0.08393310010433197,1,-0.03906474262475967,1,0.004900072235614061,1,-0.03998422250151634,1
1773074360743705600,0.9221653938293457,1,0.06648093461990356,1,-0.02526858635246754,1,-0.01451682299375534,1,0.006228212267160416,1,-0.03956254944205284,1
1773074360754048512,0.879873514175415,1,-0.05974233523011208,1,0.2384028434753418,1,0.0234620925039053,1,0.008144239895045757,1,-0.03969153761863708,1
1773074360764295424,0.6964437961578369,1,0.01026480831205845,1,0.4359506368637085,1,0.03944223746657372,1,-0.0006308765732683241,1,-0.04034015908837318,1
1773074360774448384,0.5930973291397095,1,0.01606657914817333,1,0.3958321809768677,1,0.04221856221556664,1,-0.01009423099458218,1,-0.03831252083182335,1
1773074360784503296,0.7131248712539673,1,-0.1489324569702148,1,0.2685842216014862,1,0.04280172288417816,1,-0.01586414687335491,1,-0.03783522546291351,1
1773074360794461696,0.9528030157089233,1,-0.198556125164032,1,0.03030113130807877,1,0.01627223379909992,1,-0.01819640211760998,1,-0.03932830691337585,1
1773074360804326400,0.7724678516387939,1,-0.07455021142959595,1,-0.2477008849382401,1,-0.0127030648291111,1,-0.01306417305022478,1,-0.03914199024438858,1
1773074360814095360,0.5302213430404663,1,-0.02953499741852283,1,-0.2214820683002472,1,-0.01441807299852371,1,-0.001475292723625898,1,-0.03599391877651215,1
1773074360823769600,0.6369686126708984,1,-0.1250711232423782,1,-0.01219924446195364,1,-0.01840976066887379,1,0.003427855903282762,1,-0.03504977747797966,1
1773074360833352960,0.7320488691329956,1,-0.1591359227895737,1,0.0237557552754879,1,-0.02217239327728748,1,0.003171996446326375,1,-0.03581554070115089,1
1773074360842844160,0.6048826575279236,1,-0.1377037316560745,1,0.2174600809812546,1,-0.01294411346316338,1,0.004203812219202518,1,-0.03740260377526283,1
1773074360852243712,0.7020512819290161,1,-0.03543460369110107,1,0.3416038751602173,1,-0.002985536120831966,1,-0.005133561324328184,1,-0.03687486425042152,1
1773074360861552128,0.9193040728569031,1,-0.01726478897035122,1,0.07052158564329147,1,-0.00806029699742794,1,-0.00832243449985981,1,-0.03545810282230377,1
1773074360872282368,0.9781811237335205,1,-0.06395368278026581,1,-0.09846594929695129,1,0.0002382425009272993,1,-0.00620622280985117,1,-0.03486717119812965,1
1773074360882913280,0.7515710592269897,1,-0.01378027815371752,1,-0.1224272549152374,1,0.006012301426380873,1,-0.0007469305419363081,1,-0.03482544422149658,1
1773074360893446144,0.4553537368774414,1,0.05280634760856628,1,-0.123591847717762,1,0.01895164325833321,1,0.003780189203098416,1,-0.03408031910657883,1
1773074360903884032,0.6008192896842957,1,-0.03166432678699493,1,0.1936645954847336,1,0.01811793819069862,1,0.01387564465403557,1,-0.03159575909376144,1
1773074360914222848,0.8691865801811218,1,-0.2386351376771927,1,0.2964785099029541,1,-0.01608360558748245,1,0.003150929929688573,1,-0.03170131146907806,1
1773074360924463616,0.8095436692237854,1,-0.05950935184955597,1,0.002461640164256096,1,-0.03288296982645988,1,-0.0002820073277689517,1,-0.03392397984862328,1
1773074360934612992,0.6768838763237,1,0.0667424350976944,1,0.103843167424202,1,-0.03421887382864952,1,0.002109969966113567,1,-0.03243559598922729,1
1773074360944667136,0.5966482162475586,1,0.1928636431694031,1,-0.04283630847930908,1,-0.02738736383616924,1,-0.002861577551811934,1,-0.03132744878530502,1
1773074360954625792,0.7265270352363586,1,0.1177710145711899,1,-0.1598276346921921,1,0.008731534704566002,1,0.003595344722270966,1,-0.02868477068841457,1
1773074360964490752,0.8505942821502686,1,-0.1052446514368057,1,0.1397985219955444,1,0.03311842307448387,1,0.007980437949299812,1,-0.02900887094438076,1
1773074360974262272,0.5994219779968262,1,0.002062283456325531,1,0.3089554607868195,1,0.027873320505023,1,0.0008021080866456032,1,-0.03026517666876316,1
1773074360983940352,0.5681987404823303,1,0.04383482411503792,1,0.2970062494277954,1,0.01790716871619225,1,-0.001128732808865607,1,-0.029241057112813,1
1773074360993534208,0.8104572892189026,1,-0.09742605686187744,1,0.1547550410032272,1,0.007493733894079924,1,-0.005429128650575876,1,-0.02810716442763805,1
1773074361003048704,0.8043955564498901,1,-0.05311489850282669,1,-0.01864306628704071,1,-0.004610009957104921,1,-0.002462813630700111,1,-0.02883476950228214,1
1773074361012473088,0.5771746635437012,1,0.109563335776329,1,-0.09289567172527313,1,-0.008624883368611336,1,0.002240643370896578,1,-0.02927941270172596,1
1773074361021953792,0.4240779876708984,1,0.1548234522342682,1,-0.006045084446668625,1,0.005760869942605495,1,0.008056336082518101,1,-0.02671393007040024,1
1773074361032651776,0.737874448299408,1,-0.035960853099823,1,0.2628733813762665,1,0.009544113650918007,1,0.007048014085739851,1,-0.02433705702424049,1
1773074361043247104,0.9016255736351013,1,-0.07404918223619461,1,0.1604359745979309,1,-0.003690851852297783,1,-0.0004163854173384607,1,-0.02507055923342705,1
1773074361053744640,0.6711705327033997,1,0.03506482392549515,1,0.2091435492038727,1,-0.00680129136890173,1,0.001689122524112463,1,-0.02514133788645267,1
1773074361064146432,0.5346372127532959,1,0.1234083026647568,1,0.2568243741989136,1,-0.001939848763868213,1,-0.009804908186197281,1,-0.02437026798725128,1
1773074361074447360,0.666001558303833,1,0.1167394295334816,1,-0.08471116423606873,1,0.0112062431871891,1,-0.01269493717700243,1,-0.0221068486571312,1
1773074361084649984,0.8589109182357788,1,-0.03986755758523941,1,-0.1428416669368744,1,0.02721460908651352,1,-0.004851595498621464,1,-0.02138325199484825,1
1773074361094755072,0.5973682403564453,1,-0.07735012471675873,1,0.0331505611538887,1,0.02243351377546787,1,-0.002037344966083765,1,-0.02118229493498802,1
1773074361104762624,0.3605387508869171,1,-0.005999321117997169,1,0.1602914929389954,1,0.01959845796227455,1,-0.0008446024730801582,1,-0.02112388052046299,1
1773074361114673664,0.610920250415802,1,-0.1088907420635223,1,0.2056906968355179,1,0.003219827776774764,1,-0.002519447123631835,1,-0.01924822852015495,1
1773074361124494080,0.7230920791625977,1,-0.1747763007879257,1,0.06468001753091812,1,-0.01393405068665743,1,-0.004680803511291742,1,-0.01924299634993076,1
1773074361134219520,0.5601580142974854,1,-0.05659336596727371,1,0.1088707894086838,1,-0.01660329662263393,1,-0.002405088394880295,1,-0.02004467695951462,1
1773074361143849216,0.4203603565692902,1,0.018257986754179,1,0.003175809979438782,1,-0.009461554698646069,1,-0.007617644965648651,1,-0.01921776682138443,1
1773074361153385472,0.5411576628684998,1,0.01407169178128242,1,-0.07738862186670303,1,0.004130277782678604,1,-0.002319872379302979,1,-0.01736058108508587,1
1773074361162829824,0.6120249629020691,1,-0.108628548681736,1,0.02893030643463135,1,0.006402571219950914,1,0.0003288476727902889,1,-0.0168191883713007,1
1773074361172182272,0.4915275871753693,1,-0.1264223903417587,1,0.1129205599427223,1,0.005146835464984179,1,-0.002580887172371149,1,-0.0169104877859354,1
1773074361182045952,0.3801575005054474,1,-0.03387089818716049,1,0.1177403256297112,1,-0.001553163165226579,1,-0.004034279379993677,1,-0.01839821040630341,1
1773074361192712448,0.438380241394043,1,-0.02008638344705105,1,0.0863490030169487,1,-0.008757905103266239,1,-0.005146820098161697,1,-0.01676324009895325,1
1773074361203275776,0.5290179252624512,1,-0.0847981795668602,1,-0.05575229972600937,1,-0.008265212178230286,1,-0.009098057635128498,1,-0.01486442144960165,1
1773074361213737728,0.4884820580482483,1,-0.09098514169454575,1,-0.2381349503993988,1,-0.0006432898808270693,1,-0.003384022042155266,1,-0.01657935231924057,1
1773074361224105728,0.3578571677207947,1,-0.03399878367781639,1,-0.0004422236233949661,1,0.005066108424216509,1,0.002655856311321259,1,-0.01706003397703171,1
1773074361234373120,0.3516747653484344,1,0.01889315061271191,1,0.06250748038291931,1,-0.005042403936386108,1,0.0003146686940453947,1,-0.01601348072290421,1
1773074361244543232,0.3874539136886597,1,-0.02640926465392113,1,0.03100751712918282,1,-0.01894562318921089,1,0.002698493888601661,1,-0.01417290978133678,1
1773074361254618624,0.4163841009140015,1,-0.08438979089260101,1,0.09019958227872849,1,-0.01666467264294624,1,-0.002784377429634333,1,-0.01615481823682785,1
1773074361264597504,0.3702651858329773,1,0.04554571956396103,1,-0.05449908226728439,1,-0.01622823625802994,1,-0.006245012860745192,1,-0.01719060353934765,1
1773074361274480384,0.3226442039012909,1,0.1255325078964233,1,-0.1109212785959244,1,-0.006325327325612307,1,-0.003757121972739697,1,-0.01582434587180614,1
1773074361284278272,0.3404558897018433,1,0.03939183801412582,1,-0.09060537070035934,1,0.005512306466698647,1,-0.002096396638080478,1,-0.01373131480067968,1
1773074361293987584,0.3541092872619629,1,-0.01744530163705349,1,-0.04132893308997154,1,0.009048802778124809,1,-0.001304804929532111,1,-0.01431496534496546,1
1773074361303604224,0.2243919372558594,1,0.01168221235275269,1,0.02825720049440861,1,0.006252878345549107,1,0.000455705652711913,1,-0.0142799848690629,1
