Time,inertial-6286.188861:estLinearAccelX,inertial-6286.188861:estLinearAccelX:valid,inertial-6286.188861:estLinearAccelY,inertial-6286.188861:estLinearAccelY:valid,inertial-6286.188861:estLinearAccelZ,inertial-6286.188861:estLinearAccelZ:valid,inertial-6286.188861:estAngularRateX,inertial-6286.188861:estAngularRateX:valid,inertial-6286.188861:estAngularRateY,inertial-6286.188861:estAngularRateY:valid,inertial-6286.188861:estAngularRateZ,inertial-6286.188861:estAngularRateZ:valid
1773073099682256128,0.007924138568341732,1,0.05123288184404373,1,0.01903438754379749,1,0.002054014708846807,1,0.001852970686741173,1,-0.00209111743606627,1
1773073099692912896,0.07790370285511017,1,0.009111633524298668,1,0.0346381813287735,1,0.008069884963333607,1,0.00303584523499012,1,-0.001874137320555747,1
1773073099703470080,0.1580028831958771,1,-0.04261749982833862,1,0.05428512021899223,1,0.006218063179403543,1,0.003154018195345998,1,-0.002175896195694804,1
1773073099713926144,0.1258062869310379,1,-0.02154919505119324,1,0.06653093546628952,1,0.0009497175924479961,1,0.003357491688802838,1,-0.002954490948468447,1
1773073099724285952,0.04127239435911179,1,0.02935029380023479,1,0.06850877404212952,1,-0.001759157166816294,1,0.002692243782803416,1,-0.002429939340800047,1
1773073099734550784,-0.001327054807916284,1,0.06507400423288345,1,0.01670715771615505,1,0.003117709420621395,1,0.001650999533012509,1,-0.00160609744489193,1
1773073099744717824,0.08814995735883713,1,0.03451133146882057,1,-0.02226516231894493,1,0.01051325164735317,1,0.003264465602114797,1,-0.001014741603285074,1
1773073099754788352,0.1633719801902771,1,-0.003845871658995748,1,-0.02001539990305901,1,0.0105592655017972,1,0.005326559767127037,1,-0.001378152519464493,1
1773073099764762880,0.1422315835952759,1,0.01022835355252028,1,0.004280935972929001,1,0.00761852553114295,1,0.006269212812185287,1,-0.001875212299637496,1
1773073099774642176,0.06302736699581146,1,0.03254271298646927,1,0.0381477028131485,1,0.006761996075510979,1,0.006385189946740866,1,-0.001278971671126783,1
1773073099784426752,0.0229815635830164,1,0.05280277132987976,1,0.05038286000490189,1,0.01049965340644121,1,0.005454056896269321,1,-0.0008240322931669652,1
1773073099794121216,0.0882614329457283,1,0.005610791500657797,1,0.03408518806099892,1,0.01589468121528625,1,0.005431612487882376,1,-0.0002476773806847632,1
1773073099803722752,0.1474977284669876,1,-0.04287144541740417,1,0.03129216656088829,1,0.0149829713627696,1,0.006217232905328274,1,-0.0009018455748446286,1
1773073099813234688,0.1218852326273918,1,-0.02596180327236652,1,0.05128834396600723,1,0.009517495520412922,1,0.005794466473162174,1,-0.001659288769587874,1
1773073099822655232,0.05053571239113808,1,0.006083426531404257,1,0.05640687048435211,1,0.006138619501143694,1,0.00511367479339242,1,-0.001403949456289411,1
1773073099831984384,0.04663872346282005,1,0.0380374975502491,1,0.05412061512470245,1,0.006348392926156521,1,0.003634251188486814,1,-0.0004764584009535611,1
1773073099842275840,0.08546692878007889,1,-0.009626239538192749,1,0.03789162263274193,1,0.009128543548285961,1,0.004313332028687,1,-7.834196730982512e-05,1
1773073099852909056,0.1693952083587646,1,-0.03098353184759617,1,0.07281385362148285,1,0.005643654149025679,1,0.004497832618653774,1,-0.0007785736816003919,1
1773073099863445248,0.1127452999353409,1,-0.01899469457566738,1,0.08166946470737457,1,0.0007902011275291443,1,0.003464810084551573,1,-0.001032441621646285,1
1773073099873883648,0.05769269540905952,1,0.02811866253614426,1,0.08605067431926727,1,-0.0001518060744274408,1,0.002974463393911719,1,-0.0008706768858246505,1
1773073099884222208,0.02540178410708904,1,0.04581589996814728,1,0.0581199899315834,1,0.005089922342449427,1,0.001825290848501027,1,0.00035376354935579,1
1773073099894460672,0.1006382256746292,1,0.01796135306358337,1,0.04092727228999138,1,0.01011471729725599,1,0.002803882118314505,1,0.0003772897180169821,1
1773073099904602880,0.1657991111278534,1,-0.02708501927554607,1,0.06604304909706116,1,0.008836071006953716,1,0.002700186800211668,1,-0.0001134453486884013,1
1773073099914648832,0.102352075278759,1,-0.01898546703159809,1,0.07785506546497345,1,0.002729084342718124,1,0.002140557859092951,1,-2.320728708582465e-05,1
1773073099924599296,0.03810320049524307,1,0.02528381906449795,1,0.07837209105491638,1,0.0008973320946097374,1,0.0009723800467327237,1,-0.0002331067953491583,1
1773073099934458112,0.03314423561096191,1,0.04457734525203705,1,0.06301203370094299,1,0.003628719365224242,1,0.0001379610330332071,1,0.0006404479499906301,1
1773073099944222208,0.1274252533912659,1,-0.02023803628981113,1,0.04533133655786514,1,0.005426574964076281,1,0.001225244137458503,1,0.000470045575639233,1
1773073099953892352,0.1653345674276352,1,-0.03137447312474251,1,0.0371391549706459,1,0.003291944274678826,1,0.001606204081326723,1,-0.0004329013754613698,1
1773073099963469568,0.1019556596875191,1,0.01339487545192242,1,0.05240426957607269,1,-0.0004590150201693177,1,0.001353981206193566,1,-0.0003579717013053596,1
1773073099972954880,0.03320659324526787,1,0.02393818646669388,1,0.04891223460435867,1,-0.0009094278793781996,1,-0.0001000232587102801,1,0.0002844513219315559,1
1773073099982348800,0.05567452311515808,1,0.02833497896790504,1,0.03622515872120857,1,0.003605929436162114,1,0.0002845271956175566,1,0.000313750293571502,1
1773073099991659008,0.1550976186990738,1,-0.005412397906184196,1,0.04117722436785698,1,0.005631649401038885,1,0.0007472214638255537,1,0.0003256516065448523,1
1773073100002378496,0.1533598303794861,1,-0.03761992231011391,1,0.08127451688051224,1,0.001525295898318291,1,0.001379123190417886,1,-0.0002506212622392923,1
1773073100012996352,0.08019272983074188,1,-0.004898447543382645,1,0.09158448129892349,1,-0.004444803576916456,1,-0.0003111303376499563,1,-0.0007492097211070359,1
1773073100023518464,0.04256269335746765,1,0.04030931740999222,1,0.05992668867111206,1,-0.004521943163126707,1,-0.002477885922417045,1,0.0001431561249773949,1
1773073100033941248,0.07121074199676514,1,0.01779708825051785,1,0.02556005492806435,1,0.0005638546426780522,1,-0.002541386056691408,1,0.000776145257987082,1
1773073100044263936,0.1695898473262787,1,-0.030461760237813,1,0.03753506019711494,1,0.00205404101870954,1,-0.001416508690454066,1,0.0008140978752635419,1
1773073100054489600,0.1649835258722305,1,-0.03581482917070389,1,0.0592118613421917,1,-0.003205456770956516,1,-0.0008675502613186836,1,-8.62154847709462e-05,1
1773073100064618240,0.1090572476387024,1,-0.01768588833510876,1,0.08075746893882751,1,-0.007385050877928734,1,-0.001768413931131363,1,-0.000290567782940343,1
1773073100074664192,0.04381681606173515,1,0.0249699242413044,1,0.06068938225507736,1,-0.00748575059697032,1,-0.003097987733781338,1,0.0004221901181153953,1
1773073100084615680,0.05713439360260963,1,-0.008039997890591621,1,0.0536092221736908,1,-0.002615923527628183,1,-0.003656783374026418,1,0.000635209959000349,1
1773073100094472192,0.1307083666324615,1,-0.01387659832835197,1,0.04812420532107353,1,-0.001642796443775296,1,-0.003629725659266114,1,0.0005861004465259612,1
1773073100104235008,0.1371223032474518,1,-0.06667138636112213,1,0.03925205394625664,1,-0.005052660126239061,1,-0.002825887175276875,1,-0.00021339301019907,1
1773073100113904384,0.0896499827504158,1,-0.034954983741045,1,0.05543415993452072,1,-0.007899018004536629,1,-0.004113341215997934,1,-0.0001836071896832436,1
1773073100123480320,0.01639419794082642,1,0.01896494813263416,1,0.0513470433652401,1,-0.008652581833302975,1,-0.004653927404433489,1,-0.0001243472652276978,1
1773073100132965888,0.02448838017880917,1,-0.03867452964186668,1,0.05832844600081444,1,-0.006728386972099543,1,-0.005540421232581139,1,-0.0005505985463969409,1
1773073100142362624,0.1366079300642014,1,-0.004183750133961439,1,0.03619679808616638,1,-0.006534583866596222,1,-0.002688145730644464,1,-0.0007334743277169764,1
1773073100151816704,0.1336819529533386,1,-0.04531852155923843,1,0.0357576347887516,1,-0.009465711191296577,1,-0.002935958560556173,1,-0.00134331127628684,1
1773073100162506752,0.08758624643087387,1,-0.03164902329444885,1,0.07236145436763763,1,-0.01351864449679852,1,-0.003506573848426342,1,-0.001752244657836854,1
1773073100173094656,-0.02014854177832603,1,0.04692895710468292,1,0.04347787797451019,1,-0.01164300087839365,1,-0.004784857388585806,1,-0.001506558386608958,1
1773073100183585792,0.03762595355510712,1,0.04027611762285233,1,0.04549733176827431,1,-0.002529460936784744,1,-0.00470319576561451,1,-0.0003962249611504376,1
1773073100193977088,0.06799202412366867,1,-0.05534249544143677,1,0.03635512292385101,1,-0.0001657867396716028,1,-0.005314260255545378,1,-0.001351047772914171,1
1773073100204268800,0.1903134733438492,1,-0.01460953056812286,1,0.07213237136602402,1,-0.003943532705307007,1,-0.002450627274811268,1,-0.002104478888213634,1
1773073100214462976,0.08250518888235092,1,-0.03547335043549538,1,0.040720384567976,1,-0.01208499819040298,1,-0.004805879201740026,1,-0.002379404380917549,1
1773073100224560640,-0.02754190191626549,1,0.05065879225730896,1,0.02942788228392601,1,-0.01107625290751457,1,-0.00210705935023725,1,-0.002269580727443099,1
1773073100234560512,0.05485773086547852,1,0.05582225695252419,1,-0.001450044102966785,1,-0.004291726276278496,1,-0.005086023360490799,1,-0.0008820847724564373,1
1773073100244481024,0.07924032211303711,1,-0.01619015261530876,1,-0.00817914679646492,1,-0.0002201952156610787,1,-0.0008668791851960123,1,-0.00117953890003264,1
1773073100254322176,0.1926651448011398,1,-0.02201129123568535,1,0.02727877721190453,1,-0.002273771911859512,1,-0.001674338709563017,1,-0.001369055709801614,1
1773073100264069632,0.05304089933633804,1,0.04969105497002602,1,0.01744524948298931,1,-0.003167223185300827,1,-0.001204502885229886,1,-0.001598139991983771,1
1773073100273724928,0.04424646869301796,1,0.02130555920302868,1,0.06373069435358047,1,0.0002203009207732975,1,-0.0009321276447735727,1,-0.000648524088319391,1
1773073100283288320,0.007591822650283575,1,0.02838272973895073,1,0.0107349269092083,1,0.003137108869850636,1,-0.001250700326636434,1,-2.337188925594091e-05,1
1773073100292762368,0.1626898348331451,1,-0.04773407056927681,1,0.04160558432340622,1,0.004788534715771675,1,-0.0001146072463598102,1,-0.0002973194932565093,1
1773073100302145280,0.1236407533288002,1,-0.08261016011238098,1,0.03649025782942772,1,-0.001372639089822769,1,0.001077886903658509,1,-0.001180240768007934,1
1773073100312026368,0.07030567526817322,1,-0.03317414969205856,1,0.08820006996393204,1,-0.005589406006038189,1,0.001649612560868263,1,-0.0018333027837798,1
1773073100322685952,0.01186539046466351,1,-0.02545475028455257,1,0.06686598062515259,1,-0.007760593201965094,1,-0.002851977245882154,1,-0.001204180647619069,1
1773073100333244416,0.05419500544667244,1,-0.03193272650241852,1,0.0977458730340004,1,-0.007039936725050211,1,-0.001274616224691272,1,-0.001340488903224468,1
1773073100343702528,0.08358784019947052,1,-0.005754346027970314,1,0.06065055727958679,1,-0.008770824410021305,1,-0.002397085772827268,1,-0.002588276984170079,1
1773073100354064128,0.1725196987390518,1,-0.04631537199020386,1,0.0604628250002861,1,-0.008304123766720295,1,-0.00215348694473505,1,-0.002759697614237666,1
1773073100364338688,0.1057211458683014,1,-0.04802420362830162,1,0.08054345101118088,1,-0.01413092762231827,1,-0.00175005046185106,1,-0.003305072197690606,1
1773073100374515456,0.03656657412648201,1,0.03630481660366058,1,0.08972248435020447,1,-0.01513283606618643,1,-0.001929088030010462,1,-0.003791203955188394,1
1773073100384595456,0.005793477408587933,1,0.07715735584497452,1,0.04667306318879128,1,-0.008774534799158573,1,-0.002075710566714406,1,-0.002850765595212579,1
1773073100394580480,0.1044658944010735,1,0.02187406644225121,1,0.08783505856990814,1,-0.001711005112156272,1,-0.0009205478709191084,1,-0.001200327416881919,1
1773073100404470016,0.1015090048313141,1,-0.08492499589920044,1,0.02452011220157146,1,-0.008258992806077003,1,-0.003851155750453472,1,-0.003634485183283687,1
1773073100414263808,0.1191176772117615,1,0.07968015223741531,1,0.05119021236896515,1,-0.00689622201025486,1,-0.001673127058893442,1,-0.003651840379461646,1
1773073100423967744,-0.02857232838869095,1,0.01258656568825245,1,0.06199833378195763,1,-0.005964741576462984,1,-0.002912176307290792,1,-0.003198565216735005,1
1773073100433579264,0.02464793436229229,1,0.1000071913003922,1,0.06412125378847122,1,-0.0009676564950495958,1,-0.0001959014189196751,1,-0.001890121959149837,1
1773073100443098880,0.1727110892534256,1,-0.03558477014303207,1,0.04429413005709648,1,-0.002650583395734429,1,-0.001029153354465961,1,-0.0004686882602982223,1
1773073100452527104,0.1167594566941261,1,-0.01626744866371155,1,-0.02029218524694443,1,-0.01173058897256851,1,-0.0006943017360754311,1,-0.002470191102474928,1
1773073100461864704,0.1051444634795189,1,0.006603702902793884,1,0.08917859196662903,1,-0.009130430407822132,1,-0.001444017398171127,1,-0.001318069058470428,1
1773073100472151808,-0.04299171641469002,1,0.04456710070371628,1,0.04870105534791946,1,-0.01012992393225431,1,-0.003131717210635543,1,-0.002787218894809484,1
1773073100482787328,0.05411001667380333,1,0.04673755541443825,1,0.08873334527015686,1,0.0007688718033023179,1,-0.003343685064464808,1,-0.00117344525642693,1
1773073100493322240,0.08913973718881607,1,-0.0124687310308218,1,-0.01319831516593695,1,-0.003780100028961897,1,-0.002194883767515421,1,-0.002920902334153652,1
1773073100503757568,0.2040224969387054,1,0.0005169287323951721,1,0.03782869502902031,1,-0.004983726888895035,1,-0.003596063936129212,1,-0.001305858953855932,1
1773073100514093056,0.03225158900022507,1,-0.0134417861700058,1,-0.04040340334177017,1,-0.01759352348744869,1,-0.002531272126361728,1,-0.003564598271623254,1
1773073100524337152,0.05316952988505363,1,0.01827435567975044,1,0.06428142637014389,1,-0.009214760735630989,1,-0.004248922225087881,1,-0.002039301674813032,1
1773073100534494208,0.01413839031010866,1,0.1414255052804947,1,-0.03255286067724228,1,-0.009614428505301476,1,-0.001030866522341967,1,-0.002253648592159152,1
1773073100544554496,0.1724260747432709,1,-0.09295949339866638,1,0.08047588914632797,1,-0.001761264633387327,1,-0.002371666021645069,1,-0.001341139897704124,1
1773073100554518784,0.1770557165145874,1,0.00393732450902462,1,0.05260460078716278,1,-0.01614702492952347,1,-0.001204999862238765,1,-0.002870815806090832,1
1773073100564390912,0.07646258175373077,1,-0.04131624102592468,1,0.02005711384117603,1,-0.01782907359302044,1,-0.003429597476497293,1,-0.004491169936954975,1
1773073100574168064,0.05338610336184502,1,0.1057924628257751,1,0.09790736436843872,1,-0.008211082778871059,1,-0.00334698474034667,1,-0.002517305081710219,1
1773073100583851008,0.01400059927254915,1,0.03683970123529434,1,0.1147098764777184,1,-0.009684067219495773,1,-0.004234015010297298,1,-0.002505533630028367,1
1773073100593445120,0.1027102097868919,1,-0.1739971488714218,1,0.1427859365940094,1,-0.007217403966933489,1,-0.005938074551522732,1,-0.004210625309497118,1
1773073100602946816,0.1892456114292145,1,0.1275359988212585,1,0.05171381682157516,1,-0.01913929544389248,1,-0.005507542286068201,1,-0.003993436694145203,1
1773073100612356864,0.04790333658456802,1,-0.1534548699855804,1,0.01515431329607964,1,-0.0203691590577364,1,-0.007229623850435019,1,-0.004805353470146656,1
1773073100621676800,0.04549780488014221,1,-0.06428436189889908,1,0.1772389560937881,1,-0.01877981051802635,1,-0.004941172897815704,1,-0.005038878880441189,1
1773073100632398336,0.05396037176251411,1,0.1599478274583817,1,0.04115566238760948,1,-0.02284206822514534,1,-0.005231456831097603,1,-0.00472327833995223,1
1773073100643019776,0.06292571872472763,1,-0.097460076212883,1,-0.03159723803400993,1,-0.01096576731652021,1,-0.006005517207086086,1,-0.006520177237689495,1
1773073100653541376,0.2010374367237091,1,-0.01203989610075951,1,0.1123485863208771,1,-0.0116592850536108,1,-0.001805736217647791,1,-0.00368940643966198,1
1773073100663967232,0.08870714902877808,1,0.1485424488782883,1,-0.06455886363983154,1,-0.02375257946550846,1,-0.001868605730123818,1,-0.004113076720386744,1
1773073100674292736,-0.02456914633512497,1,-0.0972953587770462,1,-0.002865638583898544,1,-0.005173023324459791,1,-0.005317189265042543,1,-0.003469399642199278,1
1773073100684519424,0.100328229367733,1,0.3574685156345367,1,0.08079534024000168,1,-0.0006569346878677607,1,-0.0006432879599742591,1,-0.0004840652109123766,1
1773073100694649344,0.06722661107778549,1,-0.2176167070865631,1,-0.03113710694015026,1,0.001896776957437396,1,-0.002897794125601649,1,-0.001899160677567124,1
1773073100704682496,0.2700181603431702,1,0.09447015076875687,1,0.1256126463413239,1,-0.0009204208618029952,1,-0.0008473722264170647,1,0.0003029605722986162,1
1773073100714619392,0.07265686243772507,1,-0.1210557445883751,1,-0.06506747007369995,1,-0.01686306484043598,1,-0.004438949748873711,1,-0.002188465557992458,1
1773073100724477696,0.1021510288119316,1,0.0330539271235466,1,0.1536189019680023,1,-0.0007356316782534122,1,-0.004957954864948988,1,0.0003955869469791651,1
1773073100734261248,0.004009902477264404,1,0.07017336040735245,1,0.01430721301585436,1,-0.01375538855791092,1,-0.004161529242992401,1,-0.001664103823713958,1
1773073100743952640,0.1547068804502487,1,-0.1236691847443581,1,0.08330023288726807,1,0.0001629432663321495,1,-0.006920919753611088,1,0.0004942025407217443,1
1773073100753551616,0.1359621435403824,1,0.03950539231300354,1,-0.04226194694638252,1,-0.01985550485551357,1,-0.005505792796611786,1,-0.002579594729468226,1
1773073100763060992,0.09621667116880417,1,-0.1250814497470856,1,-0.03553121536970139,1,-0.009357103146612644,1,-0.007713023107498884,1,-0.001137356855906546,1
1773073100772478976,-0.02392929419875145,1,0.1042695641517639,1,-0.02289796434342861,1,-0.01056672446429729,1,-0.003984106238931417,1,-0.00218094908632338,1
1773073100781952256,0.05529728159308434,1,0.006225839257240295,1,0.07819033414125443,1,-0.00284830667078495,1,-0.005582646932452917,1,0.0008058936218731105,1
1773073100792639488,0.05294140428304672,1,-0.150567889213562,1,0.04409004002809525,1,-0.01604192331433296,1,-0.005858150776475668,1,-0.003553553018718958,1
1773073100803225600,0.2568903863430023,1,0.08235150575637817,1,0.06767372786998749,1,-0.02046996913850307,1,-0.006066229660063982,1,-0.001192033640109003,1
1773073100813710336,0.101049430668354,1,-0.1861732453107834,1,0.02563489601016045,1,-0.02818389423191547,1,-0.008358391001820564,1,-0.003345120931044221,1
1773073100824094976,0.07197115570306778,1,0.06994939595460892,1,0.1583084762096405,1,-0.02332034334540367,1,-0.005643185693770647,1,-0.003137237159535289,1
1773073100834381312,0.05460240319371223,1,0.07718821614980698,1,0.102134570479393,1,-0.01822186633944511,1,-0.007419819477945566,1,-0.001580231008119881,1
1773073100844568320,0.1181895360350609,1,0.01831847988069057,1,0.09093413501977921,1,-0.01542848628014326,1,-0.009482205845415592,1,-0.0009610106935724616,1
1773073100854664192,0.1937384903430939,1,0.0008712438866496086,1,0.05689755082130432,1,-0.02157405391335487,1,-0.009835192933678627,1,0.0004359629820100963,1
1773073100864686336,0.07708707451820374,1,-0.07910984754562378,1,0.0123260673135519,1,-0.02248400636017323,1,-0.01121352054178715,1,-0.001538558048196137,1
1773073100874612992,0.006827014498412609,1,0.1009472012519836,1,0.05789946764707565,1,-0.01134082488715649,1,-0.008307170122861862,1,-0.0009584479266777635,1
1773073100884445440,0.01605433225631714,1,0.003897145390510559,1,0.1191797852516174,1,-0.006142158061265945,1,-0.007301365025341511,1,0.0001380825415253639,1
1773073100894185216,0.07854712009429932,1,-0.02417483180761337,1,0.1484573632478714,1,-0.01461177598685026,1,-0.007795867044478655,1,0.0002419783268123865,1
1773073100903831552,0.1394032686948776,1,-0.05647024139761925,1,0.06047713756561279,1,-0.02605880796909332,1,-0.007938923314213753,1,-0.0006447132327593863,1
1773073100913384960,0.0632190927863121,1,0.01036958303302526,1,-0.0517643466591835,1,-0.02418398670852184,1,-0.007347576785832644,1,-0.001812453730963171,1
1773073100922849792,-0.006323558744043112,1,0.06356916576623917,1,-0.009157034568488598,1,-0.009426815435290337,1,-0.006007578689604998,1,-0.001086665433831513,1
1773073100932224768,0.005727950949221849,1,0.0465037077665329,1,0.0438067801296711,1,-0.002229280536994338,1,-0.004793240688741207,1,-0.0006791595369577408,1
1773073100942097664,0.08689343929290771,1,0.02387362159788609,1,0.02352499961853027,1,-0.003788668429479003,1,-0.005083019379526377,1,-0.000164436103659682,1
1773073100952757504,0.1373135298490524,1,-0.03128335252404213,1,-0.04304884001612663,1,-0.005941756069660187,1,-0.003778883488848805,1,-0.000139850759296678,1
1773073100963320320,0.09951335936784744,1,-0.01341600809246302,1,-0.04901573061943054,1,-0.005428310018032789,1,-0.002493915613740683,1,0.0002037210942944512,1
1773073100973787136,-0.002913177013397217,1,0.02782999724149704,1,0.006139972247183323,1,-0.001693439437076449,1,-0.001488928101025522,1,0.0009419074049219489,1
1773073100984157184,0.0121651217341423,1,0.004400774370878935,1,0.05318938940763474,1,0.0004784008488059044,1,-0.001222416525706649,1,0.001404926064424217,1
1773073100994435072,0.1021022945642471,1,-0.05411131680011749,1,0.01148334424942732,1,-0.002166282385587692,1,-0.0009792930213734508,1,0.001131809200160205,1
1773073101004617472,0.1592008173465729,1,-0.0752970278263092,1,-0.004024793859571218,1,-0.004288285039365292,1,9.909152868203819e-05,1,0.0003898406866937876,1
1773073101014703104,0.08158278465270996,1,-0.0531962662935257,1,0.02909308858215809,1,-0.005471876822412014,1,0.0008655776036903262,1,-0.0003351149498485029,1
1773073101024699136,-0.00727097038179636,1,0.0133959548547864,1,0.09226755052804947,1,-0.004257178865373135,1,0.0006525630014948547,1,-0.0001261314610019326,1
1773073101034602240,0.01629003882408142,1,0.02247016876935959,1,0.07898294925689697,1,-0.002908357651904225,1,-0.000326619716361165,1,0.0004416851734276861,1
1773073101044412672,0.128303661942482,1,-0.01840676739811897,1,0.01860371045768261,1,-0.004186559468507767,1,-0.0004650455084629357,1,0.0006469865329563618,1
1773073101054133504,0.1718581914901733,1,-0.03951658681035042,1,-0.01442820765078068,1,-0.007020180579274893,1,0.0002546816831454635,1,-0.0001153132179751992,1
1773073101063763200,0.0941307470202446,1,0.006098889745771885,1,0.007894167676568031,1,-0.006869941484183073,1,0.001323683303780854,1,-0.0002568427880760282,1
1773073101073301504,0.006092045921832323,1,0.06353013962507248,1,0.06548940390348434,1,-0.002499846275895834,1,0.0006607664981856942,1,0.0001006126549327746,1
1773073101082753792,0.02790128998458385,1,0.06492643058300018,1,0.07652795314788818,1,0.000752901891246438,1,0.0002099729317706078,1,0.0008100442355498672,1
1773073101092120064,0.1367553472518921,1,0.01546337641775608,1,0.04351198673248291,1,0.000433261098805815,1,0.0001348679943475872,1,0.001360381837002933,1
1773073101102414592,0.1698766201734543,1,-0.02148225158452988,1,0.005715832114219666,1,-0.001385216368362308,1,0.0001407402014592662,1,0.0009169888217002153,1
1773073101113047040,0.0961926281452179,1,0.004044734407216311,1,0.01376188173890114,1,-0.0001259336422663182,1,0.0007419520989060402,1,7.78923713369295e-05,1
1773073101123580160,0.01323342695832253,1,0.05173021554946899,1,0.05378169193863869,1,0.005606695543974638,1,0.000361953949322924,1,1.751471791067161e-05,1
1773073101134014208,0.02503199130296707,1,0.04280910268425941,1,0.06702012568712234,1,0.01010661944746971,1,0.0003080730966757983,1,0.0001188827882288024,1
1773073101144348672,0.1227014064788818,1,-0.008979858830571175,1,0.06240204349160194,1,0.007929760031402111,1,0.0002498457906767726,1,0.0003372168866917491,1
1773073101154586624,0.1691829115152359,1,-0.05556818470358849,1,0.03586219251155853,1,0.00124448211863637,1,0.0001021199859678745,1,-0.0003729745512828231,1
1773073101164725760,0.1155459880828857,1,-0.01712304353713989,1,0.02856493927538395,1,-0.003295728703960776,1,0.0004616803780663759,1,-0.0007990375161170959,1
1773073101174768896,0.02571331523358822,1,0.05095001682639122,1,0.05364349484443665,1,-0.0006931181997060776,1,0.000214428233448416,1,-0.0004716308903880417,1
1773073101184719616,0.02080162242054939,1,0.04717611894011497,1,0.05072637274861336,1,0.004177400842308998,1,0.0004110308946110308,1,7.151342288125306e-05,1
1773073101194597376,0.09787379205226898,1,-0.01449301280081272,1,-0.004755498841404915,1,0.006909794639796019,1,0.001965043134987354,1,8.265588257927448e-05,1
1773073101204381440,0.1784517765045166,1,-0.03743603080511093,1,-0.0184631273150444,1,0.008236359804868698,1,0.00229553529061377,1,0.0002140025608241558,1
1773073101214071808,0.1030192673206329,1,-0.06311357021331787,1,0.02163694798946381,1,0.006486243568360806,1,0.002813354367390275,1,-0.0003774813958443701,1
1773073101223670784,0.01508778240531683,1,0.002619755454361439,1,0.1404901891946793,1,0.005037931725382805,1,0.001819442957639694,1,-0.000259643595200032,1
1773073101233177856,0.008538735099136829,1,0.006467905826866627,1,0.1426530033349991,1,0.0007613975321874022,1,7.981840462889522e-05,1,0.0005608746432699263,1
1773073101242594304,0.09923932701349258,1,-0.02902552857995033,1,0.08302298933267593,1,-0.003995621111243963,1,0.000300058803986758,1,0.0007683432777412236,1
1773073101251922944,0.1587408035993576,1,-0.06282354891300201,1,0.02716656774282455,1,-0.008155174553394318,1,-0.0006412740331143141,1,0.0003889149520546198,1
1773073101262637824,0.1190943494439125,1,-0.007888245396316051,1,0.01664142869412899,1,-0.008991753682494164,1,-0.0006249002180993557,1,-0.0004439600743353367,1
1773073101273250816,0.03668075799942017,1,0.05288329347968102,1,0.05592624470591545,1,-0.004601240623742342,1,-0.00216752802953124,1,3.240810474380851e-05,1
1773073101283761408,0.01177259534597397,1,0.0511116124689579,1,0.06064901500940323,1,-0.0005462350090965629,1,-0.001874475041404366,1,0.0007934924797154963,1
1773073101294172928,0.0784970223903656,1,0.03130362927913666,1,0.04505430907011032,1,0.0009585914667695761,1,-0.001710838871076703,1,0.001368188299238682,1
1773073101304485120,0.1361210942268372,1,-0.03487098589539528,1,0.0126438532024622,1,0.0002462922711856663,1,-0.001168415416032076,1,0.001271149376407266,1
1773073101314697216,0.1159803569316864,1,-0.03336688131093979,1,0.003571309614926577,1,-0.001277348608709872,1,-0.0005678128218278289,1,0.000585750094614923,1
1773073101324815360,0.01951005682349205,1,0.03254540264606476,1,0.0453401617705822,1,-0.0003831384528893977,1,-0.0003252775932196528,1,0.0004825838259421289,1
1773073101334847744,-0.02359863743185997,1,0.03086061775684357,1,0.0624535083770752,1,0.001294526387937367,1,0.000425488717155531,1,0.0006122395279817283,1
1773073101344795904,0.046469796448946,1,0.01871627382934093,1,0.04329358041286469,1,0.0005500589031726122,1,0.0003304466954432428,1,0.0004437830357346684,1
1773073101354649088,0.1263066083192825,1,-0.02980555221438408,1,0.006014999933540821,1,-0.000627125846222043,1,0.0006684027030132711,1,0.0002377442579017952,1
1773073101364408064,0.1293551474809647,1,-0.03662142902612686,1,0.006838554982095957,1,-0.001435986836440861,1,0.001636450993828475,1,-0.0004323906032368541,1
1773073101374073856,0.03982758522033691,1,0.02963519096374512,1,0.0669836550951004,1,-0.0002732040884438902,1,0.001777837867848575,1,-0.0002654974232427776,1
1773073101383648000,0.005767172202467918,1,0.05133611336350441,1,0.1142619550228119,1,0.001775514450855553,1,0.001350184087641537,1,0.0003094875137321651,1
1773073101393129728,0.09032858163118362,1,0.02233980968594551,1,0.08577367663383484,1,0.00104364100843668,1,0.0004256489046383649,1,0.0005714858998544514,1
1773073101402523648,0.1656354069709778,1,-0.01651492714881897,1,0.03500739112496376,1,-0.001583572593517601,1,0.000404632359277457,1,0.000722741533536464,1
1773073101411974912,0.1273094266653061,1,-0.01021279953420162,1,0.02136809378862381,1,-0.001662771566770971,1,0.0008309470722451806,1,0.0003098140878137201,1
1773073101422661888,0.02231409028172493,1,0.05943311005830765,1,0.06068243458867073,1,0.001813205890357494,1,0.0006286732386797667,1,0.000979360775090754,1
1773073101433248000,-0.0164505485445261,1,0.08513966202735901,1,0.07185118645429611,1,0.004978051409125328,1,0.0001270928769372404,1,0.001878495793789625,1
1773073101443737344,0.06487014144659042,1,0.04572245851159096,1,0.02727201208472252,1,0.005752809345722198,1,0.0005489813629537821,1,0.003182871267199516,1
1773073101454129920,0.1538299471139908,1,-0.02100903913378716,1,-0.01393421646207571,1,0.00183488882612437,1,0.001057154382579029,1,0.003350838087499142,1
1773073101464424192,0.140711709856987,1,-0.02448060736060143,1,-0.009968172758817673,1,-0.001293458160944283,1,0.001843325793743134,1,0.002981247380375862,1
1773073101474620416,0.05394493415951729,1,0.01797755062580109,1,0.05955185368657112,1,-0.001942188362590969,1,0.002948378911241889,1,0.003245861735194921,1
1773073101484718336,-0.006847175303846598,1,0.05520845204591751,1,0.124908447265625,1,-0.001581715303473175,1,0.002143260557204485,1,0.003420241177082062,1
1773073101494718720,0.03554006665945053,1,0.01827558316290379,1,0.09688419848680496,1,-0.002813115017488599,1,0.001744773820973933,1,0.003771947463974357,1
1773073101504623616,0.1341941207647324,1,-0.03388800472021103,1,0.02507429383695126,1,-0.002956434618681669,1,0.001099870656616986,1,0.003145095426589251,1
1773073101514436352,0.1397169083356857,1,-0.0386710986495018,1,0.008632300421595573,1,-0.002507481491193175,1,0.001698275096714497,1,0.002263299422338605,1
1773073101524155136,0.04751913994550705,1,0.007801550906151533,1,0.05493974313139915,1,-0.001918726949952543,1,0.002416291506960988,1,0.001827362342737615,1
1773073101533781504,-0.04615974426269531,1,0.05911204591393471,1,0.1054340600967407,1,-0.0008585473406128585,1,0.001718715880997479,1,0.00172490207478404,1
1773073101543314944,-0.009821665473282337,1,0.03010949864983559,1,0.08990391343832016,1,-0.002751293359324336,1,0.001195269403979182,1,0.002017432358115911,1
1773073101552756992,0.1030225902795792,1,-0.01525464653968811,1,0.02026013657450676,1,-0.004490183666348457,1,0.000928045017644763,1,0.002065031789243221,1
1773073101562107904,0.1796707957983017,1,-0.05151618272066116,1,0.005342636257410049,1,-0.007292673923075199,1,0.002035913988947868,1,0.001703195390291512,1
1773073101571966976,0.1044520661234856,1,-0.01945412531495094,1,0.07507035881280899,1,-0.01110211107879877,1,0.002513805171474814,1,0.001352007500827312,1
1773073101582617600,0.01147127337753773,1,0.02837862446904182,1,0.177276611328125,1,-0.01824408024549484,1,0.001316011534072459,1,0.00182380189653486,1
1773073101593167872,0.001032077707350254,1,-0.001225072424858809,1,0.2178563177585602,1,-0.03344736248254776,1,-0.006876200903207064,1,0.003480607178062201,1
1773073101603618560,0.09823043644428253,1,-0.05615518987178802,1,0.1792659163475037,1,-0.05465070158243179,1,-0.0128469979390502,1,0.004862037487328053,1
1773073101613970688,0.1585792601108551,1,-0.07078547030687332,1,0.122781328856945,1,-0.0751904621720314,1,-0.01699686981737614,1,0.005815697368234396,1
1773073101624234752,0.1044599562883377,1,-0.07201284915208817,1,0.05520983040332794,1,-0.08754382282495499,1,-0.0179924014955759,1,0.005591872148215771,1
1773073101634402816,0.0223383903503418,1,0.02426231279969215,1,0.03571524098515511,1,-0.09216897934675217,1,-0.01569187641143799,1,0.006313723046332598,1
1773073101644475136,-0.003940952010452747,1,0.07798611372709274,1,-0.003324102610349655,1,-0.08980847895145416,1,-0.01448689680546522,1,0.00765414210036397,1
1773073101654454016,0.1014471799135208,1,0.03308809921145439,1,-0.07858220487833023,1,-0.08347868174314499,1,-0.01346882991492748,1,0.008380669169127941,1
1773073101664337152,0.206420049071312,1,0.01975609734654427,1,-0.1328674852848053,1,-0.07264517992734909,1,-0.01251280214637518,1,0.008499490097165108,1
1773073101674126080,0.1941283792257309,1,0.02820130996406078,1,-0.1335004419088364,1,-0.0552394762635231,1,-0.007639102637767792,1,0.008083054795861244,1
1773073101683825152,0.0973481684923172,1,0.08618584275245667,1,-0.03470536693930626,1,-0.03638048097491264,1,-0.003863706951960921,1,0.007461161818355322,1
1773073101693434368,0.01909351535141468,1,0.1170227006077766,1,0.02155499160289764,1,-0.01858831755816936,1,-0.002982355654239655,1,0.007967622019350529,1
1773073101702951424,0.09048540890216827,1,0.05276386812329292,1,-0.01689266972243786,1,-0.0047177211381495,1,-0.003355894237756729,1,0.008722325786948204,1
1773073101712377856,0.1818492263555527,1,-0.03490552678704262,1,-0.06824533641338348,1,0.001418796018697321,1,-0.00340917007997632,1,0.008403001353144646,1
1773073101721714432,0.1556020826101303,1,-0.05522660911083221,1,-0.04351548850536346,1,0.002629441907629371,1,-0.001257721101865172,1,0.008041897788643837,1
1773073101732000000,0.06919364631175995,1,-0.01319673284888268,1,0.03749478608369827,1,0.002613571938127279,1,0.000325263652484864,1,0.007077448070049286,1
1773073101742635264,0.04613246768712997,1,0.02582629024982452,1,0.09487657248973846,1,0.003672623075544834,1,0.001410183496773243,1,0.007560825906693935,1
1773073101753171200,0.1283183693885803,1,-0.02149813994765282,1,0.0839596688747406,1,0.005577119532972574,1,0.001378164393827319,1,0.008223404176533222,1
1773073101763607552,0.1912754625082016,1,-0.0661267563700676,1,0.03077039122581482,1,0.008217533119022846,1,0.0008016076171770692,1,0.007237057667225599,1
1773073101773945856,0.1299772560596466,1,-0.01289305742830038,1,-0.003466670401394367,1,0.0176595076918602,1,-7.616908987984061e-06,1,0.006242409814149141,1
1773073101784185600,0.01857919245958328,1,0.07766793668270111,1,-0.03047855570912361,1,0.03696566075086594,1,-0.0001105956762330607,1,0.005806067958474159,1
1773073101794336256,-0.02866816893219948,1,0.09334173798561096,1,-0.03420302271842957,1,0.06032833829522133,1,0.001205502660013735,1,0.006563386414200068,1
1773073101804393984,0.02714308723807335,1,0.0275537371635437,1,-0.04866883158683777,1,0.07808220386505127,1,0.003784674452617764,1,0.007133749779313803,1
1773073101814356224,0.09179029613733292,1,-0.06543163955211639,1,-0.06224001944065094,1,0.08556337654590607,1,0.007849650457501411,1,0.006279962137341499,1
1773073101824222208,0.05648013949394226,1,-0.06012223660945892,1,-0.05026203021407127,1,0.08718151599168777,1,0.01391854882240295,1,0.004301214125007391,1
1773073101833994240,-0.01591622270643711,1,0.003905623219907284,1,-0.04228697717189789,1,0.0975581556558609,1,0.02036694251000881,1,0.002965914318338037,1
1773073101843672320,-0.04129261896014214,1,0.03016246482729912,1,-0.00573025131598115,1,0.1130658313632011,1,0.02641193196177483,1,0.002280243672430515,1
1773073101853258240,0.03321582451462746,1,-0.002122808946296573,1,-0.0256557073444128,1,0.1297990679740906,1,0.02944955416023731,1,0.00125382503028959,1
1773073101862754816,0.1013976857066154,1,-0.04406856372952461,1,-0.02224578708410263,1,0.143778920173645,1,0.03142118826508522,1,0.0002658140438143164,1
1773073101872160000,0.09528486430644989,1,-0.04617112129926682,1,0.004274514503777027,1,0.1526704579591751,1,0.03307319805026054,1,-0.0005895090289413929,1
1773073101881624320,0.001545971259474754,1,-0.01193651836365461,1,0.06653270870447159,1,0.1577929705381393,1,0.03370068222284317,1,-0.001044362084940076,1
1773073101892342272,-0.03604031354188919,1,-0.05009924620389938,1,0.1237567812204361,1,0.1547843813896179,1,0.03441116213798523,1,-0.001023572869598866,1
1773073101902961920,0.04682258144021034,1,-0.1141267493367195,1,0.1342395097017288,1,0.136817067861557,1,0.03282420709729195,1,-0.0009621710632927716,1
1773073101913481472,0.1411738395690918,1,-0.1688735336065292,1,0.1297960728406906,1,0.1054912954568863,1,0.02990084886550903,1,-0.0008990754722617567,1
1773073101923900416,0.1565572619438171,1,-0.2131921947002411,1,0.182121068239212,1,0.06678678840398788,1,0.02303333394229412,1,-0.001384215545840561,1
1773073101934221056,0.09473424404859543,1,-0.1409689635038376,1,0.3387428224086761,1,0.01834310032427311,1,0.01527321990579367,1,-0.001242872327566147,1
1773073101944444160,0.02243161574006081,1,-0.07722055166959763,1,0.3555242121219635,1,-0.02525089494884014,1,0.006553187500685453,1,-0.0009775204816833138,1
1773073101954568960,0.07523777335882187,1,-0.03729978203773499,1,0.2272157073020935,1,-0.05272964760661125,1,7.598311640322208e-06,1,-0.001128438976593316,1
1773073101964596992,0.158795565366745,1,-0.02839713729918003,1,0.03928389027714729,1,-0.06112011149525642,1,-0.003873730078339577,1,-0.001020072028040886,1
1773073101974531840,0.1763002276420593,1,0.0434347465634346,1,-0.08457915484905243,1,-0.05518672242760658,1,-0.004504612646996975,1,-0.0008606413612142205,1
1773073101984395008,0.09225605428218842,1,0.1339093744754791,1,-0.1439878642559052,1,-0.03879651427268982,1,-0.003789081703871489,1,0.001071522245183587,1
1773073101994166784,0.009378395043313503,1,0.1701397448778152,1,-0.1626033931970596,1,-0.01602203957736492,1,-0.002112413290888071,1,0.003031383035704494,1
1773073102003844864,0.04651588201522827,1,0.1251584589481354,1,-0.1216478273272514,1,0.006064417771995068,1,-0.0006879755528643727,1,0.004807653836905956,1
1773073102013431552,0.1359987407922745,1,0.006881262175738811,1,-0.05780315771698952,1,0.01915637403726578,1,0.000946727697737515,1,0.005733706057071686,1
1773073102022926336,0.172106996178627,1,-0.06149721890687943,1,0.05477950349450111,1,0.02063164673745632,1,0.002486378652974963,1,0.005504625383764505,1
1773073102032329472,0.101584181189537,1,-0.01592257991433144,1,0.1861453801393509,1,0.01260489877313375,1,0.001795443356968462,1,0.006242157891392708,1
1773073102041791232,-0.02433829009532928,1,-0.004684316925704479,1,0.2058535367250443,1,0.00195872038602829,1,-0.0008851038292050362,1,0.007025955244898796,1
1773073102052472832,-0.01695198938250542,1,0.03399624675512314,1,0.1357346475124359,1,-0.004595953039824963,1,-0.002452840562909842,1,0.006327456794679165,1
1773073102063053056,0.06886528432369232,1,0.01300409715622663,1,0.007150961086153984,1,-0.003862116485834122,1,-0.003751125419512391,1,0.006006421055644751,1
1773073102073536768,0.1420450508594513,1,-0.01972372643649578,1,-0.03565738722681999,1,-7.876876043155789e-05,1,-0.001400436507537961,1,0.004433834459632635,1
1773073102083919360,0.09657672792673111,1,0.03797862678766251,1,0.05540258064866066,1,0.003590120701119304,1,0.0009509861702099442,1,0.003191639436408877,1
1773073102094203648,-0.007910466752946377,1,0.05375925078988075,1,0.1924252063035965,1,0.004368030931800604,1,0.00143843109253794,1,0.002865870716050267,1
1773073102104390656,-0.01249204948544502,1,0.04842569679021835,1,0.2385532557964325,1,0.0008473605266772211,1,-0.0008410123409703374,1,0.002817556727677584,1
1773073102114478080,0.07621525228023529,1,0.008574796840548515,1,0.1554455310106277,1,-0.002549617551267147,1,-0.002695222618058324,1,0.002247554715722799,1
1773073102124478464,0.1357018649578094,1,-0.03651444986462593,1,0.08091212064027786,1,-0.004582437220960855,1,-0.002331965137273073,1,0.0007271672948263586,1
1773073102134402816,0.04169157892465591,1,-0.01927760615944862,1,0.08474107831716537,1,-0.006402267143130302,1,-0.001988732488825917,1,-0.003848374355584383,1
1773073102144232960,-0.01030945684760809,1,0.07372558116912842,1,0.1592846363782883,1,-0.009586523286998272,1,-0.002796033630147576,1,-0.008403826504945755,1
1773073102153968640,-0.01417119242250919,1,0.08753156661987305,1,0.1188748776912689,1,-0.01095348224043846,1,-0.006402993109077215,1,-0.005578179843723774,1
1773073102163613440,0.02076349407434464,1,0.0466352216899395,1,0.02261967957019806,1,-0.003071747720241547,1,-0.008044091984629631,1,-0.002908736700192094,1
1773073102173165312,0.08725927770137787,1,-0.04632852971553802,1,0.04960853233933449,1,0.006856006570160389,1,-0.006143595091998577,1,-0.003441567299887538,1
1773073102182625536,0.1162123009562492,1,-0.07358889281749725,1,0.1563946902751923,1,0.003576437942683697,1,-0.005462705157697201,1,-0.004667415749281645,1
1773073102191998208,0.07411212474107742,1,-0.0386982262134552,1,0.1983108222484589,1,-0.01205130200833082,1,-0.005589956883341074,1,-0.003897857386618853,1
1773073102201868032,0.02919643558561802,1,-0.009254050441086292,1,0.1085412949323654,1,-0.02191936783492565,1,-0.007402529008686543,1,-0.003399538109079003,1
1773073102212519936,0.08090458810329437,1,-0.009340678341686726,1,0.01061763800680637,1,-0.01916014403104782,1,-0.008168573491275311,1,-0.002695643808692694,1
1773073102223070208,0.1737954020500183,1,-0.05146222561597824,1,-0.02909290045499802,1,-0.01381202694028616,1,-0.007825225591659546,1,-0.002291914541274309,1
1773073102233520128,0.1943768858909607,1,-0.03016043454408646,1,-0.01749722845852375,1,-0.01574835740029812,1,-0.007194799836724997,1,-0.00294580589979887,1
1773073102243868928,0.1236782670021057,1,0.02885743230581284,1,0.002519618719816208,1,-0.01784915290772915,1,-0.008906281553208828,1,-0.002895141486078501,1
1773073102254129920,0.07098245620727539,1,0.03956012800335884,1,-0.01520621404051781,1,-0.01771401800215244,1,-0.009716466069221497,1,-0.001932943938300014,1
1773073102264297728,0.09683728218078613,1,0.02533859387040138,1,-0.09938731044530869,1,-0.01159722451120615,1,-0.01026003155857325,1,-0.001574028632603586,1
1773073102274368256,0.200511246919632,1,-0.02391580119729042,1,-0.1588803231716156,1,-0.003627680009230971,1,-0.007884739898145199,1,-0.001724396599456668,1
1773073102284343808,0.2438680976629257,1,-0.03280647471547127,1,-0.1563232392072678,1,-0.003899602219462395,1,-0.003824426094070077,1,-0.002232559956610203,1
1773073102294223360,0.161604568362236,1,0.01952513679862022,1,-0.09250454604625702,1,-0.00813459325581789,1,-0.001767747453413904,1,-0.002505453303456306,1
1773073102304009216,0.07943128049373627,1,0.06584673374891281,1,-0.05086387693881989,1,-0.009650576859712601,1,-0.0009986783843487501,1,-0.001660377020016313,1
1773073102313702656,0.08946546167135239,1,0.05639698356389999,1,-0.05596891790628433,1,-0.005047856830060482,1,-0.0009165126248262823,1,-0.000642577011603862,1
1773073102323305984,0.1477480679750443,1,0.005169045180082321,1,-0.03467205166816711,1,0.002028958639129996,1,-0.0007070257561281323,1,-0.0001504595711594447,1
1773073102332816384,0.1425385773181915,1,-0.02999194711446762,1,0.02934079058468342,1,0.004259518347680569,1,0.0005198149592615664,1,-0.001009659143164754,1
1773073102342235648,0.04264837875962257,1,0.01161461509764194,1,0.09995375573635101,1,0.00196966202929616,1,0.0001720346481306478,1,-0.001608683145605028,1
1773073102351564544,-0.03948520123958588,1,0.04729529470205307,1,0.1151587292551994,1,0.001108567812480032,1,-0.0007474044105038047,1,-0.001162771484814584,1
1773073102361997824,0.009396737441420555,1,0.01864237710833549,1,0.06651026010513306,1,0.002004391746595502,1,-0.0009395654196850955,1,-0.0004621130647137761,1
1773073102372628224,0.1045939102768898,1,-0.03080100193619728,1,0.04142925515770912,1,0.001534796901978552,1,0.0006847606273368001,1,-0.0005088609759695828,1
1773073102383165184,0.09345842152833939,1,-0.03768083825707436,1,0.09542720019817352,1,-0.002619003877043724,1,0.002854591701179743,1,-0.0010761390440166,1
1773073102393601792,-0.02666083909571171,1,0.01676920801401138,1,0.1806838661432266,1,-0.006411167792975903,1,0.00314116757363081,1,-0.001479886821471155,1
1773073102403939328,-0.1210690140724182,1,0.05807419121265411,1,0.2016882449388504,1,-0.003854942042380571,1,0.001632752013392746,1,-0.0006144653307273984,1
1773073102414178560,-0.07557778060436249,1,0.02315613068640232,1,0.145909383893013,1,0.004443957936018705,1,-6.070301606087014e-05,1,0.0001468491100240499,1
1773073102424320256,0.02108219638466835,1,-0.04160493612289429,1,0.08985380828380585,1,0.009469960816204548,1,-0.0003065427590627223,1,0.0004801913746632636,1
1773073102434364928,0.04093989729881287,1,-0.06898275017738342,1,0.09891131520271301,1,0.0077829509973526,1,0.0008766830433160067,1,-0.0002952823124360293,1
1773073102444314880,-0.0285363607108593,1,-0.02994346618652344,1,0.1213628575205803,1,0.003409592667594552,1,0.002092431532219052,1,-0.0007116161868907511,1
1773073102454170624,-0.08054709434509277,1,0.0158033836632967,1,0.1133115291595459,1,0.00140451465267688,1,0.002733941422775388,1,-4.957083001499996e-05,1
1773073102463931904,-0.02984207682311535,1,-0.002226761542260647,1,0.05853597074747086,1,0.003092177677899599,1,0.003945487551391125,1,0.001111676800064743,1
1773073102473600000,0.0802907794713974,1,-0.05285098776221275,1,0.01611875556409359,1,0.00292606046423316,1,0.005263915285468102,1,0.001411814475432038,1
1773073102483176192,0.11412663012743,1,-0.07335663586854935,1,0.02924364432692528,1,0.001289716339670122,1,0.0058607985265553,1,0.0009963365737348795,1
1773073102492661248,0.04507730901241302,1,-0.03648214414715767,1,0.07241550832986832,1,0.0002381741505814716,1,0.005305862985551357,1,0.000322354055242613,1
1773073102502064384,-0.02501936629414558,1,0.02154182083904743,1,0.09759680181741714,1,0.001746687339618802,1,0.004265789873898029,1,0.00057315977755934,1
1773073102511591680,0.01578465104103088,1,0.007820319384336472,1,0.05283795669674873,1,0.004745121579617262,1,0.003080969676375389,1,0.001292431377805769,1
1773073102522305024,0.1503526568412781,1,-0.05235010758042336,1,-0.02257405966520309,1,0.003715654136613011,1,0.00323137198574841,1,0.001333492691628635,1
1773073102532915712,0.2198722958564758,1,-0.07326354086399078,1,-0.04678454995155334,1,-0.00114360440056771,1,0.004475743509829044,1,0.0008191884262487292,1
1773073102543425536,0.1665999293327332,1,-0.03797351568937302,1,-0.01251212507486343,1,-0.006545753218233585,1,0.005170619580894709,1,7.14771231287159e-05,1
1773073102553834752,0.07610340416431427,1,0.03551112115383148,1,0.02379870973527431,1,-0.00749195134267211,1,0.004403181374073029,1,7.469255069736391e-05,1
1773073102564146688,0.07120616734027863,1,0.05021399259567261,1,0.01614674925804138,1,-0.00234976876527071,1,0.003006336512044072,1,0.0009862369624897838,1
1773073102574375936,0.1596971601247787,1,-0.00707188667729497,1,-0.01428438723087311,1,0.002156380331143737,1,0.002550439909100533,1,0.001072939136065543,1
1773073102584513792,0.2046234607696533,1,-0.03023583441972733,1,-0.003560443641617894,1,0.002139509888365865,1,0.001861372147686779,1,0.0003644576063379645,1
1773073102594555136,0.1506254971027374,1,-0.01244433782994747,1,0.03225246444344521,1,-0.0006078027654439211,1,0.00114037177991122,1,-0.0004392443224787712,1
1773073102604500480,0.07071629911661148,1,0.04282492026686668,1,0.04032270982861519,1,-0.001477770856581628,1,0.0001918367925100029,1,-0.0002191435196436942,1
1773073102614351360,0.07837919890880585,1,0.05567806214094162,1,0.02024503983557224,1,0.000796812935732305,1,7.12769033270888e-05,1,0.0002602325985208154,1
1773073102624107008,0.1699948161840439,1,-0.004869668278843164,1,-0.003080972237512469,1,0.001674484228715301,1,0.0003291566681582481,1,0.0001812906702980399,1
1773073102633771264,0.213305652141571,1,-0.03358243778347969,1,-0.0007500163046643138,1,-0.00190600857604295,1,0.0005606745835393667,1,-0.0005710147088393569,1
1773073102643344384,0.1272591352462769,1,0.01601584628224373,1,0.05788708850741386,1,-0.004836208187043667,1,0.0003603322838898748,1,-0.00141703977715224,1
1773073102652826112,-0.004964035004377365,1,0.06287688016891479,1,0.1100596636533737,1,-0.002249591518193483,1,-0.001622380805201828,1,-0.0009123713825829327,1
1773073102662215936,-0.02536912262439728,1,0.06106597557663918,1,0.08689329028129578,1,0.003751736134290695,1,-0.003434740006923676,1,-3.630094579420984e-05,1
1773073102671663360,0.06445544958114624,1,0.00369361275807023,1,0.03199684619903564,1,0.007468064781278372,1,-0.004026503302156925,1,0.0002468218153808266,1
1773073102682348544,0.1182404682040215,1,-0.06216267868876457,1,0.01000295579433441,1,0.004796036519110203,1,-0.003065230092033744,1,-9.607696847524494e-05,1
1773073102692932864,0.06894294917583466,1,-0.03409744054079056,1,0.0387323684990406,1,-0.001943245530128479,1,-0.001708611031062901,1,-0.001066901022568345,1
1773073102703425280,-0.0336463674902916,1,0.02076947130262852,1,0.07787136733531952,1,-0.005355305038392544,1,-0.0009630866115912795,1,-0.00100230285897851,1
1773073102713817856,-0.04929967969655991,1,0.04101869836449623,1,0.07039515674114227,1,-0.005226965993642807,1,-0.0007745785405859351,1,-0.0005024701822549105,1
1773073102724110080,0.03098566830158234,1,0.02637828141450882,1,0.04649461805820465,1,-0.002952558686956763,1,8.241684554377571e-05,1,0.0001662031427258626,1
1773073102734305536,0.08881313353776932,1,-0.03014696203172207,1,0.04706253483891487,1,-0.002150018699467182,1,0.0004645191365852952,1,5.081499693915248e-05,1
1773073102744402432,0.04491769894957542,1,-0.0170598216354847,1,0.06925411522388458,1,-0.002291175303980708,1,0.0001960811496246606,1,-0.0006541299517266452,1
1773073102754402816,-0.04754228144884109,1,0.03801726549863815,1,0.1018245965242386,1,0.001366639509797096,1,-0.001359800691716373,1,-0.0005331689608283341,1
1773073102764308736,-0.05776036530733109,1,0.03704524040222168,1,0.0940283015370369,1,0.005397351458668709,1,-0.001779078505933285,1,0.0001940875372383744,1
1773073102774121472,0.02609508670866489,1,-0.0008130618371069431,1,0.04283131659030914,1,0.005292601883411407,1,-0.0009900694712996483,1,0.0005575802642852068,1
1773073102783863296,0.1039339900016785,1,-0.0499558337032795,1,0.01931021548807621,1,0.001092886552214622,1,0.0004770814848598093,1,0.0002414292830508202,1
1773073102793514752,0.08415175229310989,1,-0.03918331861495972,1,0.0293334499001503,1,-0.005048949271440506,1,0.002374612726271152,1,-0.000262264278717339,1
1773073102803074304,0.004700066056102514,1,0.025877695530653,1,0.07993809878826141,1,-0.006475883536040783,1,0.003133576596155763,1,-0.0005256976583041251,1
1773073102812543488,-0.0103289894759655,1,0.04830210283398628,1,0.08706744760274887,1,-0.002723501762375236,1,0.002598515246063471,1,0.0001049525599228218,1
1773073102821922560,0.07630492746829987,1,0.009591300040483475,1,0.05028058588504791,1,0.001642129151150584,1,0.002135849790647626,1,0.0005699786706827581,1
1773073102831940608,0.1566414833068848,1,-0.0346972718834877,1,0.0353069007396698,1,0.003372929990291595,1,0.002231551799923182,1,2.869532909244299e-05,1
1773073102842591488,0.130831852555275,1,-0.03321569785475731,1,0.05515319108963013,1,0.002327542519196868,1,0.002359156496822834,1,-0.0006144972867332399,1
1773073102853141760,0.05202910304069519,1,0.01036474201828241,1,0.07507569342851639,1,0.001555196125991642,1,0.001975723076611757,1,-0.0004838895692955703,1
1773073102863592192,0.02480263821780682,1,0.03617126122117043,1,0.05209455639123917,1,0.003572468180209398,1,0.00129680463578552,1,5.625296762445942e-05,1
1773073102873943808,0.08511741459369659,1,-0.01351635716855526,1,0.0002222824841737747,1,0.005797269754111767,1,0.001737406244501472,1,0.000770669721532613,1
1773073102884196864,0.1665996462106705,1,-0.05593914911150932,1,-0.01023864839226007,1,0.005165424663573503,1,0.002108639804646373,1,0.0005840642261318862,1
1773073102894350592,0.1576162427663803,1,-0.05994005501270294,1,0.01457036565989256,1,0.001456283614970744,1,0.002045027446001768,1,3.983269562013447e-05,1
1773073102904423424,0.07971900701522827,1,-0.01482100132852793,1,0.05348696187138557,1,-0.0003608827828429639,1,0.001945270807482302,1,-0.0004390529356896877,1
1773073102914425344,0.02641085721552372,1,0.03256653249263763,1,0.06675132364034653,1,0.001946013537235558,1,0.001080955960787833,1,0.0002702351193875074,1
1773073102924333312,0.08035709708929062,1,0.004020167049020529,1,0.03795341029763222,1,0.00515223853290081,1,0.0005649958038702607,1,0.0008685283828526735,1
1773073102934146816,0.1701806634664536,1,-0.04105221480131149,1,0.002175276167690754,1,0.003785474691540003,1,0.0007850415422581136,1,0.0004390863759908825,1
1773073102943867392,0.1611156314611435,1,-0.04331528395414352,1,0.01332025602459908,1,0.0002406029379926622,1,0.0005382599774748087,1,5.368714482756332e-05,1
1773073102953494528,0.06464514136314392,1,-0.008266930468380451,1,0.05469415336847305,1,-0.001625829143449664,1,-0.0003257555072195828,1,-0.0004293818492442369,1
1773073102963029760,-0.009274866431951523,1,0.03767336905002594,1,0.07179416716098785,1,-0.0009600007906556129,1,-0.001484269625507295,1,-0.0002667048829607666,1
1773073102972478464,0.02503149583935738,1,0.02375876158475876,1,0.05354092642664909,1,0.0006983002531342208,1,-0.002018640981987119,1,0.0006338899838738143,1
1773073102981837056,0.1138909980654716,1,-0.03358657285571098,1,0.0220895130187273,1,-0.001331162522546947,1,-0.001700430759228766,1,0.0004938780330121517,1
1773073102992274176,0.1334890127182007,1,-0.03695959225296974,1,0.02749009057879448,1,-0.005485894158482552,1,-0.0009360064286738634,1,-1.732417149469256e-05,1
1773073103002906624,0.06027024984359741,1,0.0125472154468298,1,0.06038723513484001,1,-0.008073335513472557,1,-0.0009088850929401815,1,-0.0004346000496298075,1
1773073103013439232,-0.01053733564913273,1,0.0578952394425869,1,0.06698229163885117,1,-0.005697644781321287,1,-0.0007854355499148369,1,-0.0001789378584362566,1
1773073103023874560,0.01586046628654003,1,0.05854037404060364,1,0.04386431723833084,1,-0.0007458183099515736,1,-0.0004262076108716428,1,0.000325481902109459,1
1773073103034216704,0.09501811861991882,1,0.002208982594311237,1,0.01928181387484074,1,0.002444191835820675,1,6.501543248305097e-05,1,0.0006906158523634076,1
1773073103044470528,0.1177791804075241,1,-0.0299539603292942,1,0.02961421944200993,1,0.001291219843551517,1,0.0005844465340487659,1,0.0001548895525047556,1
1773073103054630656,0.04361608251929283,1,0.01622251980006695,1,0.07968408614397049,1,-0.0001437674509361386,1,0.0009444454335607588,1,-0.0002526937169022858,1
1773073103064694272,-0.04289539158344269,1,0.05815228074789047,1,0.1029786616563797,1,0.0004103046667296439,1,0.0005413974286057055,1,0.0002038879028987139,1
1773073103074665472,-0.0108800083398819,1,0.04526810720562935,1,0.05765389278531075,1,0.002436401322484016,1,0.0001243868755409494,1,0.001111863297410309,1
1773073103084541696,0.09883058816194534,1,-0.01057722605764866,1,-0.002570783719420433,1,0.003731706878170371,1,-3.43213469022885e-05,1,0.001464823726564646,1
1773073103094324736,0.142357349395752,1,-0.05180858820676804,1,-0.01169446390122175,1,0.002127635525539517,1,0.001511628739535809,1,0.0006879685097374022,1
1773073103104021504,0.07871391624212265,1,-0.005677917972207069,1,0.04042377695441246,1,0.0001254686794709414,1,0.001906348392367363,1,-4.142305988352746e-05,1
1773073103113625344,-0.02242939360439777,1,0.04318509250879288,1,0.09334786236286163,1,0.00109368865378201,1,0.001861296244896948,1,4.409915709402412e-05,1
1773073103123138560,-0.02461683377623558,1,0.03658444061875343,1,0.08401364833116531,1,0.003807706059888005,1,0.001292478409595788,1,0.0006554141873493791,1
1773073103132562176,0.06369108706712723,1,-0.00926525704562664,1,0.03434062376618385,1,0.005578935146331787,1,0.0007866662344895303,1,0.001180523540824652,1
1773073103142043648,0.1211948320269585,1,-0.05581164732575417,1,0.01777598634362221,1,0.003961582202464342,1,0.0008781858487054706,1,0.0006695494521409273,1
1773073103152753152,0.0875430554151535,1,-0.04634391516447067,1,0.04393097758293152,1,0.001628025085665286,1,0.0007698334520682693,1,2.657579898368567e-06,1
1773073103163362560,0.02094008587300777,1,0.001909513724967837,1,0.0667087659239769,1,0.001123022986575961,1,0.0009126024669967592,1,-0.0005598863353952765,1
1773073103173876736,0.02021758444607258,1,0.02039591409265995,1,0.05744288116693497,1,0.001928315847180784,1,0.0009462862508371472,1,0.0003545903891790658,1
1773073103184290560,0.089035764336586,1,-0.01389974541962147,1,0.03050141967833042,1,0.00183532084338367,1,0.001154655823484063,1,0.0009563887724652886,1
1773073103194603520,0.1387491971254349,1,-0.05289637297391891,1,0.01651396602392197,1,-0.0001214015355799347,1,0.001156640821136534,1,0.0008865564013831317,1
1773073103204818944,0.1052727773785591,1,-0.04071392118930817,1,0.03796360269188881,1,-0.001048758160322905,1,0.000803578004706651,1,0.0001961853413376957,1
1773073103214936064,0.025150116533041,1,0.002836869563907385,1,0.07538221776485443,1,0.0004877321189269423,1,0.000169524850207381,1,1.40714200824732e-05,1
1773073103224955904,-0.002952033886685967,1,0.02022255025804043,1,0.07010060548782349,1,0.00370755884796381,1,-0.0007787461508996785,1,0.0004775891429744661,1
1773073103234894592,0.0702129527926445,1,-0.01576917245984077,1,0.02322664856910706,1,0.004407363012433052,1,-0.001406670431606472,1,0.0006035597180016339,1
1773073103244747264,0.1579841524362564,1,-0.06947539001703262,1,-0.02141465246677399,1,0.001684785354882479,1,-0.0007830290705896914,1,0.0003979467146564275,1
1773073103254506240,0.1558115482330322,1,-0.05821791663765907,1,0.001875024754554033,1,-0.002897367347031832,1,0.000883509695995599,1,-1.302818418480456e-06,1
1773073103264171776,0.0624082125723362,1,0.006797833368182182,1,0.07943213731050491,1,-0.006254801992326975,1,0.001106654643081129,1,-0.0003373723011463881,1
1773073103273745920,0.0008010967867448926,1,0.04362796619534492,1,0.1015545129776001,1,-0.005665830336511135,1,0.000248681113589555,1,0.0003338574024382979,1
1773073103283227904,0.05363404005765915,1,0.02664999663829803,1,0.05540278181433678,1,-0.002381808590143919,1,-0.001297956914640963,1,0.0009352404158562422,1
1773073103292619520,0.1335044503211975,1,-0.03274184092879295,1,0.005409272387623787,1,0.0008412620518356562,1,-0.002136651892215014,1,0.0007747504860162735,1
1773073103302217984,0.1338825672864914,1,-0.04428128898143768,1,0.02522088959813118,1,0.00138628960121423,1,-0.00204841629602015,1,-4.905559762846678e-05,1
1773073103312892160,0.04919847846031189,1,0.007531941868364811,1,0.07749366015195847,1,-0.0008280608453787863,1,-0.002067436929792166,1,-0.0007309126085601747,1
1773073103323465472,-0.01040877867490053,1,0.0336976982653141,1,0.08016219735145569,1,-0.001918856520205736,1,-0.001502637984231114,1,-0.000136028989800252,1
1773073103333937664,0.05107541382312775,1,0.02232125587761402,1,0.03939281776547432,1,-0.002083934610709548,1,-0.000965804560109973,1,0.000255456252489239,1
1773073103344310272,0.1453715115785599,1,-0.02464153617620468,1,0.01247951947152615,1,-0.004088164307177067,1,0.0002576588885858655,1,0.0006165290833450854,1
1773073103354596864,0.1511730998754501,1,-0.04077117145061493,1,0.0522213950753212,1,-0.00735460314899683,1,0.0009552713599987328,1,-8.832797175273299e-05,1
1773073103364787200,0.04604602977633476,1,0.01180507242679596,1,0.1131056174635887,1,-0.009038624353706837,1,-0.0001322839816566557,1,-0.000855327642057091,1
1773073103374881792,-0.04408469423651695,1,0.05931008234620094,1,0.1310695856809616,1,-0.004739944357424974,1,-0.002511505037546158,1,-0.0005235082935541868,1
1773073103384879616,-0.001400762237608433,1,0.04245705157518387,1,0.09178154170513153,1,0.0007500573992729187,1,-0.003601392731070518,1,0.0003363502910360694,1
1773073103394781696,0.1000762954354286,1,-0.01098375488072634,1,0.03326234966516495,1,0.001422656350769103,1,-0.00315531506203115,1,0.0005341497017070651,1
1773073103404588800,0.1268958747386932,1,-0.04136282950639725,1,0.01094415131956339,1,-0.002448116661980748,1,-0.001485380926169455,1,-0.0003108085657004267,1
1773073103414303488,0.04902676492929459,1,0.01483927015215158,1,0.02015300467610359,1,-0.005619165487587452,1,-0.0003447140916250646,1,-0.0009699369547888637,1
1773073103423926272,-0.02985953725874424,1,0.0687992051243782,1,0.03529906272888184,1,-0.004121320322155952,1,0.0002375510812271386,1,-0.0004780625749845058,1
1773073103433456384,-0.005215219222009182,1,0.05458022281527519,1,0.02048594877123833,1,0.0009603601647540927,1,0.0005151125369593501,1,0.0005625052144750953,1
1773073103442894848,0.08407951891422272,1,-0.008994007483124733,1,-0.0005454291822388768,1,0.00387794547714293,1,0.0008746618987061083,1,0.001006644917652011,1
1773073103452242432,0.108152911067009,1,-0.0427185520529747,1,0.02682404406368732,1,0.004041651729494333,1,0.001261069905012846,1,0.0004613480414263904,1
1773073103462244352,0.04221399128437042,1,-0.01414018590003252,1,0.08039384335279465,1,0.003011549822986126,1,0.00120513653382659,1,-0.0003367194149177521,1
1773073103472893184,-0.02490614727139473,1,0.0293229017406702,1,0.1002923399209976,1,0.003185336710885167,1,0.0003330482286401093,1,-0.0004470054118428379,1
1773073103483439872,0.008933995850384235,1,0.02306580543518066,1,0.05673656240105629,1,0.003185346024110913,1,-3.360180562594905e-05,1,0.0002787119592539966,1
1773073103493887232,0.1057304814457893,1,-0.03083175048232079,1,-0.01130683068186045,1,0.001549338106997311,1,0.0001593716879142448,1,0.0007729967474006116,1
1773073103504243200,0.1481353789567947,1,-0.05746417120099068,1,-0.01705091819167137,1,-0.002193574327975512,1,0.0007256460376083851,1,1.105183764593676e-05,1
1773073103514500096,0.08264563977718353,1,-0.02894941903650761,1,0.030579824000597,1,-0.004120195750147104,1,0.0008003009716048837,1,-0.0004772575339302421,1
1773073103524658944,0.001718023791909218,1,0.02532335370779037,1,0.07976840436458588,1,-0.00268474267795682,1,0.0003789541078731418,1,-0.0008365790126845241,1
1773073103534720000,0.01318061165511608,1,0.04277936741709709,1,0.07852495461702347,1,0.0008597838459536433,1,7.748270581942052e-05,1,-1.541266829008237e-05,1
1773073103544685056,0.1087130978703499,1,-0.0148182911798358,1,0.03006153181195259,1,0.002364940010011196,1,-0.0001019419360090978,1,0.0006081002647988498,1
1773073103554554112,0.163171648979187,1,-0.05154844000935555,1,-0.006720113102346659,1,2.738379407674074e-06,1,0.0002284334477735683,1,0.0001159464300144464,1
1773073103564331008,0.102642685174942,1,-0.02077774703502655,1,0.009682516567409039,1,-0.001900501898489892,1,0.0006160028278827667,1,-0.0002752000000327826,1
1773073103574014720,0.01552608422935009,1,0.02653000690042973,1,0.04765206947922707,1,-0.0005082628922536969,1,0.0008123553707264364,1,-0.0003589962143450975,1
1773073103583604480,0.01882941834628582,1,0.03174453973770142,1,0.05040252953767776,1,0.00252567115239799,1,0.0005970739875920117,1,0.0004252870567142963,1
1773073103593114368,0.1049051657319069,1,-0.02198288217186928,1,0.0271733608096838,1,0.003148226533085108,1,0.0007706432370468974,1,0.0007415770087391138,1
1773073103602550272,0.1548018455505371,1,-0.06204099580645561,1,0.02177298255264759,1,8.608121424913406e-05,1,0.0007025428349152207,1,0.0001554739574203268,1
1773073103611896576,0.09811927378177643,1,-0.02975988015532494,1,0.04775916039943695,1,-0.003267469815909863,1,0.0007627752493135631,1,-0.0004098420031368732,1
1773073103622328832,0.006520865019410849,1,0.02318035066127777,1,0.07379490882158279,1,-0.002113536465913057,1,-0.000142738877912052,1,-0.0004161729302722961,1
1773073103632956160,0.00163304852321744,1,0.02898302674293518,1,0.06076725944876671,1,0.001499728416092694,1,-0.0008907769224606454,1,0.0001880406780401245,1
1773073103643482624,0.09335140883922577,1,-0.02253129705786705,1,0.02800271660089493,1,0.003703197697177529,1,-0.001171147217974067,1,0.0003581545024644583,1
1773073103653908992,0.1484895646572113,1,-0.06637286394834518,1,0.02760960347950459,1,0.001032003434374928,1,-0.0007679535774514079,1,-0.0002776976907625794,1
1773073103664236032,0.09162534773349762,1,-0.03755957633256912,1,0.06427449733018875,1,-0.003992038313299417,1,-0.000322662468533963,1,-0.001017066650092602,1
1773073103674466304,-0.01354703493416309,1,0.02579658292233944,1,0.1001081839203835,1,-0.004787557292729616,1,-0.000993620022200048,1,-0.0009864458115771413,1
1773073103684612864,-0.02786104567348957,1,0.04115148633718491,1,0.07320602238178253,1,-0.001233916729688644,1,-0.001635020249523222,1,-0.0002546780160628259,1
1773073103694662656,0.06917969137430191,1,-0.0027332310564816,1,0.0205067228525877,1,0.00221446854993701,1,-0.00146888755261898,1,0.00036009238101542,1
1773073103704616192,0.1367567330598831,1,-0.0483616478741169,1,0.01084855012595654,1,0.001042049610987306,1,-0.0008003292023204267,1,0.000212424187338911,1
1773073103714475264,0.09258429706096649,1,-0.03403861075639725,1,0.04664541035890579,1,-0.002756788628175855,1,-0.0003037673886865377,1,-0.0006151628913357854,1
1773073103724239616,-0.001839518547058105,1,0.02474759891629219,1,0.09266272187232971,1,-0.003500083927065134,1,-9.389561455463991e-05,1,-0.000559592735953629,1
1773073103733909760,-0.01912366785109043,1,0.04512174800038338,1,0.08150380849838257,1,-0.0006365823792293668,1,-0.0007309109787456691,1,-0.0003127414383925498,1
1773073103743489536,0.06633171439170837,1,0.01552067138254642,1,0.03969734907150269,1,0.001340938033536077,1,6.468974606832489e-05,1,0.0007168947486206889,1
1773073103752978176,0.125761553645134,1,-0.02946689911186695,1,0.01756417751312256,1,-0.0009158120956271887,1,0.0002670445828698575,1,0.000727787206415087,1
1773073103762375424,0.08126277476549149,1,-0.02370910532772541,1,0.02224364690482616,1,-0.003532665316015482,1,0.0004756783309858292,1,9.336676157545298e-05,1
1773073103771832064,-0.0008507347665727139,1,0.03461547195911407,1,0.05542267858982086,1,-0.001381007838062942,1,0.0001536071649752557,1,-0.0001772807881934568,1
1773073103782542080,-0.02190332673490047,1,0.04838716238737106,1,0.06219355016946793,1,0.002196100074797869,1,-9.463629248784855e-05,1,0.0003582983335945755,1
1773073103793149952,0.06029213219881058,1,0.01474054902791977,1,0.04131540656089783,1,0.003190313931554556,1,0.0006445356411859393,1,0.000802644994109869,1
1773073103803656192,0.1352005302906036,1,-0.02625319920480251,1,0.01195578370243311,1,-0.0007426353404298425,1,0.001107449061237276,1,0.0005200899904593825,1
1773073103814063616,0.1068810448050499,1,-0.01985680311918259,1,0.01183977071195841,1,-0.00453615328297019,1,0.001865846803411841,1,-0.0002592920209281147,1
1773073103824369664,0.01506915967911482,1,0.04191641882061958,1,0.0430215522646904,1,-0.003601121716201305,1,0.001557044335640967,1,-1.46555103128776e-05,1
1773073103834576896,-0.02339206822216511,1,0.06645544618368149,1,0.05554583296179771,1,0.001804052735678852,1,0.00103121786378324,1,0.00023787455575075,1
1773073103844687872,0.04926727712154388,1,0.01647602021694183,1,0.03529534488916397,1,0.005660449154675007,1,0.0001956950582098216,1,0.0007611343753524125,1
1773073103854703616,0.1334575414657593,1,-0.03725118935108185,1,0.01371159963309765,1,0.004438235890120268,1,0.000690362008754164,1,0.0001530784356873482,1
1773073103864622848,0.1206939592957497,1,-0.03981975093483925,1,0.03818274289369583,1,0.0001959066721610725,1,0.001238970435224473,1,-0.0005117700202390552,1
1773073103874446080,0.0351751297712326,1,0.0129073616117239,1,0.07944115996360779,1,-0.002207370242103934,1,0.001311504398472607,1,-0.0009599092300049961,1
1773073103884174848,0.005037838593125343,1,0.0486573837697506,1,0.07561436295509338,1,-0.000933981966227293,1,0.0008972999639809132,1,-0.00033412134507671,1
1773073103893810176,0.07795847952365875,1,0.01458019204437733,1,0.03119815140962601,1,0.001949145691469312,1,0.0006458723801188171,1,0.0006474812980741262,1
1773073103903353856,0.1564111113548279,1,-0.04173720255494118,1,0.002224401570856571,1,0.002043674234300852,1,0.000524887174833566,1,0.0002860254608094692,1
1773073103912812288,0.1210294663906097,1,-0.03839907795190811,1,0.03307269513607025,1,0.0007028841064311564,1,0.0001444632071070373,1,-0.0006576714222319424,1
1773073103922180352,0.01245689857751131,1,0.005800642073154449,1,0.08804125338792801,1,0.00112307071685791,1,-0.0004428868414834142,1,-0.0008828017744235694,1
1773073103931758080,-0.03505326807498932,1,0.02911582589149475,1,0.08257278054952621,1,0.004239896312355995,1,-0.001590031781233847,1,7.455048034898937e-05,1
1773073103942438656,0.05006165057420731,1,-0.01411542948335409,1,0.03028100542724133,1,0.006293194368481636,1,-0.001170435221865773,1,0.000812266138382256,1
1773073103953019136,0.1558860391378403,1,-0.07310071587562561,1,-0.002751362742856145,1,0.002676434349268675,1,0.0002786356781143695,1,0.0007980992086231709,1
1773073103963498752,0.1491746157407761,1,-0.06638285517692566,1,0.02296615950763226,1,-0.004143917933106422,1,0.001554096466861665,1,7.537418423453346e-05,1
1773073103973878272,0.05278829857707024,1,-0.001997025217860937,1,0.0680568739771843,1,-0.007186896167695522,1,0.00172145152464509,1,-0.0001909391867229715,1
1773073103984165632,-0.004213703330606222,1,0.0377509631216526,1,0.07673987746238708,1,-0.003454839112237096,1,0.0007265163585543633,1,0.0003946231445297599,1
1773073103994355712,0.04584525153040886,1,0.0195107776671648,1,0.06050558015704155,1,0.002595373662188649,1,3.484853368718177e-05,1,0.000914225063752383,1
1773073104004448256,0.1102723702788353,1,-0.02757120691239834,1,0.04413603246212006,1,0.004513987805694342,1,-0.00036219711182639,1,0.001013329369015992,1
1773073104014446080,0.09434983879327774,1,-0.04561721161007881,1,0.04592524096369743,1,0.002567997667938471,1,-0.0007417720044031739,1,0.0003457837738096714,1
1773073104024348416,0.005356281995773315,1,-0.00167985400184989,1,0.056486826390028,1,0.001164995483122766,1,-0.0006221426883712411,1,0.0002509605546947569,1
1773073104034155776,-0.03023540787398815,1,0.02122769132256508,1,0.05138849839568138,1,0.002323299180716276,1,-0.0008384104585275054,1,0.0006938536535017192,1
1773073104043870464,0.04510712996125221,1,-0.004758749157190323,1,0.02545878477394581,1,0.002655414631590247,1,0.0001613259228179231,1,0.001145204063504934,1
1773073104053494784,0.1519545018672943,1,-0.05520347878336906,1,0.008375741541385651,1,-0.00210984842851758,1,0.001322490978054702,1,0.0004945871769450605,1
1773073104063026688,0.1457905769348145,1,-0.04421853646636009,1,0.02720418944954872,1,-0.007835211232304573,1,0.002438081195577979,1,-0.0005676034488715231,1
1773073104072467200,0.03587951883673668,1,0.02617822214961052,1,0.08320453763008118,1,-0.008687765337526798,1,0.00195349333807826,1,-0.001262474106624722,1
1773073104081819392,-0.04058567434549332,1,0.07322236895561218,1,0.1027403622865677,1,-0.002202604664489627,1,-0.0002529706689529121,1,-0.0003495271084830165,1
1773073104091825408,0.0146008962765336,1,0.0383748933672905,1,0.05759989842772484,1,0.0047918651252985,1,-0.001992646837607026,1,0.0004459712363313884,1
1773073104102477824,0.1045243218541145,1,-0.02868272177875042,1,0.003852352732792497,1,0.006854534149169922,1,-0.002276399405673146,1,0.0004050662682857364,1
1773073104113032192,0.1050382927060127,1,-0.05612538754940033,1,0.002990133361890912,1,0.003528261324390769,1,-0.001290992833673954,1,-0.0004838292952626944,1
1773073104123484672,0.03122741915285587,1,-0.01145836897194386,1,0.03386674821376801,1,-0.000899146543815732,1,-0.0002071202325168997,1,-0.001631157239899039,1
1773073104133838080,-0.005842472892254591,1,0.03115487657487392,1,0.04863129928708076,1,-0.00267630978487432,1,0.0005868945736438036,1,-0.001460800180211663,1
1773073104144093184,0.05656621232628822,1,0.02223137021064758,1,0.02804626151919365,1,-0.002743210177868605,1,0.002123107435181737,1,-0.0006300738314166665,1
1773073104154250496,0.1456130146980286,1,-0.01063929405063391,1,0.0192215871065855,1,-0.004308801610022783,1,0.002672707661986351,1,-0.000441897806013003,1
1773073104164312576,0.1361708790063858,1,-0.01611192524433136,1,0.04066752642393112,1,-0.00549724604934454,1,0.002008615061640739,1,-0.0008048124145716429,1
1773073104174306560,0.0379333421587944,1,0.02840817160904408,1,0.07524360716342926,1,-0.002104303799569607,1,0.0004851751727983356,1,-0.00084659643471241,1
1773073104184211712,-0.02776095271110535,1,0.06329859048128128,1,0.1010665446519852,1,0.005410827696323395,1,-0.001391455996781588,1,-0.0001600863615749404,1
1773073104194022656,0.02168125100433826,1,0.0178715568035841,1,0.07030444592237473,1,0.01029903441667557,1,-0.002349700545892119,1,0.000377154559828341,1
1773073104203740672,0.125304639339447,1,-0.04404805228114128,1,0.02287572994828224,1,0.006508176214993,1,-0.001615988905541599,1,0.0001016068854369223,1
1773073104213365760,0.1325129121541977,1,-0.06012184545397758,1,0.009142749011516571,1,-0.001902971882373095,1,-0.0001071122678695247,1,-0.0004564320843201131,1
1773073104222899200,0.04696342349052429,1,0.001794090028852224,1,0.03461819887161255,1,-0.007833613082766533,1,0.001514021190814674,1,-0.0007849758258089423,1
1773073104232343040,-0.01474653463810682,1,0.05550280958414078,1,0.06116300821304321,1,-0.006796115078032017,1,0.001851147739216685,1,-3.972106424043886e-05,1
1773073104241698304,0.02703043445944786,1,0.03732464835047722,1,0.05408239737153053,1,-0.001604921882972121,1,0.001488045090809464,1,0.0006437533302232623,1
1773073104252135936,0.1183459013700485,1,-0.01772194169461727,1,0.04523763433098793,1,0.001503715640865266,1,0.0008390008006244898,1,0.0006546466611325741,1
1773073104262769664,0.1209045052528381,1,-0.03189044818282127,1,0.07065208256244659,1,0.00125909794587642,1,0.0001294099492952228,1,0.0001640639529796317,1
1773073104273307904,0.03387798368930817,1,0.008849777281284332,1,0.1022744998335838,1,0.0009156542364507914,1,-0.0008772441069595516,1,-0.0004015782615169883,1
1773073104283746304,-0.02624824829399586,1,0.04310459271073341,1,0.09536414593458176,1,0.002644798951223493,1,-0.002007029252126813,1,0.0004669694462791085,1
1773073104294082304,0.01869522780179977,1,0.0192706473171711,1,0.03423080965876579,1,0.004361188504844904,1,-0.001698433654382825,1,0.001164349843747914,1
1773073104304316928,0.1187576502561569,1,-0.04057569056749344,1,-0.0188668891787529,1,0.002708743792027235,1,-0.0007455508457496762,1,0.001345009077340364,1
1773073104314452992,0.1326088160276413,1,-0.06090696901082993,1,-0.01704107783734798,1,-0.001789111061953008,1,0.0002363358362345025,1,0.0005705086514353752,1
1773073104324489984,0.04217236489057541,1,-0.01538246683776379,1,0.03109760023653507,1,-0.003938183188438416,1,0.001206758781336248,1,-0.0001566847204230726,1
1773073104334444800,-0.03477399051189423,1,0.02976947464048862,1,0.07270877808332443,1,-0.0007734060054644942,1,0.0006370413466356695,1,0.0001698904379736632,1
1773073104344313088,0.0136964013800025,1,0.0058513218536973,1,0.05797918513417244,1,0.003788094967603683,1,0.0001091150188585743,1,0.0008673094562254846,1
1773073104354084608,0.1245971843600273,1,-0.05182387679815292,1,0.02170608006417751,1,0.003462569555267692,1,0.0001528401044197381,1,0.001013194443657994,1
1773073104363761152,0.1376985013484955,1,-0.07298128306865692,1,0.02063259109854698,1,-0.001331754378043115,1,0.0001003320867312141,1,7.547271525254473e-05,1
1773073104373343744,0.04330829158425331,1,-0.03022870607674122,1,0.0452478900551796,1,-0.004483602941036224,1,-8.493293717037886e-05,1,-0.0001103699032682925,1
1773073104382833152,-0.02749902196228504,1,0.02099128626286983,1,0.05381132289767265,1,-0.001783788437023759,1,-0.0009166624513454735,1,0.0001280955912079662,1
1773073104392229376,0.01463287323713303,1,0.006558181717991829,1,0.02898174151778221,1,0.001965319272130728,1,-0.0006623444496653974,1,0.0005497211241163313,1
1773073104401686272,0.107897475361824,1,-0.04361463338136673,1,0.01296459697186947,1,0.0008856867789290845,1,0.0001826525840442628,1,0.000679933640640229,1
1773073104412399872,0.1326061487197876,1,-0.06963390111923218,1,0.02477957122027874,1,-0.003622475080192089,1,0.0006686776760034263,1,0.0002670922549441457,1
1773073104423012352,0.06900196522474289,1,-0.02294988185167313,1,0.05747797340154648,1,-0.006221792660653591,1,0.001020234310999513,1,-0.0004431809647940099,1
1773073104433528064,0.009481031447649002,1,0.02801639959216118,1,0.08922850340604782,1,-0.003698979504406452,1,0.0001676931424299255,1,-0.0001530868757981807,1
1773073104443943680,0.03991908580064774,1,0.02720550261437893,1,0.08085282891988754,1,-0.0006011707009747624,1,-3.248703433200717e-05,1,0.0004437302995938808,1
1773073104454261504,0.1280936598777771,1,-0.02266216836869717,1,0.05355289950966835,1,0.0002716825983952731,1,-0.0006554656429216266,1,0.0005057919770479202,1
1773073104464492032,0.1480210721492767,1,-0.04572735354304314,1,0.04085983335971832,1,-0.002581523032858968,1,-0.001402044086717069,1,0.0001478295889683068,1
1773073104474625536,0.06348612904548645,1,0.007269995752722025,1,0.05921348929405212,1,-0.003674258477985859,1,-0.001694411039352417,1,-0.0006868684431537986,1
1773073104484660992,-0.02678671665489674,1,0.06440192461013794,1,0.09078247100114822,1,-0.0009500884916633368,1,-0.002507783006876707,1,-1.121455716202036e-05,1
1773073104494602240,0.007848715409636497,1,0.04591826722025871,1,0.05847513303160667,1,0.001696592778898776,1,-0.002743624150753021,1,0.0008170012151822448,1
1773073104504448000,0.1264135241508484,1,-0.008417108096182346,1,0.008405864238739014,1,0.000575502694118768,1,-0.002326640766113997,1,0.0005972464568912983,1
1773073104514199552,0.1558893024921417,1,-0.03464911133050919,1,-0.00267468299716711,1,-0.003925545141100883,1,-0.0008850480080582201,1,-0.0001576079812366515,1
1773073104523860224,0.07097486406564713,1,0.0189735721796751,1,0.03562650084495544,1,-0.00638527050614357,1,-8.359251660294831e-05,1,-0.0009022013400681317,1
1773073104533429504,-0.02003003098070621,1,0.07817889004945755,1,0.07456503808498383,1,-0.003511275630444288,1,-0.0008547033648937941,1,-0.0005249085370451212,1
1773073104542906368,-0.001388756558299065,1,0.06270476430654526,1,0.0511186309158802,1,0.001629857695661485,1,-0.001062325434759259,1,9.209381823893636e-05,1
1773073104552291840,0.08951243758201599,1,0.006254942622035742,1,0.01816681399941444,1,0.004097192548215389,1,-0.0008210553205572069,1,0.0006095434073358774,1
1773073104561887232,0.1098874732851982,1,-0.04084091633558273,1,0.01154261827468872,1,0.002212404739111662,1,-0.000642849481664598,1,-6.803487485740334e-05,1
1773073104572564224,0.03854165971279144,1,-0.01661207899451256,1,0.04480776190757751,1,3.524230851326138e-05,1,-0.000610200222581625,1,-0.0007304439786821604,1
1773073104583143936,-0.03041495196521282,1,0.02654249034821987,1,0.06888338178396225,1,0.000664544990286231,1,-0.001007602666504681,1,-0.0004693789524026215,1
1773073104593622528,0.007492323406040668,1,0.01603974401950836,1,0.05138289928436279,1,0.001802663551643491,1,-1.901085488498211e-05,1,-7.547929999418557e-05,1
1773073104604002048,0.1094730943441391,1,-0.03206115216016769,1,0.03016232885420322,1,-0.0002730031847022474,1,0.001025602105073631,1,0.0003168009570799768,1
1773073104614289664,0.137055441737175,1,-0.05454516410827637,1,0.03205293044447899,1,-0.00570299755781889,1,0.0014687804505229,1,-0.000317318132147193,1
1773073104624491264,0.05056978017091751,1,-0.005906461272388697,1,0.06060706079006195,1,-0.006942132022231817,1,0.0004196350346319377,1,-0.0006028880015946925,1
1773073104634595072,-0.03650480136275291,1,0.04799844697117805,1,0.08629276603460312,1,-0.001502728322520852,1,-0.00123282428830862,1,0.0001068957790266722,1
1773073104644603136,-0.01916269212961197,1,0.02727922052145004,1,0.06748932600021362,1,0.005916989408433437,1,-0.002097336808219552,1,0.0008223603945225477,1
1773073104654516992,0.08639554679393768,1,-0.04323408752679825,1,0.02846967428922653,1,0.006961592938750982,1,-0.002085181884467602,1,0.0008398281643167138,1
1773073104664336384,0.1291780918836594,1,-0.07837044447660446,1,0.005114889238029718,1,0.001742480788379908,1,-0.001385530224069953,1,5.839086952619255e-06,1
1773073104674061568,0.07013530284166336,1,-0.04317213222384453,1,0.01531128771603107,1,-0.003397871041670442,1,0.0002094651572406292,1,-0.0004646045854315162,1
1773073104683697920,0.009175985120236874,1,0.01294535584747791,1,0.05170457810163498,1,-0.00436090026050806,1,0.001333422958850861,1,2.713395952014253e-05,1
1773073104693242624,0.03110953792929649,1,0.01839818805456161,1,0.05025467276573181,1,-0.002593423007056117,1,0.001869574189186096,1,0.0008294652216136456,1
1773073104702696704,0.1202033460140228,1,-0.0219244509935379,1,0.03183775395154953,1,-0.001427341252565384,1,0.002023038454353809,1,0.0008896954823285341,1
1773073104712060160,0.1410579085350037,1,-0.04426130652427673,1,0.03278984129428864,1,-0.001960480818524957,1,0.0008372428710572422,1,0.0002971015637740493,1
1773073104722066432,0.05973051488399506,1,-0.01669116318225861,1,0.06440430879592896,1,-0.0009193309233523905,1,-0.0003410250646993518,1,-7.533277675975114e-05,1
1773073104732707328,-0.02042601071298122,1,0.0242584403604269,1,0.08332697302103043,1,0.003427911549806595,1,-0.001826615538448095,1,0.000124158090329729,1
1773073104743249920,0.003661641851067543,1,0.01538739260286093,1,0.05261067301034927,1,0.006735390983521938,1,-0.001912740641273558,1,0.0003680642112158239,1
1773073104753695488,0.1129297167062759,1,-0.03312533348798752,1,0.01245175488293171,1,0.004041426349431276,1,-0.000559976848307997,1,0.0003672953462228179,1
1773073104764042496,0.1732598692178726,1,-0.06236198917031288,1,-0.006104615982621908,1,-0.004216447006911039,1,0.0007504766690544784,1,-0.0001984722184715793,1
1773073104774288640,0.1227720901370049,1,-0.0208456926047802,1,0.02489719912409782,1,-0.01028568018227816,1,0.0014585314784199,1,-0.0005792056908831,1
1773073104784438016,0.02728411555290222,1,0.0416637696325779,1,0.07713133096694946,1,-0.009233120828866959,1,0.001129382406361401,1,-0.0007869788096286356,1
1773073104794487808,0.008265674114227295,1,0.05855400115251541,1,0.08568204939365387,1,-0.002319164806976914,1,0.0002092945069307461,1,-0.0001694468373898417,1
1773073104804443904,0.08151156455278397,1,0.0123385563492775,1,0.07185526937246323,1,0.003277437528595328,1,-0.0007916130125522614,1,0.0002147737541235983,1
1773073104814310144,0.1188737899065018,1,-0.04550075531005859,1,0.04932651668787003,1,0.003686997573822737,1,-0.002128780586645007,1,-0.0003830175846815109,1
1773073104824082176,0.06461929529905319,1,-0.03118052892386913,1,0.04270410165190697,1,0.002040436957031488,1,-0.002485151635482907,1,-0.001013387925922871,1
1773073104833761024,-0.03057633340358734,1,0.03209083154797554,1,0.05002086237072945,1,0.002175459172576666,1,-0.002809386467561126,1,-0.0008129333145916462,1
1773073104843347200,-0.03160862997174263,1,0.02469529211521149,1,0.01733343303203583,1,0.001879022107459605,1,-0.00135447399225086,1,7.609691238030791e-05,1
1773073104852894208,0.07325577735900879,1,-0.01731613092124462,1,-0.03115900978446007,1,0.0002163383469451219,1,1.125855487771332e-05,1,0.0001950235164258629,1
1773073104862358016,0.1418332457542419,1,-0.05516473948955536,1,-0.03736218810081482,1,-0.003834208939224482,1,0.001509272144176066,1,-0.0003158039762638509,1
1773073104871734016,0.0891447588801384,1,-0.01338890567421913,1,0.02846289053559303,1,-0.006226071622222662,1,0.00251502194441855,1,-0.0007923720986582339,1
1773073104882175232,-0.02812859788537025,1,0.0527130663394928,1,0.1051789969205856,1,-0.004169743973761797,1,0.001469770213589072,1,-0.0004545442061498761,1
1773073104892809216,-0.05800683796405792,1,0.0567246749997139,1,0.1120472848415375,1,0.001796749187633395,1,-0.0002525576273910701,1,0.0006435878458432853,1
1773073104903343616,0.04128733277320862,1,0.002402842044830322,1,0.06556220352649689,1,0.00587418582290411,1,-0.001791248680092394,1,0.001202088664285839,1
1773073104913779456,0.1171207055449486,1,-0.05825141072273254,1,0.0312744602560997,1,0.004176823887974024,1,-0.001724931644275784,1,0.00097860605455935,1
1773073104924123392,0.07876384258270264,1,-0.0427563339471817,1,0.02878361940383911,1,-0.0006892592646181583,1,-0.0006802790449000895,1,0.0001630656770430505,1
1773073104934377984,-0.003763196058571339,1,0.01532805897295475,1,0.0552980899810791,1,-0.002518697176128626,1,-7.415845902869478e-05,1,-0.000352029746863991,1
1773073104944537088,-0.01323502976447344,1,0.03615212067961693,1,0.04929443076252937,1,-0.001787602319382131,1,0.001014324720017612,1,0.0001184083885164,1
1773073104954603008,0.08574889600276947,1,0.007510780356824398,1,0.02667840011417866,1,-0.001847811392508447,1,0.002217773580923676,1,0.0002506044693291187,1
1773073104964575232,0.1528026312589645,1,-0.03343001008033752,1,0.01955473981797695,1,-0.003274942748248577,1,0.002190222730860114,1,0.0001478993217460811,1
1773073104974452736,0.101959116756916,1,-0.02197206765413284,1,0.0476401224732399,1,-0.003333177883177996,1,0.001834762282669544,1,-0.0004900488420389593,1
1773073104984238336,0.004828576929867268,1,0.03655437007546425,1,0.09161509573459625,1,0.001098859589546919,1,0.000456658483017236,1,-0.0005593401147052646,1
1773073104993935872,-0.02094844356179237,1,0.05007196590304375,1,0.08470732718706131,1,0.006891166791319847,1,-0.001070310478098691,1,4.327267379267141e-05,1
1773073105003542272,0.06627857685089111,1,-0.004365093074738979,1,0.03246742114424706,1,0.00759089644998312,1,-0.0008192789973691106,1,0.0004395210416987538,1
1773073105013057536,0.1410626471042633,1,-0.05374949052929878,1,-0.01005581580102444,1,0.002236299682408571,1,-2.571892946434673e-05,1,-0.0001340919698122889,1
1773073105022482944,0.1153552085161209,1,-0.04420479759573936,1,-0.006288709118962288,1,-0.003618157235905528,1,0.001432418124750257,1,-0.0006346291629597545,1
1773073105031965696,0.03823065012693405,1,0.01829839870333672,1,0.04023320227861404,1,-0.004795529879629612,1,0.002082324121147394,1,-0.001018565846607089,1
1773073105042674432,0.0141141302883625,1,0.0472462922334671,1,0.06832879781723022,1,-0.002052477095276117,1,0.002076572040095925,1,-0.0004416878800839186,1
1773073105053285120,0.07963394373655319,1,0.009642253629863262,1,0.05864960700273514,1,0.0007822122424840927,1,0.001797114964574575,1,0.0003391180362086743,1
1773073105063797248,0.1423569023609161,1,-0.03685883805155754,1,0.03068232908844948,1,0.000786619377322495,1,0.000204620766453445,1,-0.0002623002510517836,1
1773073105074218752,0.1064789146184921,1,-0.03628737479448318,1,0.04389261826872826,1,0.0005356743349693716,1,-0.0005057519301772118,1,-0.0008331587305292487,1
1773073105084542976,0.004481969401240349,1,0.008099431172013283,1,0.07710160315036774,1,0.002156436676159501,1,-0.001501566963270307,1,-0.001021860633045435,1
1773073105094767616,-0.02827800437808037,1,0.0300513468682766,1,0.07293129712343216,1,0.003725788556039333,1,-0.001966193318367004,1,-0.0003082890762016177,1
1773073105104893696,0.04780931398272514,1,-0.01265804190188646,1,0.02754896134138107,1,0.001657127402722836,1,-0.001456051017157733,1,0.0003051445528399199,1
1773073105114921472,0.1301767230033875,1,-0.06656963378190994,1,-0.01023323461413383,1,-0.002940047299489379,1,-0.0004761960881296545,1,0.0002719647600315511,1
1773073105124854528,0.1100001409649849,1,-0.05707421153783798,1,0.01089617237448692,1,-0.007676004897803068,1,0.0004742244491353631,1,-0.0003496280405670404,1
1773073105134696192,0.01171963755041361,1,0.01045607030391693,1,0.06862799823284149,1,-0.007455786224454641,1,0.0006408703629858792,1,-0.0007645190344192088,1
1773073105144445952,-0.03143125399947166,1,0.0525176003575325,1,0.09329739212989807,1,-0.002856706501916051,1,-2.242853224743158e-05,1,0.0001412830606568605,1
1773073105154100992,0.03731933981180191,1,0.024196432903409,1,0.06546900421380997,1,0.002254433464258909,1,-0.0004926742985844612,1,0.000830776640214026,1
1773073105163662592,0.1174205020070076,1,-0.03230798617005348,1,0.03730525076389313,1,0.002809414407238364,1,-0.0008014663471840322,1,0.001055635162629187,1
1773073105173130752,0.09750794619321823,1,-0.04232102632522583,1,0.03739752620458603,1,0.0008923699497245252,1,-0.0006755422800779343,1,0.0005750475684180856,1
1773073105182506496,0.007244554348289967,1,0.008467467501759529,1,0.06053357198834419,1,0.0002480913244653493,1,-0.001077920547686517,1,-8.795960457064211e-05,1
1773073105192087040,-0.04016776382923126,1,0.03802553191781044,1,0.06010573729872704,1,0.0009742696420289576,1,-0.0007344639743678272,1,0.0006709781591780484,1
1773073105202757632,0.02488605305552483,1,0.009490221738815308,1,0.02576996572315693,1,0.001092581311240792,1,-9.529088129056618e-05,1,0.001094839884899557,1
1773073105213329920,0.1165910288691521,1,-0.03530444577336311,1,-0.006512195337563753,1,-0.001908929087221622,1,0.000602897722274065,1,0.0008948802715167403,1
1773073105223804416,0.109997883439064,1,-0.03427682816982269,1,0.01187746692448854,1,-0.004866977222263813,1,0.001058143796399236,1,-5.613711618934758e-05,1
1773073105234185216,0.02208984270691872,1,0.02010614052414894,1,0.05727507174015045,1,-0.004135624505579472,1,0.001048791804350913,1,-0.0005984145682305098,1
1773073105244469248,-0.03025386482477188,1,0.05926131457090378,1,0.0811072364449501,1,0.0005433732876554132,1,0.0004484343808144331,1,-0.0003147524839732796,1
1773073105254656768,0.02597072347998619,1,0.02198415994644165,1,0.05035027861595154,1,0.004334022756665945,1,-0.0001420018379576504,1,0.0003227914858143777,1
1773073105264749824,0.1249270364642143,1,-0.03777145966887474,1,0.008362788707017899,1,0.004154559690505266,1,-0.0003031201486010104,1,0.0001152334516518749,1
1773073105274747136,0.1254533380270004,1,-0.05287951231002808,1,0.008222923614084721,1,0.000866360031068325,1,0.0006103335763327777,1,-0.0005534602096304297,1
1773073105284650496,0.0397932194173336,1,-0.004299971740692854,1,0.05519763007760048,1,-0.0004912549047730863,1,0.001253230147995055,1,-0.001113203004933894,1
1773073105294462720,-0.01852973364293575,1,0.03640320152044296,1,0.07388243824243546,1,0.0004486857797019184,1,0.00110034376848489,1,-0.0005233729025349021,1
1773073105304183040,0.03223828226327896,1,0.02267495729029179,1,0.04730505868792534,1,0.00220730877481401,1,0.0007781534222885966,1,0.0005267307860776782,1
1773073105313837824,0.1221152245998383,1,-0.03603014349937439,1,0.009222019463777542,1,0.001452474156394601,1,0.0008139879209920764,1,0.000792243517935276,1
1773073105323400960,0.1344091594219208,1,-0.05735358223319054,1,0.02102047763764858,1,-0.0002765163080766797,1,0.001123343245126307,1,0.0001556882634758949,1
1773073105332871680,0.055140420794487,1,-0.01610193029046059,1,0.06526999175548553,1,2.642966865096241e-05,1,0.001041072187945247,1,-0.0004211734922137111,1
1773073105342251520,-0.01088890060782433,1,0.02303607575595379,1,0.1000365242362022,1,0.002728056395426393,1,0.000993140391074121,1,-0.0002505219308659434,1
1773073105352263680,0.02965559810400009,1,0.008922461420297623,1,0.07743606716394424,1,0.004166264552623034,1,0.0005739870830439031,1,0.0002564385067671537,1
1773073105362905088,0.1275950968265533,1,-0.045519158244133,1,0.03530823811888695,1,0.001427677110768855,1,0.0002649194502737373,1,0.000664719264023006,1
1773073105373447424,0.1369623988866806,1,-0.06513036042451859,1,0.01593075320124626,1,-0.003926001489162445,1,0.0002378493518335745,1,0.000173726148204878,1
1773073105383896064,0.0465400256216526,1,-0.01152344606816769,1,0.04451807215809822,1,-0.004928542301058769,1,0.0002965090970974416,1,-0.0003543925413396209,1
1773073105394246912,-0.03984769433736801,1,0.03926694765686989,1,0.07177406549453735,1,-0.001781500759534538,1,-0.0004066630499437451,1,-9.106808283831924e-05,1
1773073105404500736,-0.006504762452095747,1,0.03308665379881859,1,0.05349253118038177,1,0.002647571731358767,1,-0.0009871281217783689,1,0.0006214676541276276,1
1773073105414659328,0.09703369438648224,1,-0.03344637900590897,1,0.008297235704958439,1,0.002664779080078006,1,-0.0008746013045310974,1,0.000909077818505466,1
1773073105424721920,0.1315512955188751,1,-0.05836017802357674,1,-0.002854751888662577,1,-0.0002791886799968779,1,-0.0005256480071693659,1,0.0004774165863636881,1
1773073105434701568,0.05444010347127914,1,-0.008927084505558014,1,0.0328897200524807,1,-0.002923788037151098,1,0.0004905296955257654,1,-0.000199901158339344,1
1773073105444594432,-0.02797751687467098,1,0.04784585162997246,1,0.05867153406143188,1,-0.001629173406399786,1,0.0006290757446549833,1,-0.0002811150043271482,1
1773073105454393344,-0.001884975470602512,1,0.04630918800830841,1,0.03603536635637283,1,0.001068220590241253,1,0.0003554978757165372,1,0.0003228971327189356,1
1773073105464099840,0.09754028171300888,1,-0.01497456803917885,1,0.0123303672298789,1,0.001986614894121885,1,0.0001544931001262739,1,0.0005274293362163007,1
1773073105473712896,0.1280411779880524,1,-0.04779713973402977,1,0.0235372856259346,1,-3.684348484966904e-05,1,0.0001250768982572481,1,-0.0003383166622370481,1
1773073105483232512,0.05983579903841019,1,-0.001664259470999241,1,0.07764351367950439,1,-0.001871660933829844,1,0.0002761692157946527,1,-0.001088203978724778,1
1773073105492660224,-0.02633216232061386,1,0.04585368931293488,1,0.1032700687646866,1,-0.0007519010687246919,1,-0.0002859498781617731,1,-0.000603676657192409,1
1773073105501996288,-0.001149995252490044,1,0.04592613503336906,1,0.06671437621116638,1,0.001773161580786109,1,-0.000470697705168277,1,6.978659075684845e-05,1
1773073105512572928,0.1093548238277435,1,-0.01057952921837568,1,0.005899410229176283,1,0.001408166834153235,1,-0.0003723721602000296,1,0.0003237863129470497,1
1773073105523200768,0.1485429704189301,1,-0.04968983680009842,1,-0.0162990540266037,1,-0.00138379808049649,1,0.0005328751867637038,1,-0.0003703388501890004,1
1773073105533731584,0.07451539486646652,1,-0.0118873780593276,1,0.0281568355858326,1,-0.003279650816693902,1,0.001158307073637843,1,-0.0009174667648039758,1
1773073105544164608,-0.02419494464993477,1,0.0449310764670372,1,0.07852692157030106,1,-0.0009392665815539658,1,0.0009949706727638841,1,-0.0007579468074254692,1
1773073105554499584,-0.01448080316185951,1,0.03831662982702255,1,0.07163394242525101,1,0.00305177690461278,1,0.0003487252397462726,1,4.732050001621246e-06,1
1773073105564741120,0.078658826649189,1,-0.01623298227787018,1,0.03723979741334915,1,0.002998631913214922,1,0.0003388329059816897,1,0.000698290066793561,1
1773073105574896128,0.1219643726944923,1,-0.05930274724960327,1,0.01646615378558636,1,-0.0004706511390395463,1,0.0004880647757090628,1,0.0002913227945100516,1
1773073105584955136,0.07557249069213867,1,-0.03799669817090034,1,0.04301871731877327,1,-0.002611111383885145,1,0.0004437125171534717,1,-0.0006034949328750372,1
1773073105594920192,0.005010218359529972,1,0.01597552560269833,1,0.07851988822221756,1,-0.001867854385636747,1,0.0007297972915694118,1,-0.0008043167181313038,1
1773073105604793088,0.01463497243821621,1,0.02950412593781948,1,0.08267880231142044,1,2.387760468991473e-05,1,0.0004237548564560711,1,-0.0001525016414234415,1
1773073105614572544,0.09542723745107651,1,-0.004802270326763391,1,0.05184417963027954,1,-9.323684207629412e-05,1,0.0006099524907767773,1,0.0003685028641484678,1
1773073105624259072,0.1366281807422638,1,-0.03762980923056602,1,0.01798088662326336,1,-0.002056130208075047,1,0.000127546489238739,1,0.0002263423666590825,1
1773073105633859584,0.06962227821350098,1,-0.01534305885434151,1,0.03185528516769409,1,-0.00202962732873857,1,-0.0003377806860953569,1,-0.0004524625255726278,1
1773073105643369728,-0.02983304113149643,1,0.03022113814949989,1,0.06901924312114716,1,0.001188089256174862,1,-0.0009692517924122512,1,-0.000261724810115993,1
1773073105652811264,-0.02884434163570404,1,0.02784634940326214,1,0.06381869316101074,1,0.00457196868956089,1,-0.002056012861430645,1,0.0005879286909475923,1
1773073105662309888,0.07441599667072296,1,-0.03345048427581787,1,0.0204767007380724,1,0.003922449424862862,1,-0.00185784325003624,1,0.001104107243008912,1
1773073105673007872,0.1486386060714722,1,-0.07561998069286346,1,-0.003758206032216549,1,-0.001183830434456468,1,-0.0004056804464198649,1,0.0005902458797208965,1
1773073105683605248,0.103051945567131,1,-0.03918143734335899,1,0.02463175356388092,1,-0.006968560628592968,1,0.001046149060130119,1,-0.0003677729982882738,1
1773073105694110464,0.01131103653460741,1,0.03198521584272385,1,0.06822088360786438,1,-0.007343627512454987,1,0.001173149910755455,1,-0.0003884515608660877,1
1773073105704517376,0.002608596812933683,1,0.05206166952848434,1,0.06554309278726578,1,-0.002770549617707729,1,0.0005388200515881181,1,0.0002180331794079393,1
1773073105714826496,0.08308656513690948,1,0.003684436902403831,1,0.03127560764551163,1,0.0023819450289011,1,1.317312126047909e-05,1,0.0008698199526406825,1
1773073105725039616,0.1318317353725433,1,-0.0479605495929718,1,0.02282959222793579,1,0.003788946662098169,1,-0.0008256581495516002,1,0.000745033728890121,1
1773073105735155200,0.07096348702907562,1,-0.03793481737375259,1,0.0549377053976059,1,0.001992859877645969,1,-0.001203094143420458,1,0.0001373709965264425,1
1773073105745174784,-0.0267798900604248,1,0.01077081449329853,1,0.08588293194770813,1,0.001348008983768523,1,-0.00178119377233088,1,5.289788896334358e-05,1
1773073105755101440,-0.02870941534638405,1,0.01948479190468788,1,0.05634896457195282,1,0.002109115244820714,1,-0.001788162044249475,1,0.0003177247126586735,1
1773073105764945920,0.07442908734083176,1,-0.0232684426009655,1,-0.005430072080343962,1,5.706402589567006e-05,1,-0.0004874248406849802,1,0.0009324664133600891,1
1773073105774719232,0.1486246883869171,1,-0.06049320846796036,1,-0.02663413621485233,1,-0.004449215717613697,1,0.00156479817815125,1,0.0004096800403203815,1
1773073105784401152,0.09843389689922333,1,-0.03167635202407837,1,0.01258671283721924,1,-0.007663821335881948,1,0.002703370759263635,1,-0.0004620709514711052,1
1773073105793991168,-0.003627459518611431,1,0.02783516235649586,1,0.07764934003353119,1,-0.004783868324011564,1,0.001897110254503787,1,-0.000427466700784862,1
1773073105803492352,-0.03503492102026939,1,0.04457338526844978,1,0.09501883387565613,1,0.001662679947912693,1,0.0002014013880398124,1,7.549409929197282e-05,1
1773073105812903168,0.03567556291818619,1,1.737195998430252e-05,1,0.07277429103851318,1,0.005192152224481106,1,-0.0009494156111031771,1,0.0008829347789287567,1
1773073105822512896,0.09672932326793671,1,-0.05310165882110596,1,0.04304661601781845,1,0.003536156145855784,1,-0.001517349504865706,1,0.0005574515671469271,1
1773073105833179392,0.06569887697696686,1,-0.04914950579404831,1,0.03634350001811981,1,-0.0003362371935509145,1,-0.001091787940822542,1,-0.0002619029837660491,1
1773073105843746560,-0.01343171950429678,1,0.005432948004454374,1,0.05238228291273117,1,-0.002103484002873302,1,-0.0006642321823164821,1,-0.0005499300314113498,1
1773073105854213120,-0.02371776103973389,1,0.02868538349866867,1,0.04673631861805916,1,-0.001135680242441595,1,4.061195068061352e-05,1,-3.915395791409537e-05,1
1773073105864582656,0.06976567953824997,1,-7.301894947886467e-05,1,0.01694886758923531,1,-0.001258517033420503,1,0.001056256238371134,1,0.0004137391224503517,1
1773073105874865408,0.1449280679225922,1,-0.03495565429329872,1,0.001451946329325438,1,-0.003449459560215473,1,0.001746513065882027,1,9.445654723094776e-05,1
1773073105885050880,0.1062595844268799,1,-0.01392065174877644,1,0.03801609948277473,1,-0.00404688436537981,1,0.002076504519209266,1,-0.0004698008706327528,1
1773073105895139328,0.007287715561687946,1,0.04427534341812134,1,0.09585119783878326,1,-0.001102744368836284,1,0.0006667674751952291,1,-0.0004153218178544194,1
1773073105905132544,-0.0255714189261198,1,0.06499557197093964,1,0.1023061126470566,1,0.004453226923942566,1,-0.0008302116184495389,1,0.0002669891982804984,1
1773073105915030016,0.04996581748127937,1,0.01517932675778866,1,0.05028571933507919,1,0.006610952317714691,1,-0.002119131619110703,1,0.0008707563974894583,1
1773073105924832512,0.1249372437596321,1,-0.04592081904411316,1,0.01229544449597597,1,0.00389212416484952,1,-0.001780712744221091,1,0.0004708004998974502,1
1773073105934543872,0.1028312146663666,1,-0.03622528910636902,1,0.0114149022847414,1,-0.001620782539248466,1,-0.0001891579013317823,1,-0.0003599602496251464,1
1773073105944163584,0.02795102074742317,1,0.01752266846597195,1,0.05027292668819427,1,-0.003738918341696262,1,0.0007603028207086027,1,-0.000703528814483434,1
1773073105953690624,0.01049083843827248,1,0.04470264539122581,1,0.06129639595746994,1,-0.002511233789846301,1,0.001345060765743256,1,-0.000418096809880808,1
1773073105963126784,0.09241263568401337,1,0.0276168379932642,1,0.03689837455749512,1,-0.001157667255029082,1,0.001871204935014248,1,-0.0001007244936772622,1
1773073105972472320,0.1565113961696625,1,-0.0112568661570549,1,0.0200745202600956,1,-0.001626758137717843,1,0.001553647918626666,1,1.811580659705214e-05,1
1773073105982613248,0.1106250882148743,1,-0.0103247594088316,1,0.03920663148164749,1,-0.001494096126407385,1,0.001028865692205727,1,-0.0005073501379229128,1
1773073105993246208,-0.0005523143336176872,1,0.03497285023331642,1,0.07764346897602081,1,0.001116193365305662,1,-0.000687376712448895,1,-0.0005059271352365613,1
1773073106003777792,-0.04975190758705139,1,0.04524700343608856,1,0.07669845223426819,1,0.005062645301222801,1,-0.002323006745427847,1,0.0001631184568395838,1
1773073106014208256,0.02522029168903828,1,-0.008253426291048527,1,0.02880085818469524,1,0.006564118899405003,1,-0.002334038261324167,1,0.0007011574343778193,1
1773073106024545792,0.1221251785755157,1,-0.06449010968208313,1,-0.0117176016792655,1,0.001891294727101922,1,-0.001049909158609807,1,0.0003525852807797492,1
1773073106034785024,0.1081506758928299,1,-0.06274921447038651,1,0.002367658773437142,1,-0.005266933236271143,1,0.0004741772718261927,1,-0.0002274883008794859,1
1773073106044925696,0.01983825489878654,1,0.006545892916619778,1,0.04752041399478912,1,-0.008548785001039505,1,0.001211707713082433,1,-0.0005817066412419081,1
1773073106054969600,-0.02073981054127216,1,0.05008817091584206,1,0.06674638390541077,1,-0.00537933548912406,1,0.001022799406200647,1,7.08644074620679e-05,1
1773073106064917760,0.03673067316412926,1,0.01621002890169621,1,0.04725952073931694,1,0.0002113066148012877,1,0.0007541985251009464,1,0.0006462077726610005,1
1773073106074769408,0.1159166693687439,1,-0.04111769795417786,1,0.03339555114507675,1,0.003340501105412841,1,-0.0002111848734784871,1,0.0005568221095018089,1
1773073106084529152,0.08325232565402985,1,-0.04749542102217674,1,0.05713577568531036,1,0.003557294607162476,1,-0.001004197634756565,1,-0.0001596751972101629,1
1773073106094196224,-0.02260403148829937,1,0.003286757972091436,1,0.09632772207260132,1,0.003230195492506027,1,-0.002201602095738053,1,-0.0001985661074286327,1
1773073106103770624,-0.06906472146511078,1,0.0128825381398201,1,0.06253238767385483,1,0.003935040906071663,1,-0.002533260034397244,1,0.0001604246062925085,1
1773073106113253120,0.01297281961888075,1,-0.01257253065705299,1,-0.003796837758272886,1,0.003212376963347197,1,-0.001700812834315002,1,0.0007063744706101716,1
1773073106122643712,0.1249518543481827,1,-0.07020139694213867,1,-0.03794538229703903,1,-0.0008214259287342429,1,0.0004575325874611735,1,0.0006651256117038429,1
1773073106131944960,0.1329856365919113,1,-0.07080648094415665,1,-0.008141463622450829,1,-0.00681662792339921,1,0.002486099721863866,1,-0.0001574956404510885,1
1773073106142517248,0.03624008595943451,1,0.009959821589291096,1,0.07514408975839615,1,-0.007907938212156296,1,0.002550102304667234,1,-0.0007066031103022397,1
1773073106153141504,-0.02651149034500122,1,0.05754520371556282,1,0.1144342049956322,1,-0.003021506126970053,1,0.001554148737341166,1,-0.0002785322722047567,1
1773073106163668736,0.03046425059437752,1,0.03539050370454788,1,0.08981947600841522,1,0.003103652503341436,1,0.0002475888468325138,1,0.0007710761856287718,1
1773073106174096640,0.105152003467083,1,-0.02528457529842854,1,0.05360342189669609,1,0.005011441186070442,1,-0.0007681848364882171,1,0.0008222237229347229,1
1773073106184425728,0.09249380230903625,1,-0.05691177770495415,1,0.03931056335568428,1,0.003057669848203659,1,-0.001264556543901563,1,0.0002453572815284133,1
1773073106194658048,0.02164745330810547,1,-0.01261702179908752,1,0.04508525878190994,1,0.002263595117256045,1,-0.00110010989010334,1,-0.0001446441019652411,1
1773073106204804096,-0.01336105726659298,1,0.01896251365542412,1,0.04953524470329285,1,0.002499643014743924,1,-0.0003661644877865911,1,0.0001757231075316668,1
1773073106214855168,0.05161835998296738,1,-0.001467459835112095,1,0.03329992294311523,1,0.001176988705992699,1,0.001348869176581502,1,0.000501903472468257,1
1773073106224811264,0.1360171139240265,1,-0.03575095534324646,1,0.01819006353616714,1,-0.003847669111564755,1,0.002419928088784218,1,5.529457121156156e-05,1
1773073106234674688,0.1196628287434578,1,-0.03347926959395409,1,0.02684715762734413,1,-0.007848926819860935,1,0.002533538034185767,1,-0.0006808394100517035,1
1773073106244444416,0.02723764441907406,1,0.0270209014415741,1,0.07010917365550995,1,-0.005826082080602646,1,0.001038316288031638,1,-0.001119573134928942,1
1773073106254121728,-0.03509264811873436,1,0.06217401474714279,1,0.09869379550218582,1,0.001485151937231421,1,-0.0009667178965173662,1,-0.0004980028606951237,1
1773073106263710208,0.0202108807861805,1,0.01781075447797775,1,0.07557519525289536,1,0.006931176409125328,1,-0.002495614346116781,1,-2.600432708277367e-06,1
1773073106273209344,0.1093217507004738,1,-0.04786194115877151,1,0.01496263965964317,1,0.00519327400252223,1,-0.002366825239732862,1,-0.0001473660813644528,1
1773073106282617856,0.1111286580562592,1,-0.05789335072040558,1,-0.008525846526026726,1,-0.0006150093977339566,1,-0.001118945074267685,1,-0.0007545787375420332,1
1773073106292084992,0.02579358592629433,1,-0.00195026770234108,1,0.01241670735180378,1,-0.004147242289036512,1,0.0004829982644878328,1,-0.001075209700502455,1
1773073106302783488,-0.0220060683786869,1,0.04043794423341751,1,0.03154583275318146,1,-0.004498488269746304,1,0.0009915872942656279,1,-0.0003308484156150371,1
1773073106313381376,0.02789494208991528,1,0.02268841490149498,1,0.02006440050899982,1,-0.002766988007351756,1,0.001232889131642878,1,0.0004706204927060753,1
1773073106323879936,0.1087010651826859,1,-0.02261875756084919,1,0.01531424000859261,1,-0.001776214339770377,1,0.001132516073994339,1,0.0006245040567591786,1
1773073106334277888,0.1058289259672165,1,-0.0358240082859993,1,0.0487985648214817,1,-0.001154308672994375,1,0.0003125842777080834,1,9.411182691110298e-05,1
1773073106344577280,0.01678499206900597,1,0.002542263129726052,1,0.1000561788678169,1,0.0001713583042146638,1,-0.0008207233622670174,1,-0.0003422758891247213,1
1773073106354779904,-0.03483700007200241,1,0.03305146098136902,1,0.1091028526425362,1,0.003306331345811486,1,-0.001875733607448637,1,-6.637829937972128e-05,1
1773073106364883200,0.0332748144865036,1,0.006317771505564451,1,0.04940272495150566,1,0.005552114918828011,1,-0.001839844742789865,1,0.0005452046752907336,1
1773073106374888960,0.1397798508405685,1,-0.05102391541004181,1,-0.005716230720281601,1,0.003137611318379641,1,-5.743133078794926e-05,1,0.0003833860100712627,1
1773073106384810496,0.1440644115209579,1,-0.05219552293419838,1,0.007797048427164555,1,-0.002082888036966324,1,0.001262572826817632,1,-0.000387099600629881,1
1773073106394639616,0.04344853386282921,1,0.002098558004945517,1,0.06272225081920624,1,-0.004449973814189434,1,0.001648383215069771,1,-0.0005376784829422832,1
1773073106404375808,-0.04199422895908356,1,0.04641500115394592,1,0.09512950479984283,1,-0.0007667997851967812,1,0.0003103377821389586,1,-0.0002457164227962494,1
1773073106414021120,-0.001474871300160885,1,0.01832652278244495,1,0.07263478636741638,1,0.004755934700369835,1,-0.0008106890600174665,1,-1.028291626425926e-05,1
1773073106423575552,0.1028568148612976,1,-0.04061960056424141,1,0.04120778292417526,1,0.005338105838745832,1,-0.001436356687918305,1,2.232347469544038e-05,1
1773073106433039104,0.1158661991357803,1,-0.0599784329533577,1,0.03064369224011898,1,0.0004032174765598029,1,-0.001172444899566472,1,-0.0007850038236938417,1
1773073106442415872,0.03713386133313179,1,-0.0071592777967453,1,0.04380539432168007,1,-0.004043377470225096,1,-0.0006306000868789852,1,-0.001539685297757387,1
1773073106452148224,-0.03207951784133911,1,0.03493427112698555,1,0.03798725455999374,1,-0.004307788331061602,1,-0.0002222829789388925,1,-0.001286312472075224,1
1773073106462814720,0.005745270289480686,1,0.02455795556306839,1,0.01267154142260551,1,-0.002257050015032291,1,0.0003865518665406853,1,-0.0007140759844332933,1
1773073106473383168,0.09966859221458435,1,-0.0208936408162117,1,-0.005399724468588829,1,-0.002603467553853989,1,0.001354646519757807,1,-0.0002987810003105551,1
1773073106483855104,0.1107261702418327,1,-0.03564920276403427,1,0.01617427356541157,1,-0.004632365889847279,1,0.001743966480717063,1,-0.000747888523619622,1
1773073106494228480,0.02103018015623093,1,0.01652010716497898,1,0.07628284394741058,1,-0.003298452123999596,1,0.001112653524614871,1,-0.001023350865580142,1
1773073106504506112,-0.05314373224973679,1,0.04953489452600479,1,0.1095509380102158,1,0.001647818135097623,1,-7.244248263305053e-05,1,-4.046931280754507e-06,1
1773073106514699264,0.009405333548784256,1,0.01687121391296387,1,0.08308336138725281,1,0.005641961470246315,1,-0.001187951886095107,1,0.0009101091418415308,1
1773073106524792832,0.1186354383826256,1,-0.04608249664306641,1,0.03634976595640182,1,0.003671931335702538,1,-0.001409218180924654,1,0.000941756647080183,1
1773073106534788096,0.1372367143630981,1,-0.0625324547290802,1,0.009361296892166138,1,-0.0009134643478319049,1,-0.0003581491182558239,1,0.0005185988266021013,1
1773073106544686592,0.05274879187345505,1,-0.01013271510601044,1,0.03526751697063446,1,-0.003158563980832696,1,0.000558764673769474,1,-0.0002915867953561246,1
1773073106554489856,-0.02450240589678288,1,0.03448671847581863,1,0.06399402022361755,1,-0.0007393909036181867,1,0.0002010635944316164,1,-0.0001354728447040543,1
1773073106564197376,0.006539204157888889,1,0.02560082636773586,1,0.04956796765327454,1,0.001878200564533472,1,0.0002261006302433088,1,0.0007032761932350695,1
1773073106573811456,0.08781027048826218,1,-0.02107352577149868,1,0.02647453173995018,1,0.001535406801849604,1,0.0005484885768964887,1,0.0008036977960728109,1
1773073106583332608,0.09986391663551331,1,-0.05232566222548485,1,0.01703620702028275,1,-0.0003990685800090432,1,0.0002160439034923911,1,0.0002812534221448004,1
1773073106592759552,0.04079742729663849,1,-0.01190285198390484,1,0.04620683565735817,1,-0.00165130163077265,1,0.0001644124422455207,1,-3.748490053112619e-05,1
1773073106602094848,-0.01789206452667713,1,0.0331815704703331,1,0.06868778169155121,1,-0.0001799860765459016,1,0.0003256716590840369,1,0.0003736418148037046,1
1773073106612234240,0.02846105583012104,1,0.01396886631846428,1,0.04668763279914856,1,0.00159791053738445,1,0.0004855959850829095,1,0.0009980348404496908,1
1773073106622871040,0.1288391500711441,1,-0.02962691895663738,1,0.007288522087037563,1,0.0004226986493449658,1,0.0003296482027508318,1,0.001022009877488017,1
1773073106633411072,0.1408733725547791,1,-0.04649809002876282,1,0.007136552128940821,1,-0.002790905768051744,1,0.0008991787326522171,1,0.00047538653598167,1
1773073106643850752,0.04663880914449692,1,0.004996496718376875,1,0.05297869443893433,1,-0.003367014927789569,1,0.000869616458658129,1,3.192939402651973e-06,1
1773073106654189312,-0.04021195694804192,1,0.05085773766040802,1,0.08462253212928772,1,-0.000162223819643259,1,-0.0005655476124957204,1,0.0005172807723283768,1
1773073106664429568,-0.006114878691732883,1,0.02492314763367176,1,0.06267620623111725,1,0.004104554653167725,1,-0.001299877883866429,1,0.0009302987018600106,1
1773073106674571776,0.1107807978987694,1,-0.04413416981697083,1,0.01575311087071896,1,0.004412425681948662,1,-0.00122906593605876,1,0.000681237259414047,1
1773073106684616960,0.1418516337871552,1,-0.06181949749588966,1,0.01182995922863483,1,-0.0009180778288282454,1,-1.750457158777863e-05,1,-0.0004103726823814213,1
1773073106694579456,0.05626066029071808,1,-0.002222547307610512,1,0.05694790184497833,1,-0.0057717589661479,1,0.0009399363771080971,1,-0.0008507407619617879,1
1773073106704465152,-0.02869145199656487,1,0.05845310166478157,1,0.08374281972646713,1,-0.004960184916853905,1,9.965307253878564e-05,1,-0.0003316280490253121,1
1773073106714257408,0.00104632880538702,1,0.03865603357553482,1,0.04557513818144798,1,-0.001143053639680147,1,0.0001177421218017116,1,0.0001813724375097081,1
1773073106723955712,0.09840834140777588,1,-0.01253489404916763,1,0.02054438926279545,1,0.00152614014223218,1,-0.0001127422729041427,1,0.0002748862025327981,1
1773073106733562368,0.1113779917359352,1,-0.05410432815551758,1,0.04016318544745445,1,0.00108552782330662,1,-0.0001119578009820543,1,-0.0003203578235115856,1
1773073106743076096,0.02894920110702515,1,-0.01564829051494598,1,0.09121799468994141,1,-0.0004035070596728474,1,-0.0001504784449934959,1,-0.0007574143237434328,1
1773073106752498176,-0.05288425832986832,1,0.02823538519442081,1,0.1061566546559334,1,0.00067119300365448,1,-0.001271595014259219,1,-0.0003682539681904018,1
1773073106761833728,-0.01089078281074762,1,0.009522959589958191,1,0.06525780260562897,1,0.003088993486016989,1,-0.000994053902104497,1,0.0002017560473177582,1
1773073106772409344,0.1072302758693695,1,-0.03657784312963486,1,0.006997694727033377,1,0.001110877841711044,1,-0.0001618642418179661,1,0.0003252473543398082,1
1773073106783031808,0.1346007287502289,1,-0.05783621966838837,1,-0.002342270454391837,1,-0.003737469669431448,1,0.0009286435670219362,1,-0.0003278235089965165,1
1773073106793552896,0.04140887781977654,1,-0.008200841024518013,1,0.03448517620563507,1,-0.006186079233884811,1,0.0009466192568652332,1,-0.0005430392920970917,1
1773073106803973888,-0.05050197616219521,1,0.0519903339445591,1,0.06815136969089508,1,-0.001642969087697566,1,-0.0001426049129804596,1,-0.0002298394829267636,1
1773073106814298624,-0.02496517077088356,1,0.0390939861536026,1,0.05406917259097099,1,0.00506410701200366,1,-0.00108848069794476,1,0.0006669766153208911,1
1773073106824529920,0.08018176257610321,1,-0.02260184288024902,1,0.0119352824985981,1,0.005959088914096355,1,-0.001441586762666702,1,0.0009793209610506892,1
1773073106834662656,0.1144270896911621,1,-0.0566529743373394,1,-0.00257983012124896,1,0.001216708566062152,1,-0.001289151376113296,1,0.0002583037421572953,1
1773073106844698880,0.046150092035532,1,-0.02084597013890743,1,0.007504173554480076,1,-0.002571074292063713,1,-0.0006683498504571617,1,-0.0002972452784888446,1
1773073106854639616,-0.01666222512722015,1,0.03534553572535515,1,0.0250464603304863,1,-0.001979628810659051,1,0.000136338931042701,1,-0.0001449495903216302,1
1773073106864484864,0.02055056765675545,1,0.03480358421802521,1,0.02569479681551456,1,0.0005294981529004872,1,0.00109610368963331,1,0.0005295645678415895,1
1773073106874235392,0.1199021711945534,1,-0.02460698783397675,1,0.01341288257390261,1,-0.0005865319399163127,1,0.002146630780771375,1,0.0007962273666635156,1
1773073106883896320,0.1451702564954758,1,-0.04402326047420502,1,0.02675562351942062,1,-0.002495525870472193,1,0.002123570535331964,1,0.000133102890686132,1
1773073106893464064,0.06214188411831856,1,-0.009418608620762825,1,0.08105498552322388,1,-0.002233867533504963,1,0.001902896095998585,1,-0.0004167676670476794,1
1773073106902939648,-0.01524263434112072,1,0.03694474697113037,1,0.1277748644351959,1,0.002070654649287462,1,0.0002758607733994722,1,-0.000105543811514508,1
1773073106912324352,0.02747146785259247,1,0.01665735989809036,1,0.1090945228934288,1,0.005652219988405704,1,-0.0006143967621028423,1,0.0004803739429917186,1
1773073106921769472,0.1380648463964462,1,-0.04773217812180519,1,0.05730918794870377,1,0.003856035182252526,1,-0.0007353202672675252,1,0.0006519799353554845,1
1773073106932474112,0.1606478840112686,1,-0.0726960301399231,1,0.03644580021500587,1,-0.001632446306757629,1,-0.0001890233543235809,1,-9.474690887145698e-05,1
1773073106943079680,0.06165393069386482,1,-0.01806534826755524,1,0.05491416528820992,1,-0.005137719679623842,1,6.062109969207086e-05,1,-0.0007793002878315747,1
1773073106953585920,-0.03358918055891991,1,0.04140185564756393,1,0.08312339335680008,1,-0.002765915123745799,1,-0.0005753556033596396,1,-0.0002948259352706373,1
1773073106963991040,-0.01098724640905857,1,0.02490331791341305,1,0.05882170796394348,1,0.001225926796905696,1,-0.00114275049418211,1,0.0003688512078952044,1
1773073106974298112,0.08090543746948242,1,-0.02563445083796978,1,0.02329457364976406,1,0.002278895815834403,1,-0.001071591395884752,1,0.0003648507408797741,1
1773073106984514816,0.09771808236837387,1,-0.05702503770589828,1,0.02450611814856529,1,-0.0008348875562660396,1,-0.001259710523299873,1,-0.00023771716223564,1
1773073106994636032,0.02452291920781136,1,-0.02315718866884708,1,0.04064710065722466,1,-0.003702633315697312,1,-0.001680377405136824,1,-0.0009962766198441386,1
1773073107004660736,-0.04118523746728897,1,0.03538810461759567,1,0.04870530217885971,1,-0.002736321650445461,1,-0.001871420303359628,1,-0.0007806413341313601,1
1773073107014590464,-0.007987486198544502,1,0.03149155899882317,1,0.02019636705517769,1,-0.0005375518812797964,1,-0.0008613907266408205,1,-0.0004754318506456912,1
1773073107024425728,0.08266618102788925,1,-0.01222062762826681,1,-0.01025835424661636,1,-0.0006668954738415778,1,-0.000105964056274388,1,-0.0002663292398210615,1
1773073107034166784,0.102509394288063,1,-0.03605569526553154,1,-0.01072142273187637,1,-0.003288395004346967,1,-0.0001112759709940292,1,-0.0007137442007660866,1
1773073107043816448,0.01585892960429192,1,0.004281495232135057,1,0.02456916868686676,1,-0.003510901471599936,1,-0.0004148161970078945,1,-0.001067708013579249,1
1773073107053375744,-0.06783430278301239,1,0.04922701045870781,1,0.06427795439958572,1,0.001119663240388036,1,-0.0009120019385591149,1,-0.000429947511292994,1
1773073107062843904,-0.02772388979792595,1,0.0167207382619381,1,0.04667359963059425,1,0.00579898152500391,1,-0.001290429150685668,1,0.000325762404827401,1
1773073107072220928,0.09833564609289169,1,-0.05501702055335045,1,0.01995972171425819,1,0.004326388239860535,1,-0.001189126283861697,1,0.0001649325131438673,1
1773073107081952512,0.1378884464502335,1,-0.06688354164361954,1,-0.007122072391211987,1,-0.002893793396651745,1,0.0005512078641913831,1,-0.0007984780240803957,1
1773073107092623872,0.06789427250623703,1,-0.01103916764259338,1,0.02990175783634186,1,-0.006210268475115299,1,0.001661118469201028,1,-0.001243721577338874,1
1773073107103201792,-0.0176348015666008,1,0.04345297068357468,1,0.06664926558732986,1,-0.004597041755914688,1,0.00163884274661541,1,-0.0004228010657243431,1
1773073107113681152,0.009361632168292999,1,0.04316727817058563,1,0.0585394874215126,1,0.0006293778424151242,1,0.001439538784325123,1,0.0005835090414620936,1
1773073107124062976,0.09149190038442612,1,-0.01024188473820686,1,0.03087723813951015,1,0.003842509351670742,1,0.0004057837650179863,1,0.001244154642336071,1
1773073107134363392,0.1009311228990555,1,-0.04575139284133911,1,0.03432656824588776,1,0.003599694930016994,1,0.0005855542840436101,1,0.0007934548775665462,1
1773073107144570624,0.02545465156435966,1,-0.01821229606866837,1,0.0679294690489769,1,0.003049577586352825,1,0.0001799486926756799,1,0.0003513541305437684,1
1773073107154683136,-0.03438777104020119,1,0.02103886939585209,1,0.09220753610134125,1,0.003828320186585188,1,0.0003089897218160331,1,0.0005053054774180055,1
1773073107164699904,0.0204731822013855,1,0.002958443248644471,1,0.0622553713619709,1,0.003766836831346154,1,0.001453781966120005,1,0.0008943548309616745,1
1773073107174622464,0.1387176960706711,1,-0.03689077496528625,1,0.03139901906251907,1,-0.000557694467715919,1,0.003023874713107944,1,0.0005462138215079904,1
1773073107184450560,0.1659072190523148,1,-0.04288743063807487,1,0.03914902731776237,1,-0.006484619341790676,1,0.003683758899569511,1,0.0001379222812829539,1
1773073107194188288,0.06644570082426071,1,0.002364854793995619,1,0.0764346718788147,1,-0.00753658777102828,1,0.003424406051635742,1,-0.0003445811453275383,1
1773073107203839232,-0.0319887213408947,1,0.05859079584479332,1,0.1114628240466118,1,-0.001040933770127594,1,0.001057302695699036,1,-0.000170768762473017,1
1773073107213399040,-0.02082145214080811,1,0.04103260114789009,1,0.09871962666511536,1,0.008172634989023209,1,-0.001297266804613173,1,0.000191288476344198,1
1773073107222868992,0.08219606429338455,1,-0.03692696988582611,1,0.06298339366912842,1,0.01007920037955046,1,-0.002293318044394255,1,0.0002777301124297082,1
1773073107232248576,0.1240719854831696,1,-0.06996086239814758,1,0.0437110923230648,1,0.004590975120663643,1,-0.002174671040847898,1,-0.0005300159100443125,1
1773073107242404864,0.05579651147127151,1,-0.03549150750041008,1,0.04244284704327583,1,-0.002826520474627614,1,-0.0007598940283060074,1,-0.0009621956269256771,1
