Time,inertial-6286.188861:estLinearAccelX,inertial-6286.188861:estLinearAccelX:valid,inertial-6286.188861:estLinearAccelY,inertial-6286.188861:estLinearAccelY:valid,inertial-6286.188861:estLinearAccelZ,inertial-6286.188861:estLinearAccelZ:valid,inertial-6286.188861:estAngularRateX,inertial-6286.188861:estAngularRateX:valid,inertial-6286.188861:estAngularRateY,inertial-6286.188861:estAngularRateY:valid,inertial-6286.188861:estAngularRateZ,inertial-6286.188861:estAngularRateZ:valid
1773074739689206016,0.5061672925949097,1,-0.07152940332889557,1,0.02219418436288834,1,-0.005935540422797203,1,-0.002360574435442686,1,-0.00194209604524076,1
1773074739699934208,0.4917609095573425,1,0.0420285128057003,1,0.08553025126457214,1,0.003151304088532925,1,-0.002262068446725607,1,-0.002317748032510281,1
1773074739710562048,0.5616849064826965,1,-0.003566659055650234,1,0.06898612529039383,1,-0.0007281102589331567,1,-0.002083614002913237,1,-0.00126949418336153,1
1773074739721089792,0.546654224395752,1,-0.09596892446279526,1,0.03243984282016754,1,0.002962635131552815,1,-0.0004078792408108711,1,-0.002239078050479293,1
1773074739731520768,0.5240595936775208,1,-0.0039013447239995,1,0.146744504570961,1,0.006383365020155907,1,0.001436473336070776,1,-0.002834051847457886,1
1773074739741853184,0.554262638092041,1,-0.0221177414059639,1,0.1644388288259506,1,-0.002935805125162005,1,0.002132998779416084,1,-0.001959370449185371,1
1773074739752084992,0.5366002321243286,1,-0.08686079829931259,1,0.1225345283746719,1,-0.002695588394999504,1,0.003235223004594445,1,-0.003085718723013997,1
1773074739762221568,0.5220445990562439,1,0.006626015063375235,1,0.1916789710521698,1,0.0009383364813402295,1,0.002022011904045939,1,-0.004040316678583622,1
1773074739772259840,0.5754862427711487,1,-0.00325685553252697,1,0.1066579148173332,1,-0.002525423187762499,1,-0.001149441348388791,1,-0.003227268578484654,1
1773074739782200576,0.5454877614974976,1,-0.05317864567041397,1,0.01683783903717995,1,0.005466578062623739,1,-0.001892100786790252,1,-0.003944262396544218,1
1773074739792046848,0.5496916174888611,1,0.0384620875120163,1,0.06779560446739197,1,0.01133228745311499,1,-0.002505231648683548,1,-0.004515102598816156,1
1773074739801797888,0.6092803478240967,1,-0.02138211764395237,1,0.01080304570496082,1,0.007205985952168703,1,-0.002161941723898053,1,-0.003321414347738028,1
1773074739811454464,0.5756601691246033,1,-0.1032219901680946,1,-0.007440433837473392,1,0.00836631003767252,1,0.0002579113934189081,1,-0.004508782643824816,1
1773074739821037312,0.5571289658546448,1,-0.005440365988761187,1,0.09225089102983475,1,0.006965588312596083,1,0.001137353363446891,1,-0.005120929796248674,1
1773074739830533632,0.6261842846870422,1,-0.05904886871576309,1,0.04903050512075424,1,-0.003880818141624331,1,0.002029979135841131,1,-0.004111759830266237,1
1773074739839938560,0.6041674613952637,1,-0.1156302914023399,1,0.006814930588006973,1,-0.004087109584361315,1,0.003137908643111587,1,-0.005666811484843493,1
1773074739849400832,0.580875039100647,1,0.0185000654309988,1,0.06397738307714462,1,-0.002665605396032333,1,0.003226059721782804,1,-0.005971159785985947,1
1773074739860096512,0.6169754862785339,1,-0.02071660570800304,1,0.04571692273020744,1,-0.006002987269312143,1,0.002962381346151233,1,-0.004779912531375885,1
1773074739870689280,0.6136554479598999,1,-0.08077075332403183,1,0.0266296174377203,1,-0.0008388244896195829,1,0.002118702512234449,1,-0.005675638560205698,1
1773074739881183488,0.6492430567741394,1,0.03691063076257706,1,0.07439958304166794,1,0.002944133244454861,1,0.001674830564297736,1,-0.005874797236174345,1
1773074739891579648,0.7016009092330933,1,-0.02695180848240852,1,0.05932377651333809,1,-0.001317035406827927,1,0.001130873104557395,1,-0.00488776434212923,1
1773074739901876224,0.6664365530014038,1,-0.06025689467787743,1,0.04567079246044159,1,0.003602681681513786,1,0.0003803588333539665,1,-0.005917253438383341,1
1773074739912073984,0.6652511358261108,1,0.03685732930898666,1,0.1014945730566978,1,0.005289559718221426,1,0.0007178056403063238,1,-0.005925292149186134,1
1773074739922176256,0.6679970026016235,1,-0.07149552553892136,1,0.09278350323438644,1,0.001276476657949388,1,0.0002875427308026701,1,-0.005068324971944094,1
1773074739932181760,0.6249598264694214,1,-0.07431630790233612,1,0.0813019648194313,1,0.00391724705696106,1,-0.0006028744392096996,1,-0.006772189866751432,1
1773074739942092032,0.6533640027046204,1,0.03322263807058334,1,0.1144417300820351,1,-0.0006357660749927163,1,8.15891835372895e-05,1,-0.00647505559027195,1
1773074739951928320,0.6864962577819824,1,-0.07224495708942413,1,0.0503678135573864,1,-0.006614233367145061,1,-0.0001583376579219475,1,-0.005990396253764629,1
1773074739961677568,0.6715620160102844,1,-0.04810410737991333,1,0.02925814688205719,1,0.001044881297275424,1,-0.000771888648159802,1,-0.007646247278898954,1
1773074739971333632,0.6971729397773743,1,0.04768822714686394,1,0.09225108474493027,1,0.00242442567832768,1,0.0002691469271667302,1,-0.007375454064458609,1
1773074739980897024,0.7109912037849426,1,-0.06500057131052017,1,0.07703471928834915,1,0.000197297937120311,1,0.0006606754031963646,1,-0.007285380735993385,1
1773074739990369280,0.6793997883796692,1,-0.04437045753002167,1,0.1117496266961098,1,0.005331116262823343,1,0.0009081632597371936,1,-0.009219248779118061,1
1773074739999750144,0.6919669508934021,1,0.01475497428327799,1,0.1512181460857391,1,0.0002490482875145972,1,0.001449561677873135,1,-0.009059255011379719,1
1773074740009629184,0.6688627600669861,1,-0.07434827089309692,1,0.08967883884906769,1,-0.003352765459567308,1,0.001248767366632819,1,-0.008938032202422619,1
1773074740020293888,0.6633580327033997,1,0.01425528898835182,1,0.08733116090297699,1,0.001083315932191908,1,0.001425729831680655,1,-0.0101764677092433,1
1773074740030857984,0.7290270328521729,1,0.0331299901008606,1,0.08218543976545334,1,-0.003852535970509052,1,0.002051722258329391,1,-0.009309051558375359,1
1773074740041320960,0.7135049700737,1,-0.05915609002113342,1,0.03340454027056694,1,0.0006280868547037244,1,0.001226345077157021,1,-0.009697636589407921,1
1773074740051686656,0.6989805102348328,1,0.04164702817797661,1,0.1154024675488472,1,0.00670147780328989,1,0.001612625899724662,1,-0.01001499220728874,1
1773074740061961216,0.7393169403076172,1,-0.01471021864563227,1,0.1350751221179962,1,0.002232272876426578,1,0.0008800213108770549,1,-0.008459866046905518,1
1773074740072137728,0.7115768194198608,1,-0.08702650666236877,1,0.08682576566934586,1,0.005184711422771215,1,-0.0001172086340375245,1,-0.01006270200014114,1
1773074740082218240,0.7180333137512207,1,0.01531344372779131,1,0.1485131829977036,1,0.006913673132658005,1,-0.001071190228685737,1,-0.01087318360805511,1
1773074740092203776,0.7180363535881042,1,-0.04667752236127853,1,0.06795179843902588,1,0.002979943761602044,1,-0.001937707420438528,1,-0.009708057157695293,1
1773074740102092800,0.6778560280799866,1,-0.0600488968193531,1,0.04257627204060555,1,0.01024377625435591,1,-0.001111409510485828,1,-0.0109151117503643,1
1773074740111885824,0.7088282108306885,1,-0.02661999687552452,1,0.08594860136508942,1,0.009028054773807526,1,-0.001624684548005462,1,-0.01065520662814379,1
1773074740121587456,0.6997904181480408,1,-0.09533143043518066,1,-0.002691242378205061,1,0.004089248832315207,1,-0.001113530597649515,1,-0.01052600052207708,1
1773074740131195392,0.69376140832901,1,-0.04693669825792313,1,0.06959539651870728,1,0.005504157394170761,1,0.0009997044689953327,1,-0.01125844195485115,1
1773074740140710656,0.7395116090774536,1,-0.07977434247732162,1,0.08479659259319305,1,-0.003047036472707987,1,0.0004028053663205355,1,-0.01110697630792856,1
1773074740150133760,0.7058127522468567,1,-0.1017556861042976,1,0.02128399536013603,1,-0.002621660009026527,1,0.002133420202881098,1,-0.01233821175992489,1
1773074740159465728,0.7279852032661438,1,-0.02626952528953552,1,0.1528194844722748,1,-0.000423820223659277,1,0.002143112476915121,1,-0.01267697289586067,1
1773074740169755904,0.7215230464935303,1,-0.08167929947376251,1,0.1012981235980988,1,-0.007435338106006384,1,0.0007992226164788008,1,-0.01247832830995321,1
1773074740180396288,0.6809532642364502,1,-0.05006155371665955,1,0.0814308226108551,1,-0.0001604961580596864,1,0.001052550273016095,1,-0.01408515870571136,1
1773074740190936320,0.7428730130195618,1,-0.02403940819203854,1,0.1372262984514236,1,0.0004695280804298818,1,-0.001529402565211058,1,-0.01373373623937368,1
1773074740201380096,0.7365758419036865,1,-0.05119547620415688,1,-0.01710669137537479,1,-0.002197409747168422,1,-0.002587333088740706,1,-0.01437800657004118,1
1773074740211723776,0.7187246680259705,1,0.01783956959843636,1,0.02901626378297806,1,0.005208474118262529,1,-0.0008181945886462927,1,-0.01498437859117985,1
1773074740221968640,0.7318952083587646,1,-0.0340377613902092,1,0.04693179950118065,1,0.001693050493486226,1,-0.001139512402005494,1,-0.01446748059242964,1
1773074740232116224,0.6915280818939209,1,-0.0308742169290781,1,-0.001555555500090122,1,0.001722528948448598,1,0.001486326102167368,1,-0.0150326918810606,1
1773074740242167296,0.7186487317085266,1,-0.03458580374717712,1,0.1508479565382004,1,0.001484206062741578,1,0.002543001668527722,1,-0.01497985329478979,1
1773074740252121856,0.7381570339202881,1,-0.07146670669317245,1,0.08339443802833557,1,-0.006934281904250383,1,0.001042416086420417,1,-0.0157836489379406,1
1773074740262004736,0.7215602397918701,1,0.01821507886052132,1,0.0667552724480629,1,-0.004846478346735239,1,0.003027469618245959,1,-0.01621076464653015,1
1773074740271798784,0.7475510239601135,1,-0.01804529130458832,1,0.1190852746367455,1,-0.001300347852520645,1,0.001211290713399649,1,-0.01565546356141567,1
1773074740281499648,0.7494884729385376,1,-0.0338379293680191,1,0.01222384534776211,1,0.004243934527039528,1,-0.0006083413609303534,1,-0.01641127653419971,1
1773074740291107584,0.7224161624908447,1,0.02636704966425896,1,0.08881650120019913,1,0.01066745165735483,1,0.0009208016563206911,1,-0.01619641296565533,1
1773074740300624384,0.6802917718887329,1,-0.05254241824150085,1,0.1157313361763954,1,0.004529337398707867,1,0.0005627239006571472,1,-0.01571871899068356,1
1773074740310049792,0.6661024689674377,1,-0.05132472142577171,1,0.0694742351770401,1,0.002089787973091006,1,0.0006619638879783452,1,-0.01659670285880566,1
1773074740319385856,0.6961712837219238,1,-0.0188892837613821,1,0.1119441837072372,1,-0.0008230602252297103,1,0.0009816522942855954,1,-0.01630295440554619,1
1773074740330112768,0.710009753704071,1,-0.05319467931985855,1,0.04102857410907745,1,-0.006571897771209478,1,0.0009124979842454195,1,-0.0170166976749897,1
1773074740340737024,0.6933205127716064,1,-0.0003689532168209553,1,0.03748871386051178,1,-0.00198099622502923,1,0.002364937216043472,1,-0.01723482459783554,1
1773074740351258880,0.7119917869567871,1,-0.01033110544085503,1,0.1073837801814079,1,-0.0004593319608829916,1,0.002340804552659392,1,-0.01702770590782166,1
1773074740361686784,0.6942703127861023,1,-0.08357305824756622,1,0.0792156383395195,1,0.001152233453467488,1,0.001405520364642143,1,-0.01753966696560383,1
1773074740372018944,0.6438532471656799,1,-0.05674662441015244,1,0.136490985751152,1,0.006186597980558872,1,0.0007016547024250031,1,-0.01856459490954876,1
1773074740382251264,0.6455656290054321,1,-0.008535763248801231,1,0.1442717462778091,1,0.000518786022439599,1,0.0003258682554587722,1,-0.01764401234686375,1
1773074740392382720,0.6494122743606567,1,-0.09323917329311371,1,0.07894072681665421,1,-0.002349978778511286,1,-0.0002907058515120298,1,-0.01706236787140369,1
1773074740402415360,0.6470834612846375,1,-0.07471207529306412,1,0.04654804617166519,1,0.003323995508253574,1,-0.001700778026133776,1,-0.01820521615445614,1
1773074740412349696,0.6632895469665527,1,0.006371452007442713,1,0.0355127789080143,1,0.003118949476629496,1,-0.0008760120254009962,1,-0.01745743118226528,1
1773074740422187264,0.6303429007530212,1,-0.06459398567676544,1,0.0516669824719429,1,0.0001093858445528895,1,0.0006582803907804191,1,-0.01666900515556335,1
1773074740431929856,0.5907682776451111,1,-0.06844430416822433,1,0.09800394624471664,1,0.00232147634960711,1,0.0007051226566545665,1,-0.01787197776138783,1
1773074740441576960,0.6416518688201904,1,-0.01155768148601055,1,0.1225092113018036,1,0.001252309652045369,1,-0.0005960837006568909,1,-0.01775406301021576,1
1773074740451129088,0.6497021317481995,1,-0.05707760900259018,1,0.06861454993486404,1,-0.003510580165311694,1,-0.002172926440834999,1,-0.01768171414732933,1
1773074740460588800,0.5889183878898621,1,-0.01268426887691021,1,0.02762149088084698,1,0.002842126414179802,1,-0.004647455178201199,1,-0.01910184882581234,1
1773074740469955328,0.6152414679527283,1,0.06835797429084778,1,-0.007353901397436857,1,0.00581896398216486,1,-0.004665317945182323,1,-0.01884260401129723,1
1773074740479383040,0.6432815790176392,1,-0.02834377996623516,1,-0.07274608314037323,1,0.005215088371187449,1,-0.00463044224306941,1,-0.01867585815489292,1
1773074740490078464,0.570601224899292,1,-0.04284078627824783,1,-0.07223746180534363,1,0.009567053988575935,1,-0.00323065766133368,1,-0.02029146254062653,1
1773074740500673280,0.5082315802574158,1,0.04462567716836929,1,0.02768636122345924,1,0.006312060169875622,1,-0.0004329425282776356,1,-0.02033916488289833,1
1773074740511168000,0.5724586248397827,1,-0.01211170852184296,1,0.03380635380744934,1,-0.005667364690452814,1,0.0009913439862430096,1,-0.0202647726982832,1
1773074740521565440,0.6046154499053955,1,-0.07390408217906952,1,-0.01210490986704826,1,-0.008124213665723801,1,0.001920389011502266,1,-0.02169442921876907,1
1773074740531865344,0.5596348643302917,1,0.0188748762011528,1,0.05474978312849998,1,-0.002224920317530632,1,0.002890665782615542,1,-0.02274911664426327,1
1773074740542067712,0.5756908655166626,1,0.04111587628722191,1,0.1023751944303513,1,-0.002182348631322384,1,0.003800367936491966,1,-0.02198763936758041,1
1773074740552175872,0.5949191451072693,1,-0.06088787317276001,1,0.101527601480484,1,-0.000486802717205137,1,0.003707732073962688,1,-0.02244435623288155,1
1773074740562187520,0.5334670543670654,1,-0.07013259828090668,1,0.1722196042537689,1,0.006670117843896151,1,0.00245495536364615,1,-0.02345643378794193,1
1773074740572103680,0.5318151712417603,1,-0.03699395060539246,1,0.2223898321390152,1,0.006771999411284924,1,0.0003340638359077275,1,-0.02338819205760956,1
1773074740581927424,0.5967907309532166,1,-0.0802777111530304,1,0.1364789605140686,1,0.003103408729657531,1,-0.001128067844547331,1,-0.02301403693854809,1
1773074740591655168,0.5848056674003601,1,-0.0953509658575058,1,0.08863510936498642,1,0.004521079361438751,1,-0.002116684336215258,1,-0.02362093888223171,1
1773074740601290752,0.5497116446495056,1,-0.02283067256212234,1,0.06507334858179092,1,0.006980365607887506,1,-0.001161841792054474,1,-0.02325775288045406,1
1773074740610851328,0.5793283581733704,1,-0.05430107563734055,1,0.07237938791513443,1,0.005873271729797125,1,0.0001374511048197746,1,-0.02216114848852158,1
1773074740620322048,0.5934110283851624,1,-0.1133126765489578,1,0.08457260578870773,1,0.004190134350210428,1,0.0005642374162562191,1,-0.02263923548161983,1
1773074740629702912,0.5152726173400879,1,-0.05643868818879128,1,0.1317897886037827,1,0.001466372748836875,1,0.001064051524735987,1,-0.02293022722005844,1
1773074740639582976,0.4822424352169037,1,-0.01341507956385612,1,0.1606045961380005,1,-0.004208161495625973,1,0.001294090179726481,1,-0.02228293195366859,1
1773074740650247168,0.5633323192596436,1,-0.04711942374706268,1,0.1005131006240845,1,-0.00553227961063385,1,0.0004336533602327108,1,-0.02223587036132812,1
1773074740660808960,0.63620525598526,1,-0.06452671438455582,1,0.05008009821176529,1,-0.0003311297623440623,1,-0.002508714329451323,1,-0.02303904853761196,1
1773074740671269120,0.5713261365890503,1,-0.009100189432501793,1,0.006537213455885649,1,0.005494383163750172,1,-0.002298824023455381,1,-0.02327247895300388,1
1773074740681634048,0.5254451632499695,1,-0.002912359777837992,1,0.07104071974754333,1,0.008798643015325069,1,0.0004613379715010524,1,-0.02298344112932682,1
1773074740691904256,0.5921772122383118,1,-0.06273637712001801,1,0.1156448200345039,1,0.006740872748196125,1,0.0002760685165412724,1,-0.02271348610520363,1
1773074740702076416,0.610715389251709,1,-0.1049199178814888,1,0.09320395439863205,1,-0.0007732743979431689,1,-0.001002672011964023,1,-0.02373683638870716,1
1773074740712152064,0.5093728303909302,1,-0.04441080987453461,1,0.04786328598856926,1,-0.004489222075790167,1,8.504117431584746e-05,1,-0.02463213540613651,1
1773074740722131968,0.4876537024974823,1,-0.008536133915185928,1,0.08007693290710449,1,-0.005364908371120691,1,0.001674080151133239,1,-0.02394519187510014,1
1773074740732015360,0.5714788436889648,1,-0.06112614646553993,1,0.0377512015402317,1,-0.003993377555161715,1,-0.001164528424851596,1,-0.02408534102141857,1
1773074740741803008,0.6340791583061218,1,-0.05867091566324234,1,-0.04113154113292694,1,0.0005954185035079718,1,-0.002167977392673492,1,-0.02522599510848522,1
1773074740751499520,0.5985055565834045,1,0.004697933327406645,1,-0.02938531711697578,1,0.003747652750462294,1,0.0007984039839357138,1,-0.02493156678974628,1
1773074740761103104,0.5067824125289917,1,-0.02793245576322079,1,0.08145376294851303,1,0.004552693106234074,1,0.003187596332281828,1,-0.02411313354969025,1
1773074740770613760,0.5543947815895081,1,-0.05426696315407753,1,0.1350022405385971,1,0.004788469523191452,1,0.003084979252889752,1,-0.0245029479265213,1
1773074740780033280,0.6754229664802551,1,-0.09556677937507629,1,0.1091465801000595,1,0.001437671366147697,1,0.002137554343789816,1,-0.02514677867293358,1
1773074740789362688,0.5869020223617554,1,-0.06052010133862495,1,0.09497757256031036,1,-0.003199695609509945,1,0.002193576656281948,1,-0.02637435682117939,1
1773074740799652864,0.441005676984787,1,0.01895072497427464,1,0.1022196710109711,1,-0.0003506957436911762,1,0.001963297836482525,1,-0.02674810774624348,1
1773074740810292224,0.476664662361145,1,-0.03753918036818504,1,0.08915846049785614,1,0.004622729495167732,1,-0.00094866834115237,1,-0.02598117291927338,1
1773074740820830464,0.6056864857673645,1,-0.09883517771959305,1,-0.02978637255728245,1,0.006143928971141577,1,-0.004081114660948515,1,-0.02737929113209248,1
1773074740831267584,0.6166067719459534,1,-0.0401526466012001,1,-0.07742316275835037,1,0.004018239211291075,1,-0.003746070899069309,1,-0.02808063291013241,1
1773074740841611008,0.4894702732563019,1,-0.01436000131070614,1,-0.05460278689861298,1,-0.002370168920606375,1,0.0002012376207858324,1,-0.02722880430519581,1
1773074740851859968,0.3791511058807373,1,-0.06164927780628204,1,0.02781654894351959,1,-0.002839322667568922,1,0.002862922847270966,1,-0.02710706740617752,1
1773074740862012672,0.458996057510376,1,-0.1119975224137306,1,0.08390052616596222,1,-0.002907824236899614,1,0.002904751570895314,1,-0.02768819220364094,1
1773074740872066304,0.5710956454277039,1,-0.1732885539531708,1,0.085185706615448,1,-0.008696537464857101,1,0.001018830691464245,1,-0.02892439067363739,1
1773074740882023936,0.5674678087234497,1,-0.067531518638134,1,0.04654709249734879,1,-0.01434782054275274,1,-0.0011562843574211,1,-0.03017632849514484,1
1773074740891885568,0.4431997239589691,1,0.03472314402461052,1,-0.04185891523957253,1,-0.01708547957241535,1,0.001545927720144391,1,-0.02901475876569748,1
1773074740901652480,0.2900069952011108,1,-0.00808890163898468,1,0.02475117146968842,1,-0.004567996133118868,1,0.004169897176325321,1,-0.02789364196360111,1
1773074740911328512,0.3077737987041473,1,-0.09268230199813843,1,0.1461605131626129,1,0.006875356193631887,1,0.002419368596747518,1,-0.02827735431492329,1
1773074740920910848,0.4374651908874512,1,-0.112713985145092,1,0.1617045700550079,1,0.00207472313195467,1,-0.001715383725240827,1,-0.02923404052853584,1
1773074740930400768,0.4850095808506012,1,-0.02369292452931404,1,0.08767341077327728,1,-0.01074080634862185,1,-0.005158211570233107,1,-0.02908376790583134,1
1773074740939799552,0.4174895584583282,1,0.04942210018634796,1,-0.04933830350637436,1,-0.01654854044318199,1,-0.004077767953276634,1,-0.02778561972081661,1
1773074740949259264,0.3251141309738159,1,0.0649668425321579,1,-0.134548544883728,1,-0.001984498230740428,1,-0.002477325033396482,1,-0.02632712759077549,1
1773074740959985920,0.2870287597179413,1,-0.06186428666114807,1,0.03205661103129387,1,0.01755704917013645,1,0.0007278709672391415,1,-0.02615001797676086,1
1773074740970609152,0.343826949596405,1,-0.1600494384765625,1,0.1865745186805725,1,0.01472800504416227,1,-0.001414391677826643,1,-0.02815932035446167,1
1773074740981134592,0.3787397444248199,1,-0.08336349576711655,1,0.1821940392255783,1,-0.0037884630728513,1,-0.003261432982981205,1,-0.02918026782572269,1
1773074740991558656,0.3045647442340851,1,0.01846920698881149,1,0.1146736890077591,1,-0.02227490022778511,1,-0.002522037364542484,1,-0.02851107344031334,1
1773074741001883136,0.194379061460495,1,0.06024906411767006,1,-0.01028965320438147,1,-0.01890516839921474,1,-0.001067589619196951,1,-0.0282356571406126,1
1773074741012107520,0.2384567856788635,1,0.01981777139008045,1,0.002503311261534691,1,0.005373732652515173,1,-0.0003977316664531827,1,-0.0278618298470974,1
1773074741022234880,0.3500470519065857,1,-0.06763319671154022,1,0.08955094963312149,1,0.01448577921837568,1,-0.001993204466998577,1,-0.02881112694740295,1
1773074741032263168,0.3864081203937531,1,-0.08131210505962372,1,0.124507375061512,1,0.01083152834326029,1,-0.005732896272093058,1,-0.03015896677970886,1
1773074741042196736,0.3281009197235107,1,-0.007893205620348454,1,0.07726903259754181,1,-0.0002985401079058647,1,-0.00407026894390583,1,-0.0299970768392086,1
1773074741052036608,0.1899837404489517,1,0.01874545589089394,1,0.07067287713289261,1,-0.005810684524476528,1,0.000802176829893142,1,-0.02880304679274559,1
1773074741061792256,0.2194961905479431,1,-0.03981154412031174,1,0.1060510873794556,1,-0.001046852674335241,1,0.002427238970994949,1,-0.02815728075802326,1
1773074741071461888,0.4008775949478149,1,-0.0866323783993721,1,0.091478131711483,1,-0.001415363047271967,1,0.0008476084913127124,1,-0.0299506913870573,1
1773074741081039616,0.3791045844554901,1,-0.08063719421625137,1,0.08115211129188538,1,-0.008161630481481552,1,-0.0008908931049518287,1,-0.03132341429591179,1
1773074741090526208,0.1814081966876984,1,0.0422896146774292,1,0.07523077726364136,1,-0.005888780578970909,1,-0.0009199565392918885,1,-0.03120450489223003,1
1773074741099922432,0.136715903878212,1,0.05100861564278603,1,0.1189374253153801,1,-0.001465141074731946,1,-0.0007514015305787325,1,-0.02939721010625362,1
1773074741109377024,0.2948670387268066,1,-0.03016664087772369,1,0.02900213003158569,1,0.003842045785859227,1,-0.00283943465910852,1,-0.02910522744059563,1
1773074741120071168,0.3809189200401306,1,-0.07656452059745789,1,-0.006231212522834539,1,0.005915145389735699,1,-0.003107635071501136,1,-0.03044474497437477,1
1773074741130663424,0.2721251845359802,1,-0.02894486114382744,1,0.03781528025865555,1,0.007937007583677769,1,-0.002253385027870536,1,-0.03077538684010506,1
1773074741141153792,0.199683278799057,1,0.0004941836232319474,1,0.08579622209072113,1,0.008481048978865147,1,-0.0001543776743346825,1,-0.02994910441339016,1
1773074741151544064,0.248092919588089,1,-0.06147821992635727,1,0.08696205168962479,1,0.006950344424694777,1,1.696978506515734e-05,1,-0.02958416193723679,1
1773074741161842432,0.2877588272094727,1,-0.1050090342760086,1,0.03475674241781235,1,0.003688856959342957,1,-0.0006106500513851643,1,-0.0301144365221262,1
1773074741172044544,0.2523739039897919,1,-0.04372850060462952,1,-0.01800963468849659,1,0.0005594388931058347,1,0.0008268794044852257,1,-0.03104987926781178,1
1773074741182147840,0.1526892483234406,1,0.005135188810527325,1,0.03624816238880157,1,-0.003058440750464797,1,0.002652060706168413,1,-0.03011200949549675,1
1773074741192154624,0.1898436099290848,1,-0.0283572506159544,1,0.04119884595274925,1,-0.001782324980013072,1,0.0004413399728946388,1,-0.02994127199053764,1
1773074741202066176,0.3311700224876404,1,-0.08762288093566895,1,-0.03541102260351181,1,0.005006278865039349,1,-0.0007418349268846214,1,-0.0303204171359539,1
1773074741211883008,0.242464542388916,1,-0.03630247712135315,1,0.02429958619177341,1,0.004096089862287045,1,0.001042765798047185,1,-0.03118196316063404,1
1773074741221607168,0.1540430635213852,1,0.04476628452539444,1,0.1281338483095169,1,0.001160709885880351,1,0.003565415740013123,1,-0.02965610288083553,1
1773074741231241472,0.2825901806354523,1,-0.070203997194767,1,0.118482880294323,1,-0.001105479197576642,1,0.0001782669278327376,1,-0.02863774448633194,1
1773074741240782848,0.3368467092514038,1,-0.125603973865509,1,-0.01430993713438511,1,-5.244638305157423e-05,1,-0.003128772368654609,1,-0.03041241690516472,1
1773074741250232320,0.151618480682373,1,-0.01263409107923508,1,0.01324506755918264,1,0.007865294814109802,1,-0.003050476545467973,1,-0.03101631253957748,1
1773074741259590656,0.09200669825077057,1,0.04604224860668182,1,0.06445363163948059,1,0.006436944007873535,1,-0.002811305690556765,1,-0.02945045940577984,1
1773074741269453824,0.2401432693004608,1,-0.01758666709065437,1,-0.03669698908925056,1,-0.002773442538455129,1,-0.002270565368235111,1,-0.0283109974116087,1
1773074741280112640,0.2361253947019577,1,-0.1165751516819,1,-0.06674321740865707,1,-0.001266052247956395,1,-0.002195943845435977,1,-0.02853266894817352,1
1773074741290671104,0.153414711356163,1,-0.05195064097642899,1,0.008148658089339733,1,0.007486699149012566,1,-0.002141592092812061,1,-0.02964859083294868,1
1773074741301129216,0.174214094877243,1,0.02288256585597992,1,0.08515407145023346,1,0.007756627164781094,1,-0.0006878541316837072,1,-0.02837246470153332,1
1773074741311497472,0.1757217198610306,1,-0.07549740374088287,1,0.1034812182188034,1,-0.001320170937106013,1,-0.001137617975473404,1,-0.02812769077718258,1
1773074741321766656,0.1270265579223633,1,-0.09100396186113358,1,0.07149786502122879,1,0.0002696907613426447,1,-0.002726165577769279,1,-0.02920360304415226,1
1773074741331937536,0.0359397865831852,1,-0.04876673221588135,1,0.1005527824163437,1,0.002822750480845571,1,-0.004011090844869614,1,-0.02974587865173817,1
1773074741342012160,-0.03677473962306976,1,-0.005710335448384285,1,0.112158864736557,1,-0.003262223210185766,1,-0.007411337923258543,1,-0.02964033000171185,1
1773074741351994368,-0.0355168916285038,1,-0.05254964902997017,1,-0.01523712743073702,1,-0.002905886620283127,1,-0.01203003991395235,1,-0.02962055243551731,1
1773074741361879808,-0.04457497596740723,1,-0.03180382400751114,1,-0.1447416692972183,1,0.00145912473089993,1,-0.01235281489789486,1,-0.03049786947667599,1
1773074741371671808,-0.1014495193958282,1,0.03245443478226662,1,-0.1115279197692871,1,0.002360564656555653,1,-0.009982040151953697,1,-0.02983145415782928,1
1773074741381370880,-0.1253790110349655,1,-0.02692920342087746,1,-0.0523376502096653,1,-0.001741186482831836,1,-0.009049814194440842,1,-0.02873600088059902,1
1773074741390976000,-0.08817116171121597,1,-0.09169257432222366,1,-0.06220379844307899,1,-0.002323814900591969,1,-0.008651925250887871,1,-0.02915438637137413,1
1773074741400488448,-0.1535439044237137,1,-0.07496870309114456,1,-0.003063414711505175,1,-0.002960019279271364,1,-0.00744360638782382,1,-0.0297886673361063,1
1773074741409908736,-0.2643260955810547,1,-0.02737642638385296,1,0.06246023997664452,1,-0.005778195802122355,1,-0.00764263654127717,1,-0.0299084261059761,1
1773074741419240960,-0.236986055970192,1,-0.04116550832986832,1,0.02085663937032223,1,-0.00743666710332036,1,-0.01043381355702877,1,-0.02954279258847237,1
1773074741429680896,-0.2523810863494873,1,-0.07331246882677078,1,-0.1018491238355637,1,-0.0008785755489952862,1,-0.01450277958065271,1,-0.03005546145141125,1
1773074741440317440,-0.3643994331359863,1,0.00902818888425827,1,-0.1551983654499054,1,0.005616207607090473,1,-0.01377832144498825,1,-0.03027142770588398,1
1773074741450854400,-0.3417845070362091,1,0.01690179668366909,1,-0.1401586830615997,1,0.006214866414666176,1,-0.01102522294968367,1,-0.02888880111277103,1
1773074741461289728,-0.305476039648056,1,-0.06965578347444534,1,-0.1465004086494446,1,0.002744221594184637,1,-0.009917823597788811,1,-0.02915923483669758,1
1773074741471624448,-0.3776153028011322,1,-0.02870240062475204,1,-0.1217235550284386,1,0.0001068912097252905,1,-0.005466483999043703,1,-0.02989620715379715,1
1773074741481859072,-0.352624386548996,1,-0.01480565872043371,1,0.02344177104532719,1,-0.003592617576941848,1,-0.001698926324024796,1,-0.02906037867069244,1
1773074741492001792,-0.2802716493606567,1,-0.06360077857971191,1,0.02800480090081692,1,-0.01061766222119331,1,-0.001500217709690332,1,-0.02876294776797295,1
1773074741502050816,-0.312429279088974,1,-0.05912169814109802,1,0.02978459931910038,1,-0.008267034776508808,1,-0.0009251181618310511,1,-0.02937750145792961,1
1773074741512005632,-0.3327444493770599,1,-0.0252178106456995,1,0.07865353673696518,1,-0.0002248934470117092,1,-0.001819126424379647,1,-0.02949670143425465,1
1773074741521866496,-0.2747623026371002,1,-0.0258360356092453,1,0.0385599248111248,1,0.0008910245960578322,1,-0.002725020982325077,1,-0.02912550233304501,1
1773074741531634176,-0.2735390961170197,1,-0.06189214810729027,1,0.01615227572619915,1,0.005334519315510988,1,-0.003006995189934969,1,-0.02921981364488602,1
1773074741541308416,-0.3380642831325531,1,-0.06851039081811905,1,0.04117876291275024,1,0.01018689107149839,1,-0.00366937043145299,1,-0.02960572578012943,1
1773074741550894336,-0.3117848634719849,1,0.0197409950196743,1,0.01566836051642895,1,0.006343716755509377,1,-0.001488354057073593,1,-0.02891930937767029,1
1773074741560399104,-0.3160296082496643,1,-0.04390375316143036,1,0.0383581817150116,1,-0.00342607288621366,1,0.002357264282181859,1,-0.02727686055004597,1
1773074741569814272,-0.3754270374774933,1,-0.1001875102519989,1,0.09364044666290283,1,-0.003492845920845866,1,0.001448721741326153,1,-0.02846145816147327,1
1773074741579288576,-0.333277702331543,1,0.006976870819926262,1,0.09916895627975464,1,-0.002971310866996646,1,0.0009815540397539735,1,-0.02844785526394844,1
1773074741590015232,-0.3118590116500854,1,-0.01317133009433746,1,0.1251181215047836,1,-0.006849163677543402,1,0.0004598394152708352,1,-0.02725595980882645,1
1773074741600641280,-0.3601966798305511,1,-0.02538029849529266,1,0.123446486890316,1,-0.003154367906972766,1,-0.001554999966174364,1,-0.02766839601099491,1
1773074741611165184,-0.3172167539596558,1,0.0166441835463047,1,0.1390460133552551,1,0.005225955508649349,1,-0.004109999164938927,1,-0.0272912010550499,1
1773074741621589248,-0.2960346639156342,1,-0.02842946536839008,1,0.1060692518949509,1,0.006006015930324793,1,-0.005149847362190485,1,-0.02659567259252071,1
1773074741631915264,-0.3496637046337128,1,-0.05059725791215897,1,0.107449010014534,1,0.008096146397292614,1,-0.003746096277609468,1,-0.02703783102333546,1
1773074741642140928,-0.3532098531723022,1,-0.07771395891904831,1,0.156182587146759,1,0.008526583202183247,1,-0.004086220636963844,1,-0.02717014960944653,1
1773074741652269568,-0.3405381143093109,1,-0.05248572677373886,1,0.09909061342477798,1,-6.217509508132935e-05,1,-0.003341393545269966,1,-0.02730436995625496,1
1773074741662300672,-0.357026994228363,1,-0.01758803427219391,1,0.0665198341012001,1,-0.007075138855725527,1,0.0006194818415679038,1,-0.02705251052975655,1
1773074741672235264,-0.3622153699398041,1,-0.02538337558507919,1,0.1008924916386604,1,-0.008871191181242466,1,0.0008931288029998541,1,-0.02722869999706745,1
1773074741682073600,-0.3295120000839233,1,0.03165806829929352,1,0.05059016495943069,1,-0.008282938040792942,1,-6.495111301774159e-05,1,-0.02748597413301468,1
1773074741691820032,-0.353556215763092,1,0.05477186292409897,1,0.0426156111061573,1,-0.005036060232669115,1,8.959008846431971e-05,1,-0.02690811641514301,1
1773074741701472256,-0.3948381543159485,1,0.03528645262122154,1,0.09806808084249496,1,0.00159104575868696,1,-0.001736429054290056,1,-0.02664361335337162,1
1773074741711031296,-0.3727197349071503,1,0.06466997414827347,1,0.04325054958462715,1,0.005863290745764971,1,-0.004564796108752489,1,-0.02608389779925346,1
1773074741720497920,-0.3760207295417786,1,0.004816243890672922,1,0.0133443046361208,1,0.009460693225264549,1,-0.003927846439182758,1,-0.02545811794698238,1
1773074741729874944,-0.3879933655261993,1,-0.01939590089023113,1,0.01735564135015011,1,0.01241873018443584,1,-0.004318438470363617,1,-0.02615958638489246,1
1773074741739329280,-0.3524834215641022,1,-0.01096108183264732,1,-0.02225416339933872,1,0.01130947843194008,1,-0.002238867105916142,1,-0.02599823847413063,1
1773074741750018816,-0.3601466715335846,1,-0.04055477678775787,1,-0.003758786479011178,1,0.005405255127698183,1,0.001231044763699174,1,-0.02586337551474571,1
1773074741760603904,-0.3727163672447205,1,-0.05636752024292946,1,0.0207101795822382,1,0.001364715164527297,1,0.004301000852137804,1,-0.0257507786154747,1
1773074741771085312,-0.3496309816837311,1,-0.02624193951487541,1,0.06480143219232559,1,-0.002398640615865588,1,0.005100738722831011,1,-0.02540451288223267,1
1773074741781468160,-0.3823868036270142,1,-0.04526194930076599,1,0.06594192981719971,1,-0.007625031750649214,1,0.003611186519265175,1,-0.02576638944447041,1
1773074741791756800,-0.3811633586883545,1,-0.04063432663679123,1,0.007271082606166601,1,-0.001147983013652265,1,-0.0001547600841149688,1,-0.02645538188517094,1
1773074741801945600,-0.3502410650253296,1,0.02549605816602707,1,-0.04269338399171829,1,0.004464962054044008,1,-0.002459098817780614,1,-0.02602770738303661,1
1773074741812034304,-0.399065226316452,1,0.009722436778247356,1,-0.07841623574495316,1,0.004251528531312943,1,-0.002303354209288955,1,-0.02517223730683327,1
1773074741822026496,-0.4030649065971375,1,-0.0204978920519352,1,-0.09137836098670959,1,0.009251227602362633,1,-0.002640013815835118,1,-0.02516079694032669,1
1773074741831920128,-0.3697682023048401,1,-0.002220017137005925,1,-0.07113999873399734,1,0.00905537698417902,1,-0.00224677543155849,1,-0.02473780512809753,1
1773074741841716992,-0.3965262472629547,1,-0.01351643167436123,1,-0.08994545787572861,1,0.003553804708644748,1,-0.000115070171887055,1,-0.02475716173648834,1
1773074741851421184,-0.3997657001018524,1,-0.02614316530525684,1,-0.04680908471345901,1,0.003929140977561474,1,0.002090258290991187,1,-0.0244746059179306,1
1773074741861029632,-0.3961649835109711,1,-0.01011780835688114,1,0.01185252889990807,1,0.00163727137260139,1,0.001971490448340774,1,-0.02409924194216728,1
1773074741870544384,-0.4210002422332764,1,-0.05010521784424782,1,-0.002676522359251976,1,0.002459339564666152,1,0.001646771910600364,1,-0.02410896681249142,1
1773074741879966976,-0.4216745793819427,1,-0.0714653804898262,1,0.0474352240562439,1,0.008865163661539555,1,0.001184705644845963,1,-0.02429686114192009,1
1773074741889296896,-0.4212445318698883,1,-0.0542374849319458,1,0.07916031777858734,1,0.00755958678200841,1,-0.0001071255246642977,1,-0.02396813221275806,1
1773074741899296256,-0.4080327749252319,1,-0.06929242610931396,1,0.06664883345365524,1,0.003208702895790339,1,-5.328097540768795e-05,1,-0.02343078516423702,1
1773074741909956352,-0.3847918808460236,1,-0.1114030256867409,1,0.05764029920101166,1,0.0009820587001740932,1,-0.0005997136468067765,1,-0.02375565469264984,1
1773074741920513792,-0.3348451852798462,1,-0.05542059615254402,1,0.01812766678631306,1,-0.001523858634755015,1,-0.001003262470476329,1,-0.02431514672935009,1
1773074741930968320,-0.3476673662662506,1,-0.02280296385288239,1,-0.003140802029520273,1,-0.007405266631394625,1,0.001178544713184237,1,-0.02334458567202091,1
1773074741941323520,-0.3876281082630157,1,-0.04719185456633568,1,0.03052748739719391,1,-0.01106426678597927,1,0.002302679000422359,1,-0.02377494052052498,1
1773074741951578880,-0.356656551361084,1,0.01411557570099831,1,0.02404727041721344,1,-0.01079107634723186,1,0.002377718221396208,1,-0.024311738088727,1
1773074741961733632,-0.3972557783126831,1,0.03755608573555946,1,0.04118700698018074,1,-0.01179913058876991,1,0.002048162277787924,1,-0.02392062731087208,1
1773074741971789056,-0.4338789582252502,1,0.02501855976879597,1,0.07497483491897583,1,-0.007077907677739859,1,0.0003463785396888852,1,-0.02405067533254623,1
1773074741981745664,-0.375020444393158,1,0.05290095508098602,1,0.02261146903038025,1,0.001334425527602434,1,-0.001995806349441409,1,-0.02378663048148155,1
1773074741991605504,-0.3457526564598083,1,0.06207852065563202,1,-0.01804175041615963,1,0.005051536951214075,1,-0.0006696087075397372,1,-0.02274511568248272,1
1773074742001368832,-0.3886330723762512,1,-0.008255131542682648,1,0.03686506301164627,1,0.009731048718094826,1,-0.0003489566151984036,1,-0.02280331403017044,1
1773074742011038464,-0.3887374699115753,1,-0.02058000117540359,1,0.02923384681344032,1,0.01279614586383104,1,-0.0004565820563584566,1,-0.02346876636147499,1
1773074742020612864,-0.3676994442939758,1,-0.003323855577036738,1,0.04280322045087814,1,0.008849618956446648,1,0.002212411258369684,1,-0.02290613763034344,1
1773074742030107136,-0.4169887006282806,1,-0.03929296880960464,1,0.07392477989196777,1,-0.001090565114282072,1,0.004054931458085775,1,-0.02293790131807327,1
1773074742039510272,-0.3947616517543793,1,-0.02268484234809875,1,0.04728208109736443,1,-0.002631940878927708,1,0.003790219547227025,1,-0.02303285524249077,1
1773074742048820992,-0.3414508700370789,1,0.01166652143001556,1,-0.002141088712960482,1,-0.004431602079421282,1,0.003796596778556705,1,-0.02283532172441483,1
1773074742059270912,-0.3634363412857056,1,0.03507252782583237,1,-0.00764240138232708,1,-0.00510312058031559,1,0.005453014280647039,1,-0.02264474146068096,1
1773074742069926656,-0.3800557553768158,1,0.008664771914482117,1,0.03669442236423492,1,0.001363045535981655,1,0.004122752230614424,1,-0.02261239662766457,1
1773074742080483840,-0.3317402899265289,1,0.02771388180553913,1,0.0169464573264122,1,0.003512711962684989,1,0.002549335593357682,1,-0.02249914780259132,1
1773074742090945024,-0.3418515622615814,1,0.01765748858451843,1,0.01151418127119541,1,0.003775698831304908,1,0.003656320506706834,1,-0.02219662070274353,1
1773074742101306624,-0.3592812418937683,1,-0.01365485787391663,1,0.09069996327161789,1,0.00336116342805326,1,0.001724909525364637,1,-0.02252440340816975,1
1773074742111570176,-0.3125414550304413,1,0.03868547454476357,1,-0.002451607957482338,1,0.001449534320272505,1,-0.001079534064047039,1,-0.02274579554796219,1
1773074742121736448,-0.2866122722625732,1,0.02452824451029301,1,-0.08842646330595016,1,0.001864887308329344,1,-0.0006716057541780174,1,-0.02185133658349514,1
1773074742131804416,-0.3189935386180878,1,-0.02398765832185745,1,-0.08258770406246185,1,0.005519970785826445,1,-0.001501831226050854,1,-0.02234444208443165,1
1773074742141777152,-0.3125849366188049,1,-0.006414922885596752,1,-0.1001215353608131,1,0.01009863056242466,1,-0.002154500223696232,1,-0.02277216874063015,1
1773074742151674112,-0.3089884221553802,1,0.001522863865830004,1,-0.08919083327054977,1,0.006108497269451618,1,-0.00025806890334934,1,-0.02173331193625927,1
1773074742161474304,-0.365439772605896,1,-0.01776968315243721,1,-0.0205533504486084,1,0.0006938033038750291,1,0.002039642073214054,1,-0.02140320092439651,1
1773074742171178496,-0.3511119484901428,1,-0.03435488045215607,1,0.01796857826411724,1,-0.001486009801737964,1,0.0028558315243572,1,-0.02174031734466553,1
1773074742180788736,-0.2661216259002686,1,-0.008800249546766281,1,0.01707274839282036,1,-0.001393336337059736,1,0.002773384097963572,1,-0.02217487059533596,1
1773074742190305536,-0.2326754182577133,1,-0.01127361599355936,1,0.04265088215470314,1,0.0004852657439187169,1,0.003776887198910117,1,-0.02164766937494278,1
1773074742199728128,-0.2357775866985321,1,-0.02501605451107025,1,0.07684288173913956,1,0.008994478732347488,1,0.003501938190311193,1,-0.0214410275220871,1
1773074742209209088,-0.1842987537384033,1,-0.0003086542710661888,1,0.1168107837438583,1,0.01625385694205761,1,0.003747323993593454,1,-0.02118821628391743,1
1773074742219928576,-0.1261900514364243,1,-0.00985369086265564,1,0.1459156572818756,1,0.01412555854767561,1,0.005078493617475033,1,-0.02055726572871208,1
1773074742230542592,-0.1450143456459045,1,-0.02840887382626534,1,0.1520984917879105,1,0.01294744294136763,1,0.005024922080338001,1,-0.02045551314949989,1
1773074742241054720,-0.1541504412889481,1,-0.01615912467241287,1,0.159965991973877,1,0.01302974205464125,1,0.003084422321990132,1,-0.02117563597857952,1
1773074742251465984,-0.08811834454536438,1,0.03471659868955612,1,0.07297163456678391,1,0.009813279844820499,1,0.001371840946376324,1,-0.02130715548992157,1
1773074742261775104,-0.04411801695823669,1,0.02375760860741138,1,-0.02147613279521465,1,0.006931900512427092,1,0.001714886398985982,1,-0.02079755440354347,1
1773074742271984128,-0.01657441072165966,1,-0.01366048399358988,1,-0.06002974882721901,1,0.008882321417331696,1,0.00208515883423388,1,-0.02133797109127045,1
1773074742282093568,0.04128739610314369,1,-0.004627108573913574,1,-0.08354876935482025,1,0.01109231635928154,1,0.004635266494005919,1,-0.02189392596483231,1
1773074742292103168,0.1007894277572632,1,-0.01071972586214542,1,-0.01471056789159775,1,0.004815018270164728,1,0.009235759265720844,1,-0.02194294705986977,1
1773074742302016000,0.1478804051876068,1,-0.08985908329486847,1,0.0546429306268692,1,-0.002914411947131157,1,0.01232024841010571,1,-0.02217500284314156,1
1773074742311832832,0.1766688078641891,1,-0.1287227123975754,1,0.08717095106840134,1,-0.002969837980344892,1,0.01369776297360659,1,-0.02337781339883804,1
1773074742321553920,0.1805965453386307,1,-0.07942811399698257,1,0.1674418151378632,1,-0.003403042908757925,1,0.01548154652118683,1,-0.02358304895460606,1
1773074742331197440,0.2387124598026276,1,-0.09956173598766327,1,0.1645631343126297,1,-0.004853425547480583,1,0.01474296301603317,1,-0.02290482819080353,1
1773074742340749824,0.2941223084926605,1,-0.1483196914196014,1,0.09482595324516296,1,0.00150319654494524,1,0.01354445051401854,1,-0.02275383472442627,1
1773074742350210560,0.2489669919013977,1,-0.0949578732252121,1,0.1169149875640869,1,0.009736785665154457,1,0.01392865087836981,1,-0.02208052948117256,1
1773074742359581184,0.2701450884342194,1,-0.0576866939663887,1,0.1744982302188873,1,0.01086894143372774,1,0.01437074970453978,1,-0.02035616338253021,1
1773074742369163008,0.3873873353004456,1,-0.1158819124102592,1,0.1603637933731079,1,0.008228903636336327,1,0.01375987473875284,1,-0.01961185596883297,1
1773074742379853824,0.4214871227741241,1,-0.0961875319480896,1,0.1378287672996521,1,0.005373267456889153,1,0.01297452207654715,1,-0.01970213651657104,1
1773074742390444544,0.3867391347885132,1,0.02443303912878036,1,0.1624865233898163,1,0.003266236511990428,1,0.01440682634711266,1,-0.01898905448615551,1
1773074742400931840,0.4708845913410187,1,0.01468230318278074,1,0.1998593658208847,1,-0.001429194468073547,1,0.012385418638587,1,-0.01774830371141434,1
1773074742411315968,0.5555429458618164,1,-0.05054356530308723,1,0.1047304421663284,1,-0.001646841410547495,1,0.007889498025178909,1,-0.01833219267427921,1
1773074742421603584,0.4795188009738922,1,0.01340621989220381,1,0.08172775059938431,1,0.006487258709967136,1,0.007258888334035873,1,-0.01900838129222393,1
1773074742431794176,0.4376246631145477,1,0.08086021244525909,1,0.1986717581748962,1,0.007569807581603527,1,0.006121288519352674,1,-0.01803957298398018,1
1773074742441884416,0.5038691163063049,1,-0.03823833912611008,1,0.1342697739601135,1,0.003601322649046779,1,0.002203507581725717,1,-0.01760722883045673,1
1773074742451876608,0.5499733090400696,1,-0.08864166587591171,1,0.02101410552859306,1,0.00834203977137804,1,0.0003296356881037354,1,-0.0193365179002285,1
1773074742461772032,0.5058967471122742,1,0.01576876640319824,1,0.00798761285841465,1,0.008566198870539665,1,0.002744385972619057,1,-0.01971577294170856,1
1773074742471570432,0.5084487795829773,1,0.02401747554540634,1,0.007398045621812344,1,0.0004278557607904077,1,0.005623301956802607,1,-0.01913345046341419,1
1773074742481274368,0.6082143783569336,1,-0.08335134387016296,1,-0.06412298977375031,1,-0.005054689943790436,1,0.006621764972805977,1,-0.01965825259685516,1
1773074742490884096,0.5860240459442139,1,-0.05556807667016983,1,-0.1001723930239677,1,-0.004033262841403484,1,0.008895791135728359,1,-0.02101726830005646,1
1773074742500400384,0.5210764408111572,1,0.07446470856666565,1,0.03290592133998871,1,-0.008646023459732533,1,0.01454795431345701,1,-0.02020410262048244,1
1773074742509822976,0.5976814031600952,1,-0.001390582881867886,1,0.1145699471235275,1,-0.0176822617650032,1,0.01506448816508055,1,-0.01906957849860191,1
1773074742519153152,0.6631171107292175,1,-0.08465932309627533,1,0.0518408939242363,1,-0.01163363363593817,1,0.01061138603836298,1,-0.02063771896064281,1
1773074742529153024,0.5944941639900208,1,0.06785920262336731,1,0.07532557100057602,1,-0.0007418460445478559,1,0.01053543202579021,1,-0.02116084843873978,1
1773074742539812864,0.6037164926528931,1,0.08136802911758423,1,0.1566000133752823,1,0.004007252864539623,1,0.009250345639884472,1,-0.01954730413854122,1
1773074742550369280,0.6982698440551758,1,-0.05897694826126099,1,0.09389142692089081,1,0.008028614334762096,1,0.004724272061139345,1,-0.01974084973335266,1
1773074742560822784,0.6712336540222168,1,-0.06098999455571175,1,0.03215448558330536,1,0.01497820951044559,1,0.0024381959810853,1,-0.02093099616467953,1
1773074742571175936,0.5857253074645996,1,0.007619922049343586,1,0.07921133935451508,1,0.01686098240315914,1,0.004039008636027575,1,-0.01997454278171062,1
1773074742581426176,0.6349760890007019,1,-0.04377204179763794,1,0.09431702643632889,1,0.007124352268874645,1,0.005244878120720387,1,-0.01885596476495266,1
1773074742591589376,0.7141557931900024,1,-0.121578112244606,1,0.01069582998752594,1,0.001007850631140172,1,0.003046016907319427,1,-0.01966104842722416,1
1773074742601655552,0.6530433893203735,1,-0.06513452529907227,1,-0.05413828790187836,1,0.0006080797174945474,1,0.00400672247633338,1,-0.02069329097867012,1
1773074742611624192,0.6281463503837585,1,0.02602938748896122,1,-0.01172228250652552,1,-0.0002145822218153626,1,0.006752646993845701,1,-0.02006655186414719,1
1773074742621496832,0.702308714389801,1,-0.07259199023246765,1,-0.007726273965090513,1,-0.002817367436364293,1,0.006075046956539154,1,-0.01965189538896084,1
1773074742631272448,0.7291017174720764,1,-0.1052911728620529,1,-0.07482273131608963,1,-0.0005983812734484673,1,0.005722783505916595,1,-0.02143561281263828,1
1773074742640953600,0.6555215716362,1,-0.007106352597475052,1,-0.009394410997629166,1,0.001720406813547015,1,0.009462494403123856,1,-0.02136564254760742,1
1773074742650540544,0.6623882055282593,1,-0.0078001469373703,1,0.103077158331871,1,-0.004269028548151255,1,0.01027005817741156,1,-0.02021853066980839,1
1773074742660034816,0.7949347496032715,1,-0.09959124773740768,1,0.0296085849404335,1,-0.007527551148086786,1,0.007619351148605347,1,-0.02080159448087215,1
1773074742669436928,0.7360510230064392,1,-0.1001588180661201,1,-0.01865424402058125,1,-0.002656409982591867,1,0.007435669656842947,1,-0.0221789013594389,1
1773074742678746624,0.6279719471931458,1,0.03111860528588295,1,0.07474751770496368,1,0.001516688265837729,1,0.009274098090827465,1,-0.02190523035824299,1
1773074742689186304,0.7669798135757446,1,-0.04727666079998016,1,0.09283427894115448,1,-0.004000138957053423,1,0.008127555251121521,1,-0.01997609436511993,1
1773074742699830784,0.8642666935920715,1,-0.1344837099313736,1,-0.007607985287904739,1,-0.006629192735999823,1,0.005594620015472174,1,-0.02114169113337994,1
1773074742710377984,0.7218089699745178,1,0.01678066700696945,1,0.02342887781560421,1,-0.004928075708448887,1,0.008550067432224751,1,-0.02169192209839821,1
1773074742720825344,0.7211455702781677,1,0.1015172079205513,1,0.1040170416235924,1,-0.003207554807886481,1,0.007285294122993946,1,-0.01938276179134846,1
1773074742731172352,0.8958640694618225,1,-0.006755359470844269,1,0.03608239442110062,1,-0.004212632309645414,1,0.00712657580152154,1,-0.01854112558066845,1
1773074742741415936,0.8746960759162903,1,-0.04067086055874825,1,0.04273276031017303,1,-0.0001992397883441299,1,0.006804311648011208,1,-0.01952568255364895,1
1773074742751561472,0.7528176307678223,1,0.1103840172290802,1,0.1162054687738419,1,0.005259056575596333,1,0.008114400319755077,1,-0.01935155875980854,1
1773074742761607168,0.8086040019989014,1,0.06983052939176559,1,0.1993396729230881,1,0.001620287308469415,1,0.007464664056897163,1,-0.01791208982467651,1
1773074742771556096,0.8954258561134338,1,-0.05539197847247124,1,0.1151330918073654,1,0.001462412881664932,1,0.002344565466046333,1,-0.01823773980140686,1
1773074742781409792,0.809742271900177,1,0.0005361456423997879,1,0.03494857624173164,1,0.008733376860618591,1,0.002890581963583827,1,-0.0189149733632803,1
1773074742791165952,0.800687849521637,1,0.07283101230859756,1,0.1078007519245148,1,0.01305222511291504,1,0.004742926452308893,1,-0.01755734160542488,1
1773074742800827648,0.8921415209770203,1,-0.04240567982196808,1,0.1228841841220856,1,0.003356062341481447,1,0.005016566719859838,1,-0.01636234484612942,1
1773074742810393856,0.9232990145683289,1,-0.1274239122867584,1,0.07577575743198395,1,0.0007532237796112895,1,0.00540420226752758,1,-0.0173675250262022,1
1773074742819866624,0.860444188117981,1,-0.01229960098862648,1,0.1042834967374802,1,-0.0004056326579302549,1,0.007633643690496683,1,-0.0172050055116415,1
1773074742829247488,0.8306366205215454,1,0.04373955726623535,1,0.1858746111392975,1,-0.008011063560843468,1,0.009125911630690098,1,-0.0161077156662941,1
1773074742838715392,0.9685986042022705,1,-0.04120481386780739,1,0.1676370948553085,1,-0.01186077576130629,1,0.00639182236045599,1,-0.01591997966170311,1
1773074742849440000,1.035101056098938,1,-0.03177021443843842,1,0.06671956926584244,1,-0.009583652950823307,1,0.005436289589852095,1,-0.01722624339163303,1
1773074742860063488,0.8900561332702637,1,0.1219504699110985,1,0.06224101781845093,1,-0.003277627751231194,1,0.006522968877106905,1,-0.01671227812767029,1
1773074742870586112,0.8446359634399414,1,0.091855488717556,1,0.1445702165365219,1,0.008659405633807182,1,0.001803501043468714,1,-0.01456257421523333,1
1773074742881006848,0.9901641011238098,1,-0.05633604526519775,1,0.08621031790971756,1,0.0160021185874939,1,-0.002685626735910773,1,-0.0149963116273284,1
1773074742891326208,0.9468588829040527,1,-0.02365559712052345,1,-0.01196524128317833,1,0.01088197529315948,1,0.001128980191424489,1,-0.01617610640823841,1
1773074742901545728,0.7265289425849915,1,0.0548626109957695,1,0.08467848598957062,1,0.007936206646263599,1,0.00424861628562212,1,-0.01509358547627926,1
1773074742911665408,0.7637759447097778,1,-0.03593170642852783,1,0.1537045538425446,1,0.007357137743383646,1,0.0007196469814516604,1,-0.0146434148773551,1
1773074742921686272,1.042218923568726,1,-0.1339049935340881,1,0.003214720636606216,1,-0.001999372150748968,1,-0.000409397529438138,1,-0.01568061858415604,1
1773074742931619584,0.9508792757987976,1,-0.01167297549545765,1,-0.09772835671901703,1,-0.01000753883272409,1,0.006039970554411411,1,-0.0167075227946043,1
1773074742941458176,0.7567649483680725,1,0.07495681196451187,1,0.06652429699897766,1,-0.009268567897379398,1,0.008191586472094059,1,-0.01517266780138016,1
1773074742951200768,0.8752031922340393,1,-0.04436817765235901,1,0.08048100769519806,1,0.004507124423980713,1,0.001290214480832219,1,-0.01457188278436661,1
1773074742960848640,1.097714066505432,1,-0.1199161410331726,1,0.0126448068767786,1,0.009870018810033798,1,0.0005616782582364976,1,-0.01584376953542233,1
1773074742970401792,0.9572288990020752,1,-0.04582186043262482,1,0.05654598027467728,1,-0.0008589039789512753,1,0.00672979187220335,1,-0.01652671582996845,1
1773074742979861760,0.6871281266212463,1,0.06374962627887726,1,0.1180675700306892,1,-0.003200254170224071,1,0.005727472715079784,1,-0.01535776443779469,1
1773074742989230848,0.7675777673721313,1,-0.03122269921004772,1,0.1317786872386932,1,0.005569285713136196,1,0.0006786814774386585,1,-0.01410754304379225,1
1773074742998811136,1.081650733947754,1,-0.1879284828901291,1,0.03693783283233643,1,0.006651855539530516,1,-0.001546208164654672,1,-0.01559839397668839,1
1773074743009503488,1.06708300113678,1,-0.08332923799753189,1,-0.04429342597723007,1,-0.006158425472676754,1,0.004444637801498175,1,-0.01696452125906944,1
1773074743020092928,0.7618072032928467,1,0.05510460957884789,1,0.01673106476664543,1,-0.009366364218294621,1,0.005787868052721024,1,-0.0155854569748044,1
1773074743030579712,0.7461241483688354,1,0.01414262130856514,1,0.03259329870343208,1,0.003367215860635042,1,0.002043747808784246,1,-0.01386537775397301,1
1773074743040964608,1.074371576309204,1,-0.1627277433872223,1,0.05112859606742859,1,0.01018799655139446,1,0.003699917811900377,1,-0.01435874868184328,1
1773074743051253760,1.104023933410645,1,-0.1415280252695084,1,0.1330384612083435,1,-0.003375655971467495,1,0.008555279113352299,1,-0.01566603593528271,1
1773074743061443328,0.7462897896766663,1,0.03161891549825668,1,0.1732515394687653,1,-0.01504602935165167,1,0.008428852073848248,1,-0.01545903645455837,1
1773074743071533824,0.6474039554595947,1,0.04664135724306107,1,0.1745368242263794,1,0.001572848297655582,1,0.000974403927102685,1,-0.01433532498776913,1
1773074743081527552,0.9985605478286743,1,-0.1156935393810272,1,0.1287835389375687,1,0.01204033754765987,1,-0.002602794673293829,1,-0.01424431707710028,1
1773074743091422976,1.240919947624207,1,-0.1131867691874504,1,0.04018610715866089,1,0.002554715145379305,1,0.001059743692167103,1,-0.01612157747149467,1
1773074743101222656,0.873571515083313,1,0.03608070686459541,1,0.1125007942318916,1,-0.01404856704175472,1,0.003274545073509216,1,-0.01590623520314693,1
1773074743110926592,0.4586074948310852,1,0.1199785694479942,1,0.04845969006419182,1,-0.005414112471044064,1,-0.002994473092257977,1,-0.01528942119330168,1
1773074743120536832,0.7273778915405273,1,-0.04756544530391693,1,0.1077238023281097,1,0.0224938690662384,1,-0.003954133484512568,1,-0.01376308780163527,1
1773074743130053376,1.210360646247864,1,-0.2235423922538757,1,0.175968274474144,1,0.00545990839600563,1,-0.002942853141576052,1,-0.0156632661819458,1
1773074743139476480,0.9237420558929443,1,-0.03809873759746552,1,0.1014635041356087,1,-0.0249360091984272,1,0.002976586576551199,1,-0.01776945777237415,1
1773074743148808192,0.4685606062412262,1,0.1486827731132507,1,0.06005635857582092,1,-0.02479446865618229,1,-0.001780629972927272,1,-0.01681698113679886,1
1773074743158809600,0.5078586339950562,1,0.1294146478176117,1,-0.007188123650848866,1,0.006607138551771641,1,-0.004706172738224268,1,-0.01498217415064573,1
1773074743169472000,0.9932199716567993,1,-0.1271956562995911,1,0.1170062050223351,1,0.01025454979389906,1,-0.0003247066051699221,1,-0.01421038061380386,1
1773074743180032512,0.8854643106460571,1,-0.07204278558492661,1,0.0943169891834259,1,-0.0004223197465762496,1,-0.002130148001015186,1,-0.01662950031459332,1
1773074743190495488,0.5788239240646362,1,0.1035705283284187,1,0.2976117730140686,1,-0.009309793822467327,1,-0.002305144444108009,1,-0.01602986268699169,1
1773074743200858112,0.4188410639762878,1,0.1311259120702744,1,0.05746834725141525,1,-0.005898282863199711,1,-0.01104941125959158,1,-0.01568417251110077,1
1773074743211122176,0.6517777442932129,1,0.04426270723342896,1,-0.05006571859121323,1,0.01624753512442112,1,-0.00485030235722661,1,-0.01386776380240917,1
1773074743221293568,0.7862831354141235,1,-0.06449097394943237,1,0.07663442194461823,1,0.008148044347763062,1,-0.004833300597965717,1,-0.01420947164297104,1
1773074743231368704,0.6512914299964905,1,0.01638130657374859,1,-0.0431004986166954,1,0.006328984163701534,1,-0.006422944832593203,1,-0.0148763582110405,1
1773074743241348096,0.4934077858924866,1,0.03398633375763893,1,0.1065141335129738,1,0.005740625318139791,1,-0.004995016381144524,1,-0.0141164306551218,1
1773074743251232512,0.3600838780403137,1,0.08907155692577362,1,0.07554791122674942,1,0.003318673232570291,1,-0.005510242190212011,1,-0.01398168131709099,1
1773074743261022464,0.4976565837860107,1,-0.02997777983546257,1,0.09960431605577469,1,0.00902034156024456,1,-0.00419297581538558,1,-0.0118495961651206,1
1773074743270718208,0.7263867855072021,1,-0.1090434938669205,1,0.02409660816192627,1,0.007004732266068459,1,-0.005284787155687809,1,-0.01262574270367622,1
1773074743280322560,0.5358929634094238,1,-0.04566046968102455,1,0.04653974995017052,1,0.003376008942723274,1,-0.006603891961276531,1,-0.01393006276339293,1
1773074743289839872,0.3401288688182831,1,0.02199455350637436,1,0.06492327153682709,1,0.007106184028089046,1,-0.01018103212118149,1,-0.01448575686663389,1
1773074743299273984,0.3942825794219971,1,0.02896404080092907,1,-0.06223463267087936,1,0.01657637022435665,1,-0.006841026246547699,1,-0.01297558005899191,1
1773074743308619008,0.5547980070114136,1,-0.1519137471914291,1,0.02720199711620808,1,0.0126632796600461,1,-0.001858618226833642,1,-0.01146953739225864,1
1773074743319064576,0.5703209042549133,1,-0.1443123817443848,1,0.06079614162445068,1,0.004864602349698544,1,-0.001987076364457607,1,-0.01256822515279055,1
1773074743329705472,0.4719497263431549,1,-0.1132608652114868,1,0.0656946673989296,1,-0.002931545488536358,1,-0.00196363776922226,1,-0.01374934241175652,1
1773074743340244480,0.3974385559558868,1,-0.008894788101315498,1,0.02565161138772964,1,-0.002098208991810679,1,-0.002383668906986713,1,-0.01373772788792849,1
1773074743350682880,0.4567857384681702,1,-0.02728715352714062,1,0.03500066697597504,1,0.006065700203180313,1,-0.001233363756909966,1,-0.0121701043099165,1
1773074743361017600,0.6542866230010986,1,-0.09577597677707672,1,0.01502232253551483,1,0.006788463331758976,1,-1.603871351107955e-05,1,-0.0119058433920145,1
1773074743371252480,0.6419820785522461,1,-0.1274886727333069,1,0.01891285553574562,1,0.004160596057772636,1,1.537823118269444e-05,1,-0.01267426740378141,1
1773074743381387264,0.3965601623058319,1,-0.04323065280914307,1,0.1160261780023575,1,0.00386308878660202,1,0.0007424963405355811,1,-0.01300504524260759,1
1773074743391422976,0.4303262829780579,1,7.389741949737072e-05,1,0.1327197849750519,1,0.004549758974462748,1,-0.0003100603353232145,1,-0.01275876257568598,1
1773074743401360640,0.7114690542221069,1,-0.1698989272117615,1,0.0148516446352005,1,0.007535561919212341,1,-0.002547808457165956,1,-0.01186864823102951,1
1773074743411207424,0.7259367704391479,1,-0.128799244761467,1,-0.02542025968432426,1,0.003927904181182384,1,0.0008154563838616014,1,-0.01365635637193918,1
1773074743420963328,0.4798963963985443,1,-0.06931576132774353,1,0.1206078827381134,1,0.001332237268798053,1,0.0034323800355196,1,-0.0132994968444109,1
1773074743430624256,0.4816450476646423,1,-0.03067614510655403,1,0.1122478917241096,1,0.0008166703046299517,1,0.00167214241810143,1,-0.01320933736860752,1
1773074743440190720,0.6765168905258179,1,-0.1104081720113754,1,0.06804931908845901,1,-0.00403517484664917,1,0.004980188328772783,1,-0.01276711467653513,1
1773074743449665792,0.6839733123779297,1,-0.1959820985794067,1,0.1408855766057968,1,-0.008138151839375496,1,0.003279197495430708,1,-0.01305659115314484,1
1773074743459047424,0.524463415145874,1,-0.1290749311447144,1,0.1132891848683357,1,-0.005033988505601883,1,0.0009592672577127814,1,-0.01419928297400475,1
1773074743468490752,0.5431575179100037,1,0.02938573807477951,1,0.1164918914437294,1,-0.00899219699203968,1,0.003468269947916269,1,-0.01427767891436815,1
1773074743479216640,0.6241672039031982,1,-0.06728768348693848,1,0.127090722322464,1,-0.01663103885948658,1,0.003297093557193875,1,-0.01203888282179832,1
1773074743489837568,0.6449248194694519,1,-0.138624370098114,1,0.01622609049081802,1,-0.0113596823066473,1,-0.0002567417395766824,1,-0.01274831313639879,1
1773074743500357888,0.5925763249397278,1,-0.04727630317211151,1,0.045487180352211,1,-0.006146362517029047,1,0.001181856729090214,1,-0.0134446183219552,1
1773074743510775808,0.4703909754753113,1,-0.03395260125398636,1,0.1350544691085815,1,-0.00697418674826622,1,0.002980625722557306,1,-0.01178658567368984,1
1773074743521092608,0.5997732877731323,1,0.01066076196730137,1,0.1155779510736465,1,-0.01267028041183949,1,0.004298562183976173,1,-0.01065597590059042,1
1773074743531308800,0.6671386361122131,1,-0.04756577685475349,1,0.1009245663881302,1,-0.02446644753217697,1,0.005167845636606216,1,-0.009177353233098984,1
1773074743541425152,0.5039964914321899,1,-0.05886591225862503,1,0.1180040761828423,1,-0.01618577353656292,1,0.0007043288205750287,1,-0.01203920599073172,1
1773074743551442432,0.5676448345184326,1,0.09501977264881134,1,0.03455652296543121,1,-0.004544262308627367,1,-0.000621590472292155,1,-0.01117289625108242,1
1773074743561367040,0.6411385536193848,1,0.06330443173646927,1,0.03676997125148773,1,-0.004670671653002501,1,0.003392798127606511,1,-0.008514674380421638,1
1773074743571201536,0.5483666062355042,1,-0.01921785995364189,1,0.1078993380069733,1,-0.008773987181484699,1,0.004064579494297504,1,-0.009077097289264202,1
1773074743580939776,0.5513277053833008,1,0.01234385930001736,1,0.1413880884647369,1,-0.002503023017197847,1,0.001474854652769864,1,-0.01017521601170301,1
1773074743590584064,0.5763344168663025,1,0.05100781470537186,1,0.09962638467550278,1,-0.004762723110616207,1,0.004685161635279655,1,-0.009331982582807541,1
1773074743600137216,0.5713769197463989,1,0.09445843100547791,1,0.2209789454936981,1,-0.00847077090293169,1,0.005878894589841366,1,-0.008033870719373226,1
1773074743609598720,0.6242218613624573,1,0.01827734149992466,1,0.1571834236383438,1,-0.0122809736058116,1,0.0002796293119899929,1,-0.009288587607443333,1
1773074743618969088,0.6289253830909729,1,0.04263084009289742,1,-0.03605463355779648,1,-0.002586033195257187,1,-0.002097058575600386,1,-0.01104094740003347,1
1773074743628554496,0.4633225500583649,1,0.1529560387134552,1,0.05363469943404198,1,0.004271248355507851,1,0.001059712958522141,1,-0.009800422005355358,1
1773074743639249408,0.4779632389545441,1,0.09008610248565674,1,0.1302952915430069,1,0.0006970785325393081,1,0.001726912567391992,1,-0.007966966368257999,1
1773074743649839872,0.6385430693626404,1,-0.05774630233645439,1,0.05047814548015594,1,-0.004396846517920494,1,-0.002078229561448097,1,-0.008577771484851837,1
1773074743660329984,0.4744232296943665,1,-0.04620200768113136,1,-0.01596011407673359,1,-0.004809032659977674,1,-0.0008643432520329952,1,-0.01081076916307211,1
1773074743670719744,0.3387517631053925,1,0.1482436954975128,1,0.1161892265081406,1,0.001120571629144251,1,0.00285810325294733,1,-0.01081143226474524,1
1773074743681007616,0.5187829732894897,1,0.09796015173196793,1,0.1376791745424271,1,-0.0113453958183527,1,0.002621747786179185,1,-0.008435840718448162,1
1773074743691194880,0.5966811776161194,1,-0.03036689199507236,1,-0.02570017985999584,1,-0.01845271326601505,1,-0.0005420200759544969,1,-0.01001520548015833,1
1773074743701284096,0.4115861058235168,1,0.03905032575130463,1,-0.04284589365124702,1,-0.002478598151355982,1,-0.0003038552822545171,1,-0.01090400014072657,1
1773074743711273984,0.2952626049518585,1,0.1114015877246857,1,0.09914395213127136,1,0.007798993028700352,1,-0.002871968783438206,1,-0.01063509937375784,1
1773074743721167872,0.4263127744197845,1,0.07268649339675903,1,-0.0003661103546619415,1,0.001423718524165452,1,-0.005266003310680389,1,-0.009656886570155621,1
1773074743730974208,0.448834091424942,1,-0.02840615808963776,1,-0.1150738820433617,1,0.001493697054684162,1,-0.004457783419638872,1,-0.01011031772941351,1
1773074743740693248,0.2638963758945465,1,-0.03323002532124519,1,-0.02792692556977272,1,0.008906821720302105,1,-0.004937947262078524,1,-0.01133662462234497,1
1773074743750319360,0.27275750041008,1,0.07906753569841385,1,-0.01965221017599106,1,0.01375741604715586,1,-0.003867529099807143,1,-0.01094612386077642,1
1773074743759854080,0.4084595143795013,1,0.01681224629282951,1,-0.01715956628322601,1,0.003017740091308951,1,-0.001957313856109977,1,-0.01002006325870752,1
1773074743769298176,0.2783593237400055,1,-0.05761346220970154,1,-0.02773891948163509,1,-0.004079874604940414,1,-0.003464502282440662,1,-0.01010171510279179,1
1773074743778651392,0.2109779864549637,1,-0.009035235270857811,1,-0.05905692279338837,1,0.009291837923228741,1,-0.004290140233933926,1,-0.01102470234036446,1
1773074743788663808,0.3526137173175812,1,0.02293544448912144,1,-0.03233766555786133,1,0.009668611921370029,1,-0.002758673392236233,1,-0.009822817519307137,1
1773074743799326464,0.283715546131134,1,-0.06811274588108063,1,-0.004787890240550041,1,0.002247822238132358,1,-0.004296598024666309,1,-0.009326571598649025,1
1773074743809886720,0.207373172044754,1,-0.08772222697734833,1,-0.054892897605896,1,0.01226393599063158,1,-0.00509556895121932,1,-0.01073972322046757,1
1773074743820345344,0.2968971133232117,1,-0.04845878109335899,1,-0.005100331269204617,1,0.01462096348404884,1,-0.001022229087539017,1,-0.009619279764592648,1
1773074743830714112,0.3434074819087982,1,-0.05373812839388847,1,0.0445064976811409,1,0.005467117298394442,1,0.0009458528365939856,1,-0.008392428979277611,1
1773074743840984064,0.2746425569057465,1,-0.1371148377656937,1,0.08354315161705017,1,-0.003248753724619746,1,0.001160708488896489,1,-0.008123313076794147,1
1773074743851156480,0.2711180150508881,1,-0.1387111246585846,1,0.06091054528951645,1,0.0007067875703796744,1,-0.001011576154269278,1,-0.009489483200013638,1
1773074743861234944,0.3255189657211304,1,-0.09313229471445084,1,0.04158683121204376,1,0.00146916788071394,1,0.0004362206382211298,1,-0.008566851727664471,1
1773074743871216128,0.2998676598072052,1,-0.04853767529129982,1,0.1283799260854721,1,-0.009429518133401871,1,0.003268284257501364,1,-0.007565608713775873,1
1773074743881100800,0.3024810552597046,1,-0.1746989786624908,1,0.1312001198530197,1,-0.0112854465842247,1,0.0008413760224357247,1,-0.007323839701712132,1
1773074743890892800,0.3588811457157135,1,-0.1359286904335022,1,0.08615303784608841,1,-0.006230223923921585,1,-0.001874537905678153,1,-0.00799225177615881,1
1773074743900591616,0.3470893502235413,1,-0.02029110491275787,1,0.1039112880825996,1,-0.007895521819591522,1,0.001238681841641665,1,-0.006978286430239677,1
1773074743910196736,0.3499314188957214,1,-0.1061011850833893,1,0.1944912821054459,1,-0.01148916687816381,1,-0.00071577203925699,1,-0.005805882625281811,1
1773074743919708928,0.4587295353412628,1,-0.1181989908218384,1,0.04719968140125275,1,-0.01164377853274345,1,-0.001318016089498997,1,-0.008052181452512741,1
1773074743929129728,0.4637042284011841,1,-0.04900097846984863,1,0.0899805948138237,1,-0.008513372391462326,1,0.003592288121581078,1,-0.007182967383414507,1
1773074743938480384,0.4727761745452881,1,-0.05924658477306366,1,0.2070034146308899,1,-0.01045496948063374,1,0.003829491324722767,1,-0.005866467952728271,1
1773074743948927744,0.5572383403778076,1,-0.04963062331080437,1,0.1308696568012238,1,-0.01688859611749649,1,0.004632924683392048,1,-0.006682930048555136,1
1773074743959570432,0.5936035513877869,1,-0.04791700467467308,1,0.1479216665029526,1,-0.01244526356458664,1,0.005682858638465405,1,-0.00691875396296382,1
1773074743970109184,0.6586414575576782,1,0.02887298539280891,1,0.1539936363697052,1,-0.006449389271438122,1,0.005025665741413832,1,-0.006895653903484344,1
1773074743980547072,0.7637167572975159,1,0.08913008868694305,1,0.1213243305683136,1,-0.01017968822270632,1,0.009027027525007725,1,-0.005993237718939781,1
1773074743990886400,0.8223137855529785,1,0.01344354916363955,1,0.1578877866268158,1,-0.008516543544828892,1,0.0113769443705678,1,-0.005482795648276806,1
1773074744001125888,0.8491115570068359,1,0.04283655807375908,1,0.1978960484266281,1,-0.003510580165311694,1,0.0120205245912075,1,-0.006048376206308603,1
1773074744011264512,0.9124746322631836,1,0.06273845583200455,1,0.2166069597005844,1,-0.0003513440024107695,1,0.0134126078337431,1,-0.005445023067295551,1
1773074744021304320,0.9519133567810059,1,0.04296596720814705,1,0.2839643061161041,1,-0.0028373789973557,1,0.01458975579589605,1,-0.004706368781626225,1
1773074744031245824,0.9750754833221436,1,0.097291000187397,1,0.2774645090103149,1,-0.006517836824059486,1,0.0126577103510499,1,-0.005229118745774031,1
1773074744041090048,1.13665783405304,1,0.1090941876173019,1,0.1545377820730209,1,-0.005357212387025356,1,0.01234716922044754,1,-0.003559731878340244,1
1773074744050839552,1.146971464157104,1,0.01954598724842072,1,0.1521320343017578,1,-0.00210263323970139,1,0.01264522410929203,1,-0.003558657364919782,1
1773074744060495104,1.07210636138916,1,0.1135818809270859,1,0.1160655915737152,1,0.004742665216326714,1,0.01050493493676186,1,-0.004206367302685976,1
1773074744070066688,1.148217082023621,1,0.1164182350039482,1,0.1549425423145294,1,0.006314095575362444,1,0.01075584441423416,1,-0.002626563655212522,1
1773074744079544576,1.182777166366577,1,-0.05294184014201164,1,0.151669830083847,1,-0.002308574272319674,1,0.01218633260577917,1,-0.002268827054649591,1
1773074744088929536,1.114690184593201,1,0.0408095046877861,1,0.1489307284355164,1,-0.005077183246612549,1,0.01382328383624554,1,-0.002717404393479228,1
1773074744098376704,1.122284173965454,1,0.05786266550421715,1,0.2412075251340866,1,-0.007437169086188078,1,0.01174313202500343,1,-0.001899627037346363,1
1773074744109100800,1.193609833717346,1,-0.04855775833129883,1,0.1411831974983215,1,-0.01591390743851662,1,0.009725950658321381,1,-0.002251198282465339,1
1773074744119721472,1.101507306098938,1,0.03018928505480289,1,0.05804795399308205,1,-0.008332348428666592,1,0.009183445014059544,1,-0.002748005092144012,1
1773074744130241536,1.069715142250061,1,0.08993209153413773,1,0.1572297811508179,1,0.001435774029232562,1,0.005210378672927618,1,-0.0006735388888046145,1
1773074744140662784,1.080189347267151,1,0.01030786335468292,1,0.09563140571117401,1,-0.005024172831326723,1,0.002283089328557253,1,-1.667242031544447e-05,1
1773074744150983680,1.034458518028259,1,-0.05311830341815948,1,0.007233386859297752,1,-0.001929774996824563,1,0.001326468656770885,1,-0.0006426085601560771,1
1773074744161203968,0.9411881566047668,1,0.07575046271085739,1,0.05890040844678879,1,0.003260871395468712,1,0.001979074440896511,1,0.0002760267816483974,1
1773074744171328768,0.90986567735672,1,0.03271874040365219,1,0.1314727663993835,1,-0.00633835606276989,1,-0.001959144370630383,1,0.001420113607309759,1
1773074744181355008,0.8509160280227661,1,-0.003573986701667309,1,-0.05594282597303391,1,-0.009024565108120441,1,-0.005890733562409878,1,0.0005087954341433942,1
1773074744191284480,0.7832679152488708,1,0.1364626735448837,1,-0.1202030554413795,1,-0.003322215052321553,1,-0.005405760370194912,1,0.000303352193441242,1
1773074744201121024,0.7349137663841248,1,0.1102946698665619,1,-0.05204513669013977,1,-0.002575545804575086,1,-0.006703193299472332,1,0.002853695303201675,1
1773074744210867968,0.8149351477622986,1,-0.1239089816808701,1,0.0078726876527071,1,-0.01073114573955536,1,-0.000798268592916429,1,0.00117590872105211,1
1773074744220532224,0.745040237903595,1,-0.02962800487875938,1,-0.1715788543224335,1,-0.02369823306798935,1,-0.006724698003381491,1,-0.001651829923503101,1
1773074744230103552,0.3928014934062958,1,0.2059145122766495,1,-0.1644436568021774,1,-0.02263893187046051,1,-0.00946030393242836,1,0.0004539520014077425,1
1773074744239582464,0.3721452355384827,1,0.1069592908024788,1,-0.2404965162277222,1,-0.01663185656070709,1,-0.01361797098070383,1,0.002106557600200176,1
1773074744248971264,0.516543984413147,1,0.09195005893707275,1,-0.3372040390968323,1,0.001867569284513593,1,-0.0182960107922554,1,0.002290814183652401,1
1773074744258567424,0.5117352604866028,1,0.1061561480164528,1,-0.2812418639659882,1,0.02238902822136879,1,-0.01369131077080965,1,0.003605625359341502,1
1773074744269260032,0.4603001475334167,1,0.04823099076747894,1,-0.1252497583627701,1,0.02288596145808697,1,-0.01132803875952959,1,0.004413447342813015,1
1773074744279849216,0.3922314047813416,1,-0.03373278677463531,1,-0.08988720923662186,1,0.0214180015027523,1,-0.009307043626904488,1,0.004046445246785879,1
1773074744290336256,0.411491870880127,1,-0.06955281645059586,1,0.07359270751476288,1,0.01147678215056658,1,-0.0009926215279847383,1,0.004019246436655521,1
1773074744300724480,0.4402998089790344,1,-0.1284748017787933,1,0.08630954474210739,1,-0.01475097890943289,1,0.0004097108903806657,1,0.003548267763108015,1
1773074744311012352,0.3661742210388184,1,0.004723910242319107,1,-0.06652437895536423,1,-0.02916175685822964,1,0.005013961810618639,1,0.002077753189951181,1
1773074744321201920,0.4045111536979675,1,0.05904191732406616,1,-0.03445392847061157,1,-0.02413587830960751,1,0.006611621472984552,1,0.004262938164174557,1
1773074744331294464,0.4893971681594849,1,0.007874410599470139,1,-0.06989786773920059,1,-0.007162103895097971,1,0.001730029820464551,1,0.005367501638829708,1
1773074744341289216,0.4703342914581299,1,0.05931354686617851,1,-0.03150187432765961,1,0.01061338558793068,1,0.005103260278701782,1,0.004918381571769714,1
1773074744351187712,0.5355944037437439,1,-0.03354959934949875,1,0.2410968691110611,1,0.02757039852440357,1,0.004576589912176132,1,0.006595407612621784,1
1773074744360993792,0.6293119192123413,1,-0.08295733481645584,1,0.2796032428741455,1,0.01815849542617798,1,0.00535961939021945,1,0.00647765351459384,1
1773074744370703872,0.6165312528610229,1,-0.108083076775074,1,0.2867714464664459,1,0.003936679102480412,1,0.01069110073149204,1,0.006082013715058565,1
1773074744380323584,0.5970512628555298,1,-0.0603691004216671,1,0.358928769826889,1,0.000171749503351748,1,0.00935103464871645,1,0.005590393673628569,1
1773074744389867008,0.7257676720619202,1,-0.06070003286004066,1,0.2269270718097687,1,-0.009353039786219597,1,0.01042790617793798,1,0.00502104451879859,1
1773074744399320064,0.7809371948242188,1,-0.07113546133041382,1,0.2051908075809479,1,-0.004298033192753792,1,0.01362228766083717,1,0.004420022014528513,1
1773074744408683008,0.7749022245407104,1,-0.01389438100159168,1,0.3207849562168121,1,0.00270544458180666,1,0.01114370301365852,1,0.004930794239044189,1
1773074744418698240,0.8459494113922119,1,-0.06286080926656723,1,0.2379919141530991,1,0.001742715598084033,1,0.01231447886675596,1,0.00581742636859417,1
1773074744429354496,0.9162384867668152,1,-0.06906188279390335,1,0.3401030004024506,1,-0.0002828150172717869,1,0.0164880845695734,1,0.004333419259637594,1
1773074744439909376,0.9368621110916138,1,-0.09742119163274765,1,0.4217086434364319,1,-0.003143768524751067,1,0.01248562708497047,1,0.005044459830969572,1
1773074744450360064,1.016050934791565,1,-0.09604956954717636,1,0.2275558412075043,1,-0.004729107022285461,1,0.01103431731462479,1,0.004125326406210661,1
1773074744460715008,1.079458832740784,1,0.01761460863053799,1,0.2481525838375092,1,-0.005979850422590971,1,0.01519813388586044,1,0.003724310314282775,1
1773074744470973952,1.081811428070068,1,-0.009500790387392044,1,0.2675381004810333,1,-0.007729819975793362,1,0.01261352468281984,1,0.005159777123481035,1
1773074744481133056,1.089491605758667,1,-0.02494775503873825,1,0.1132559478282928,1,-0.004869813565164804,1,0.01079324167221785,1,0.004300334025174379,1
1773074744491194368,1.183064341545105,1,0.0670178085565567,1,0.1363095492124557,1,0.00342564913444221,1,0.01340154558420181,1,0.00426552165299654,1
1773074744501157376,1.206161499023438,1,-0.04929381236433983,1,0.2213793992996216,1,-0.002429773565381765,1,0.01606438867747784,1,0.004622268490493298,1
1773074744511023872,1.207174181938171,1,0.04708746075630188,1,0.148839071393013,1,-0.00468203192576766,1,0.0177006870508194,1,0.003953803796321154,1
1773074744520793344,1.155960083007812,1,0.08010005950927734,1,0.2793661952018738,1,-0.008955386467278004,1,0.01879240013659,1,0.004548460710793734,1
1773074744530469376,1.182958483695984,1,0.05803351104259491,1,0.2415306717157364,1,-0.01214323658496141,1,0.01299403794109821,1,0.002901097759604454,1
1773074744540050432,1.307982683181763,1,0.1204982101917267,1,0.04554727673530579,1,-0.002775624394416809,1,0.01253326330333948,1,0.002779716160148382,1
1773074744549537536,1.208464980125427,1,0.0584961511194706,1,0.2052134871482849,1,0.001850667991675436,1,0.01090299990028143,1,0.003607221879065037,1
1773074744558931968,1.12695574760437,1,0.187015563249588,1,0.08710519969463348,1,0.003969327080994844,1,0.00660184770822525,1,0.003183553228154778,1
1773074744568233728,1.209916114807129,1,0.03779336810112,1,0.0327329970896244,1,0.01290732622146606,1,0.007005566265434027,1,0.002832000842317939,1
1773074744578825216,1.195312261581421,1,0.08504164218902588,1,0.1582382917404175,1,0.001943948329426348,1,0.006650331430137157,1,0.002324238419532776,1
1773074744589469184,1.014434099197388,1,0.1443080902099609,1,0.007780707441270351,1,-0.005371385253965855,1,0.005560421850532293,1,0.002733865519985557,1
1773074744600011008,1.004581689834595,1,0.08222885429859161,1,-0.0199956763535738,1,0.002935100346803665,1,0.003188249655067921,1,0.001797660603187978,1
1773074744610452992,1.0560542345047,1,0.0937085896730423,1,-0.03551918268203735,1,-0.002453746041283011,1,0.002119929762557149,1,0.002014187164604664,1
1773074744620795136,0.9475707411766052,1,0.05971573293209076,1,-0.1266316324472427,1,0.002135515213012695,1,0.001670832978561521,1,0.001902777119539678,1
1773074744631036416,0.8150676488876343,1,0.1161777824163437,1,0.007171417586505413,1,0.007948239333927631,1,-0.001520180725492537,1,0.002275845035910606,1
1773074744641177088,0.791887640953064,1,0.02882258594036102,1,-0.1263137757778168,1,0.003345001023262739,1,-0.005460535176098347,1,0.002161936368793249,1
1773074744651219712,0.8806478977203369,1,0.01519301440566778,1,-0.1399009823799133,1,0.002270038239657879,1,0.004301798995584249,1,0.001868792693130672,1
1773074744661164032,0.7699466347694397,1,-0.06308178603649139,1,-0.009218430146574974,1,-0.01854327879846096,1,0.001721995533443987,1,0.002176357200369239,1
1773074744671010048,0.5222514271736145,1,0.02560586482286453,1,-0.2029280215501785,1,-0.0118347704410553,1,-0.004714870825409889,1,0.0009867795743048191,1
1773074744680761600,0.6677030920982361,1,0.08018235117197037,1,-0.1581576019525528,1,0.002953801304101944,1,-0.006669753231108189,1,0.002883715089410543,1
1773074744690417664,0.5941629409790039,1,-0.01292196568101645,1,-0.1542902290821075,1,0.003928296267986298,1,-0.009185001254081726,1,0.003613348118960857,1
1773074744699979520,0.6156873106956482,1,-0.04782634600996971,1,-0.1000344231724739,1,0.01846824772655964,1,-0.01188125740736723,1,0.002535394392907619,1
1773074744709447680,0.6372026205062866,1,-0.05761905387043953,1,-0.08924075216054916,1,0.02585269697010517,1,-0.01254150364547968,1,0.003116084495559335,1
1773074744718823936,0.5644868612289429,1,-0.1272144764661789,1,0.016555055975914,1,0.01743548549711704,1,-0.01015978492796421,1,0.00276948744431138,1
1773074744728262656,0.5219214558601379,1,-0.0628039538860321,1,0.04371201246976852,1,0.003873847424983978,1,-0.01087773498147726,1,0.003277636831626296,1
1773074744738986496,0.5849617719650269,1,-0.1282846331596375,1,0.04751918837428093,1,-0.009301711805164814,1,-0.00991169735789299,1,0.003065657569095492,1
1773074744749605120,0.6211046576499939,1,-0.155055820941925,1,-0.03570493310689926,1,-0.01564962416887283,1,-0.01120298355817795,1,0.0018777996301651,1
1773074744760120064,0.6012806296348572,1,-0.02096736803650856,1,-0.03952835500240326,1,-0.0122769083827734,1,-0.01017145067453384,1,0.002146619139239192,1
1773074744770532096,0.5121381282806396,1,-0.08364641666412354,1,0.06718720495700836,1,-0.01288646645843983,1,-0.008120840415358543,1,0.00359501619823277,1
1773074744780855296,0.6006948947906494,1,-0.1277277618646622,1,0.114691399037838,1,-0.01491130515933037,1,-0.01271951664239168,1,0.001531057525426149,1
1773074744791079680,0.6609621047973633,1,-0.08925718814134598,1,-0.03217600286006927,1,-0.01478113140910864,1,-0.01336432062089443,1,0.001852244837209582,1
1773074744801202944,0.5238713622093201,1,-0.1284478455781937,1,0.1670045554637909,1,-0.008402957580983639,1,-0.01086522080004215,1,0.002358636585995555,1
1773074744811228160,0.6353457570075989,1,-0.01855594664812088,1,0.1788611114025116,1,-0.00834666658192873,1,-0.01527721714228392,1,0.002935827244073153,1
1773074744821155072,0.752686083316803,1,-0.1331780552864075,1,0.02696762233972549,1,-0.01641871407628059,1,-0.008188742212951183,1,0.00192192429676652,1
1773074744830984960,0.7246354818344116,1,-0.1048473045229912,1,0.1571169197559357,1,-0.01179563160985708,1,-0.008775440976023674,1,0.001846401020884514,1
1773074744840719360,0.6737522482872009,1,-0.00978192500770092,1,0.06943774968385696,1,-0.01274378038942814,1,-0.005696475505828857,1,0.002634164411574602,1
1773074744850360320,0.7743721008300781,1,-0.05891935154795647,1,0.1008974760770798,1,-0.01213406305760145,1,-0.001150428084656596,1,0.002844358561560512,1
1773074744859906816,0.8683741092681885,1,-0.0539008229970932,1,0.09576544165611267,1,-0.02300457656383514,1,0.002656602300703526,1,0.001897303387522697,1
1773074744869359616,0.8856812715530396,1,-0.02414579316973686,1,-0.01567895710468292,1,-0.02583982422947884,1,0.009520065039396286,1,0.0009519763407297432,1
1773074744878720512,0.8458145260810852,1,0.08858904242515564,1,0.1365525722503662,1,-0.02059800364077091,1,0.01397503633052111,1,0.001996147446334362,1
1773074744888292352,0.8046823143959045,1,0.06446850299835205,1,0.173054039478302,1,-0.02042359672486782,1,0.01455273106694221,1,0.001877743285149336,1
1773074744898980352,0.9568808078765869,1,0.0782821848988533,1,0.1182655394077301,1,-0.008652903139591217,1,0.01575667783617973,1,0.001777942525222898,1
1773074744909566720,0.9772892594337463,1,0.09462030977010727,1,0.228355273604393,1,-0.007216764613986015,1,0.01944386959075928,1,0.002067290479317307,1
1773074744920051456,0.9207696914672852,1,0.1462317854166031,1,0.2135773450136185,1,-0.00748520577326417,1,0.01691883057355881,1,0.002006824826821685,1
1773074744930434304,0.8880221843719482,1,0.1839054375886917,1,0.1455252021551132,1,0.001816014992073178,1,0.01385608501732349,1,0.002331016818061471,1
1773074744940715008,1.023959040641785,1,0.1551701873540878,1,0.0708414763212204,1,0.007412295322865248,1,0.01431209594011307,1,0.002394603099673986,1
1773074744950895616,1.006489992141724,1,0.1309345364570618,1,0.08401548117399216,1,0.005051265005022287,1,0.01905228570103645,1,0.0030242835637182,1
1773074744960976896,0.9074500799179077,1,0.1221604645252228,1,0.1700695306062698,1,0.008873597718775272,1,0.01518680807203054,1,0.002421310171484947,1
1773074744970960128,0.9112650752067566,1,0.1486271470785141,1,0.1183269247412682,1,0.003554570954293013,1,0.015383156016469,1,0.002585230860859156,1
1773074744980846592,0.9261471033096313,1,0.06035783886909485,1,0.162645623087883,1,0.00470292242243886,1,0.01520950067788363,1,0.002764408243820071,1
1773074744990635776,0.9301478266716003,1,0.07683662325143814,1,0.1950957775115967,1,-0.001555356429889798,1,0.01418354548513889,1,0.003031931584700942,1
1773074745000330496,0.8715919852256775,1,0.04212003201246262,1,0.1867484450340271,1,-0.001504008541814983,1,0.01145406626164913,1,0.002547544427216053,1
1773074745009943040,0.8802924752235413,1,0.01823024079203606,1,0.1331755518913269,1,0.007388322148472071,1,0.005803339648991823,1,0.002337934449315071,1
1773074745019463168,0.8416792154312134,1,0.04801946878433228,1,0.171115443110466,1,0.005233524367213249,1,0.002747904043644667,1,0.003428052412346005,1
1773074745028891648,0.7579888105392456,1,0.04228652268648148,1,0.02103585749864578,1,0.007051806896924973,1,0.001141522312536836,1,0.003380774753168225,1
1773074745038230016,0.8146737217903137,1,-0.03733925521373749,1,0.1018727570772171,1,0.01069159805774689,1,0.0002659797901287675,1,0.004553756676614285,1
1773074745048385024,0.7844614386558533,1,-0.0530131533741951,1,0.09975691139698029,1,-0.0009424837771803141,1,-0.001191625837236643,1,0.004116029944270849,1
1773074745059042560,0.6601729989051819,1,0.0005674697458744049,1,-0.002333983778953552,1,0.001077258610166609,1,0.000766368058975786,1,0.00418859114870429,1
1773074745069598720,0.7112920880317688,1,0.04031964391469955,1,0.1922775357961655,1,-0.0007681834395043552,1,0.0009367864113301039,1,0.00500134751200676,1
1773074745080051200,0.7474938631057739,1,-0.03360611200332642,1,0.1239017695188522,1,-0.009918585419654846,1,-0.0003127374220639467,1,0.005254415795207024,1
1773074745090401280,0.6162559986114502,1,0.08123748749494553,1,0.1561544090509415,1,-0.005810556933283806,1,0.0003123288624919951,1,0.004814666695892811,1
1773074745100651520,0.685678243637085,1,0.0433637797832489,1,0.1912675350904465,1,-0.0005187602364458144,1,-0.002828684402629733,1,0.004571495577692986,1
1773074745110801920,0.6550045013427734,1,0.02163093537092209,1,0.1105217933654785,1,0.003334966953843832,1,-0.009380140341818333,1,0.003550950903445482,1
1773074745120858880,0.5361223220825195,1,0.1605165898799896,1,0.02158167585730553,1,0.0106452414765954,1,-0.01161099411547184,1,0.004166886676102877,1
1773074745130819840,0.5158209204673767,1,-0.004303364083170891,1,0.07167807221412659,1,0.0238953810185194,1,-0.01500965747982264,1,0.006083640735596418,1
1773074745140684800,0.5945910811424255,1,-0.08840847760438919,1,-0.0706828311085701,1,0.02753353118896484,1,-0.01937866769731045,1,0.004075138829648495,1
1773074745150455808,0.6381798386573792,1,-0.04707898572087288,1,-0.1505618691444397,1,0.02634196355938911,1,-0.0128193823620677,1,0.003685240866616368,1
1773074745160132096,0.4485615789890289,1,-0.1520806849002838,1,-0.02830042131245136,1,0.009535702876746655,1,-0.01024886127561331,1,0.003917427733540535,1
1773074745169714688,0.4071376025676727,1,-0.1151144877076149,1,-0.1944986283779144,1,0.004202060401439667,1,-0.008637546561658382,1,0.002472518244758248,1
1773074745179205120,0.6293643712997437,1,-0.1991442441940308,1,-0.1727469861507416,1,-0.01016076281666756,1,0.001860882737673819,1,0.002477058675140142,1
1773074745188603392,0.4890431761741638,1,-0.1651340126991272,1,-0.1430647373199463,1,-0.0224023163318634,1,0.008039607666432858,1,0.001965973293408751,1
1773074745197910784,0.3338253200054169,1,-0.004988925065845251,1,0.05885960906744003,1,-0.02953016012907028,1,0.01034788321703672,1,0.002204822609201074,1
1773074745208504832,0.5728070735931396,1,-0.1076840311288834,1,-0.03176974877715111,1,-0.03001564741134644,1,0.009693439118564129,1,0.0008920980617403984,1
1773074745219150336,0.6345395445823669,1,-0.05355419963598251,1,-0.08477868884801865,1,-0.01713724248111248,1,0.01009930111467838,1,0.001380864414386451,1
1773074745229693184,0.4613854289054871,1,0.1001073271036148,1,0.181650385260582,1,-0.006540223956108093,1,0.01194023061543703,1,0.002633236814290285,1
1773074745240132352,0.5378832817077637,1,-0.002672752365469933,1,0.1530583798885345,1,0.002329261042177677,1,0.004832438658922911,1,0.003173101926222444,1
1773074745250470400,0.7200399041175842,1,0.05925805494189262,1,0.09553936868906021,1,-0.0006037125131115317,1,0.005176970735192299,1,0.0009238481288775802,1
1773074745260705280,0.6048572063446045,1,0.02920221351087093,1,0.1316794455051422,1,-0.004971884191036224,1,0.004252842627465725,1,0.002654714277014136,1
1773074745270842368,0.5093374848365784,1,0.0724034458398819,1,0.1247537136077881,1,0.001729392097331583,1,0.001745542278513312,1,0.002326526446267962,1
1773074745280881408,0.5848605036735535,1,0.063677579164505,1,0.1701790541410446,1,-0.001145934453234076,1,-0.002194613218307495,1,0.00186100578866899,1
1773074745290822400,0.6136298179626465,1,0.09073179960250854,1,0.06879092752933502,1,-0.01095614675432444,1,-0.001951481099240482,1,0.001209557405672967,1
1773074745300684288,0.6588476300239563,1,0.0873991847038269,1,0.04223105683922768,1,-0.006920660845935345,1,-0.000417292321799323,1,0.001606712234206498,1
1773074745310456320,0.5987169146537781,1,0.1250403076410294,1,0.1664924919605255,1,-0.002410842105746269,1,-0.00314081204123795,1,0.003626998979598284,1
1773074745320133376,0.5697312951087952,1,0.06290167570114136,1,0.1522594541311264,1,0.005145321600139141,1,-0.008067473769187927,1,0.002177550457417965,1
1773074745329716480,0.6982153654098511,1,0.009887883439660072,1,0.08341681212186813,1,0.01578053273260593,1,-0.0072575225494802,1,0.002155246445909142,1
1773074745339206144,0.6889081001281738,1,-0.01798572018742561,1,0.227989673614502,1,0.01462476886808872,1,-0.005587152671068907,1,0.001554632908664644,1
1773074745348601856,0.5461596846580505,1,-0.01167637016624212,1,0.223325327038765,1,0.004533190280199051,1,-0.007465414702892303,1,0.001489281537942588,1
1773074745358058752,0.6328234672546387,1,-0.1105552464723587,1,0.05299820378422737,1,0.01094006933271885,1,-0.008906031958758831,1,-0.0002243393682874739,1
1773074745368781312,0.5585002899169922,1,0.001319049624726176,1,0.07782887667417526,1,0.005567229818552732,1,-0.007703862618654966,1,0.0008071386255323887,1
1773074745379404032,0.576910138130188,1,-0.0400729775428772,1,0.03422904387116432,1,-0.007691642269492149,1,-0.004512352868914604,1,0.001024269033223391,1
1773074745389928448,0.7592684626579285,1,-0.0869697779417038,1,-0.172650158405304,1,-0.007638963870704174,1,-0.002873627934604883,1,0.0006884687463752925,1
1773074745400352512,0.5210099220275879,1,0.01854063756763935,1,-0.009384516626596451,1,-0.02166429162025452,1,0.00204089330509305,1,0.0009300169767811894,1
1773074745410676224,0.3780595064163208,1,0.1168032288551331,1,-0.07148882001638412,1,-0.01680134423077106,1,0.0003427487390581518,1,0.002418548101559281,1
1773074745420901632,0.6745259761810303,1,-0.005711635109037161,1,-0.09460501372814178,1,-0.01472264435142279,1,0.007184063084423542,1,0.002538313623517752,1
1773074745431027712,0.5666729211807251,1,0.05658594518899918,1,0.09184131026268005,1,-0.01662915758788586,1,0.0009012802038341761,1,0.003144224872812629,1
1773074745441055744,0.311101883649826,1,0.1013788878917694,1,0.002541224006563425,1,-0.008746827021241188,1,-0.002796125831082463,1,0.004217891488224268,1
1773074745451002368,0.5808030962944031,1,0.0606347844004631,1,-0.003793376963585615,1,0.005654706619679928,1,-0.006032131612300873,1,0.003068971913307905,1
1773074745460857856,0.4968833923339844,1,-0.02953960746526718,1,-0.1632956266403198,1,0.0001060214708559215,1,-0.007179008796811104,1,0.003381285350769758,1
1773074745470617856,0.2381023764610291,1,0.05668872594833374,1,-0.06875834614038467,1,0.00646867323666811,1,-0.007397035136818886,1,0.002716000657528639,1
1773074745480281600,0.3591839075088501,1,-0.04353472217917442,1,-0.1039003878831863,1,0.0006029630312696099,1,-0.008467133156955242,1,0.003241513855755329,1
1773074745489851648,0.4417840540409088,1,-0.1267919391393661,1,-0.2574712932109833,1,-0.0148615138605237,1,-0.00349857471883297,1,0.000962547492235899,1
1773074745499328000,0.2292777746915817,1,-0.02965748496353626,1,-0.0847703143954277,1,-0.02384530566632748,1,0.001368222059682012,1,0.001021336182020605,1
1773074745508713216,0.170291855931282,1,-0.144483208656311,1,0.07479135692119598,1,-0.02227900177240372,1,-0.003710128832608461,1,0.001470176037400961,1
1773074745518455040,0.2995570003986359,1,-0.01874838955700397,1,-0.09909463673830032,1,-0.02408420108258724,1,-0.002467813435941935,1,-0.0002799107460305095,1
1773074745529143808,0.1784804165363312,1,-0.09233592450618744,1,0.1353065669536591,1,-0.02605181373655796,1,-0.001382129732519388,1,0.001446083304472268,1
1773074745539730176,0.07509604096412659,1,-0.08792892843484879,1,0.1912997663021088,1,-0.01898768357932568,1,-0.01071546226739883,1,-0.000451793777756393,1
1773074745550213376,0.2321088314056396,1,0.01637084037065506,1,-0.01899073272943497,1,-0.0198751799762249,1,-0.009590198285877705,1,1.634369255043566e-06,1
1773074745560593920,0.1448210775852203,1,-0.07343670725822449,1,0.09217347204685211,1,-0.01458016689866781,1,-0.007449899800121784,1,0.001577859162352979,1
1773074745570874624,-0.007229862734675407,1,-0.05112083256244659,1,0.1468658447265625,1,-0.008227789774537086,1,-0.01080978568643332,1,0.0002015728532569483,1
1773074745581053952,0.1676569283008575,1,0.05822703987360001,1,0.04436885192990303,1,-0.009271923452615738,1,-0.004032590426504612,1,0.001619530376046896,1
1773074745591151872,0.08938673138618469,1,-0.08822391927242279,1,0.2602384090423584,1,-0.01864406652748585,1,-0.000220552014070563,1,0.002897863974794745,1
1773074745601154560,-0.08515731990337372,1,-0.01168557815253735,1,0.3039092421531677,1,-0.01767579279839993,1,-0.002034194068983197,1,0.001457871403545141,1
1773074745611062016,0.08223694562911987,1,0.03012881800532341,1,0.2526191771030426,1,-0.0161499697715044,1,1.270229404326528e-05,1,0.002698779571801424,1
1773074745620875008,-0.04679932445287704,1,0.01280047558248043,1,0.2852422893047333,1,-0.01834755204617977,1,-0.0007180371321737766,1,0.003448445582762361,1
1773074745630594048,-0.124310776591301,1,0.1131139621138573,1,0.22712442278862,1,-0.01457146648317575,1,-0.004000843968242407,1,0.002971327863633633,1
1773074745640219136,0.05459637939929962,1,0.02658773027360439,1,0.08423250913619995,1,-0.008039096370339394,1,-0.00577673502266407,1,0.00458555668592453,1
1773074745649753088,-0.06690745055675507,1,-0.01359756290912628,1,-0.004444309510290623,1,0.002816816093400121,1,-0.006939772050827742,1,0.002994326874613762,1
1773074745659197952,-0.0999504029750824,1,0.1727201640605927,1,0.0222458615899086,1,0.004226712975651026,1,-0.005827908404171467,1,0.003581698052585125,1
1773074745668551936,-0.001468898728489876,1,0.01781300641596317,1,-0.1024050340056419,1,-0.004448097199201584,1,-0.002457291819155216,1,0.004686472471803427,1
1773074745678710272,-0.07013037800788879,1,0.08417533338069916,1,-0.155525267124176,1,-0.006858834996819496,1,0.002716701710596681,1,0.003515012329444289,1
1773074745689365504,-0.1404929459095001,1,0.1236703023314476,1,-0.03723791986703873,1,-0.006215256173163652,1,0.005716863088309765,1,0.00394036527723074,1
1773074745699917824,-0.06241348013281822,1,0.1887737810611725,1,-0.1495826244354248,1,-0.008043312467634678,1,0.004917874932289124,1,0.003722361056134105,1
1773074745710366208,-0.09475675225257874,1,0.2368122786283493,1,-0.1595553606748581,1,-0.009324241429567337,1,0.008614738471806049,1,0.004889799747616053,1
1773074745720713728,-0.03230001404881477,1,0.2450888454914093,1,-0.1328298151493073,1,0.002182880882173777,1,0.006307960953563452,1,0.003788408124819398,1
1773074745730959872,-0.01332648657262325,1,0.2210046648979187,1,-0.168523758649826,1,0.01981371827423573,1,0.002895217388868332,1,0.004303916357457638,1
1773074745741107456,-0.06505109369754791,1,0.2885774672031403,1,-0.09021539986133575,1,0.02986998297274113,1,-0.001728572533465922,1,0.00238925707526505,1
1773074745751153664,0.0748821347951889,1,0.2614265382289886,1,-0.1669551879167557,1,0.0316985547542572,1,0.0009387116879224777,1,0.004216027911752462,1
1773074745761114368,0.1408717185258865,1,0.03859354928135872,1,-0.06637619435787201,1,0.03539358079433441,1,-0.001184978056699038,1,0.003840210847556591,1
1773074745770980096,-0.09100274741649628,1,0.1084730699658394,1,0.006067280657589436,1,0.03164751455187798,1,-0.002553815953433514,1,0.003176304744556546,1
1773074745780750592,-0.05934125930070877,1,0.1324204206466675,1,0.1394949704408646,1,0.02100651524960995,1,-0.002275548642501235,1,0.002340058097615838,1
1773074745790427648,0.1792939007282257,1,-0.05594892427325249,1,0.00452776625752449,1,0.00809298362582922,1,-0.001908911392092705,1,0.003189339535310864,1
1773074745800011520,-0.02019036561250687,1,-0.007219510152935982,1,0.1507142037153244,1,0.001281853416003287,1,9.606667299522087e-05,1,0.001890151877887547,1
1773074745809504000,-0.0556357279419899,1,0.07412876933813095,1,0.3066892921924591,1,0.003591541666537523,1,-0.001993636600673199,1,0.00254703126847744,1
1773074745818907136,0.1925830394029617,1,-0.03075559809803963,1,0.2627930343151093,1,0.001836338080465794,1,-0.007363465614616871,1,0.003296517534181476,1
1773074745828220160,0.07892128825187683,1,-0.04215523600578308,1,0.227052167057991,1,-0.002348590409383178,1,-0.00900931004434824,1,0.001606824691407382,1
1773074745838813440,0.06893211603164673,1,0.02041255123913288,1,0.2838497161865234,1,0.02148514427244663,1,-0.01335302367806435,1,0.003663318464532495,1
1773074745849460736,0.1144261956214905,1,-0.05109855160117149,1,0.2816851139068604,1,0.01701253280043602,1,-0.01610367372632027,1,0.004277900326997042,1
1773074745860008192,-0.02594615519046783,1,-0.04020391032099724,1,0.1701111197471619,1,0.009777299128472805,1,-0.0170897226780653,1,0.002526624128222466,1
1773074745870452480,-0.009846986271440983,1,-0.1130882650613785,1,0.1353352218866348,1,0.01375603303313255,1,-0.01533071137964725,1,0.00330957886762917,1
1773074745880794368,0.02819188684225082,1,-0.05802863091230392,1,0.04667405411601067,1,0.0114494301378727,1,-0.01434327196329832,1,0.00409973319619894,1
1773074745891035904,-0.0372760109603405,1,0.007188241463154554,1,0.06564661860466003,1,-0.001847261213697493,1,-0.009359093382954597,1,0.00415125722065568,1
1773074745901176576,-0.02218008600175381,1,-0.06595870852470398,1,-0.02173025906085968,1,-0.0005206739297136664,1,-0.008874241262674332,1,0.004188071470707655,1
1773074745911219456,0.06497913599014282,1,-0.02805998921394348,1,-0.08347959071397781,1,0.009952240623533726,1,-0.005415491294115782,1,0.002964925952255726,1
1773074745921177856,0.03713888302445412,1,0.05479719489812851,1,0.0414409376680851,1,0.005997892003506422,1,-0.002186802448704839,1,0.004387141671031713,1
1773074745931047936,-0.05250789597630501,1,-0.06521052867174149,1,0.02723453193902969,1,0.00881592370569706,1,-0.004549222998321056,1,0.004434701055288315,1
1773074745940824576,-0.08153785020112991,1,-0.01025919616222382,1,-0.03664941713213921,1,0.01178818196058273,1,-0.004015642218291759,1,0.001865411992184818,1
1773074745950508544,0.0298028290271759,1,-0.03377906233072281,1,-0.07010523974895477,1,0.009883688762784004,1,-0.003811222268268466,1,0.002536886371672153,1
1773074745960100352,-0.1345271915197372,1,-0.05676138401031494,1,-0.2010233253240585,1,0.00899336114525795,1,-0.004148426465690136,1,0.0033634880091995,1
1773074745969600000,-0.2007482498884201,1,-0.02206761203706264,1,-0.1733640134334564,1,0.007879641838371754,1,-0.0008875130442902446,1,0.002653827192261815,1
1773074745979009280,-0.02392508089542389,1,-0.1383306235074997,1,-0.2989340722560883,1,0.008568067103624344,1,0.0001871234126156196,1,0.00322494120337069,1
1773074745988479744,-0.06731472164392471,1,-0.1346450746059418,1,-0.3113920986652374,1,-0.0007763960747979581,1,0.01014033425599337,1,0.002875203732401133,1
1773074745999195904,-0.2502143979072571,1,-0.04518220573663712,1,-0.0384291484951973,1,-0.01071546785533428,1,0.01620777696371078,1,0.003411018755286932,1
1773074746009811200,-0.1082061156630516,1,-0.1683695316314697,1,-0.008071983233094215,1,-0.02205605804920197,1,0.01519207376986742,1,0.004199645016342402,1
1773074746020324864,-0.06381342560052872,1,-0.09447932243347168,1,-0.1597060859203339,1,-0.02931898646056652,1,0.01861888542771339,1,0.001556947827339172,1
1773074746030739968,-0.2191758751869202,1,-0.0160998497158289,1,0.0662330836057663,1,-0.02401270344853401,1,0.02110141701996326,1,0.00302012893371284,1
1773074746041056256,-0.1322619020938873,1,-0.05062709376215935,1,0.0527900867164135,1,-0.01613294705748558,1,0.01481976173818111,1,0.00280564883723855,1
1773074746051274752,-0.02626616507768631,1,0.01309588178992271,1,-0.1024390310049057,1,-0.01069663371890783,1,0.01764237694442272,1,0.002444272628054023,1
1773074746061396224,-0.2214938402175903,1,-9.385962039232254e-05,1,0.1615953594446182,1,-0.01040298119187355,1,0.01803229935467243,1,0.003250025445595384,1
1773074746071421184,-0.1559818983078003,1,-0.06039217486977577,1,0.1304841041564941,1,0.00222363555803895,1,0.01282725017517805,1,0.003147789742797613,1
1773074746081350400,0.05084148049354553,1,0.04016363993287086,1,0.09852487593889236,1,-0.005522137507796288,1,0.01543003786355257,1,0.003141277469694614,1
1773074746091184128,-0.176379919052124,1,-0.02357724122703075,1,0.2939287126064301,1,-0.01548662409186363,1,0.01240044459700584,1,0.004124662838876247,1
1773074746100926720,-0.152290478348732,1,-0.003607122227549553,1,0.1775485277175903,1,-0.008348668925464153,1,0.003437586594372988,1,0.002421857323497534,1
1773074746110575104,0.2056251764297485,1,0.118559718132019,1,-0.04853375256061554,1,-0.01543154660612345,1,0.009282197803258896,1,0.002624132670462132,1
1773074746120137728,-0.1617516130208969,1,-0.06853538751602173,1,0.2336136698722839,1,-0.01701639406383038,1,0.004466190002858639,1,0.002559963846579194,1
1773074746129616640,-0.1976145952939987,1,0.1615378856658936,1,0.1321304440498352,1,-0.005474067758768797,1,-0.0021801742259413,1,0.0002502754214219749,1
1773074746139003648,0.1949200332164764,1,0.1035797744989395,1,-0.0128074437379837,1,-0.00832061842083931,1,0.004950578324496746,1,0.002892056247219443,1
1773074746148746240,-0.01646751910448074,1,-0.02345165237784386,1,0.2571235299110413,1,-0.01202263496816158,1,0.0009203595691360533,1,0.00143096293322742,1
1773074746159429376,-0.1137071847915649,1,0.2104216814041138,1,0.2188391387462616,1,-0.00326948962174356,1,-0.005786370020359755,1,0.001346979988738894,1
1773074746170010624,0.1950184851884842,1,0.0959896445274353,1,0.06491595506668091,1,0.002356350421905518,1,-0.004334051627665758,1,0.0008558845729567111,1
1773074746180488704,0.09911905229091644,1,0.1051612794399261,1,0.0871938169002533,1,0.007218190934509039,1,-0.009886194951832294,1,0.002066384768113494,1
1773074746190864640,0.009929358959197998,1,0.1881502568721771,1,0.0429040864109993,1,0.01217739842832088,1,-0.008487137965857983,1,0.002856614300981164,1
1773074746201144064,0.1943077594041824,1,-0.02215297892689705,1,-0.0008629183284938335,1,0.02195794507861137,1,-0.01145807467401028,1,0.003548038192093372,1
1773074746211325440,0.1514326632022858,1,0.0402732715010643,1,-0.04283131286501884,1,0.01502344943583012,1,-0.01051752269268036,1,0.002127188257873058,1
1773074746221407232,0.1067551523447037,1,0.07520700246095657,1,-0.04711125046014786,1,0.01500485837459564,1,-0.006091082002967596,1,0.005493845324963331,1
1773074746231390976,0.2235380411148071,1,-0.01549308933317661,1,0.06582558155059814,1,0.0003042977186851203,1,0.0003964732750318944,1,0.004778275731950998,1
1773074746241278464,0.2117518037557602,1,-0.06231476366519928,1,-0.02963696792721748,1,0.002710620174184442,1,-0.0003229973372071981,1,0.005398690700531006,1
1773074746251068416,0.2329559624195099,1,-0.02796934358775616,1,0.1057332754135132,1,0.003098478307947516,1,0.004444945603609085,1,0.00525636738166213,1
1773074746260763392,0.2253673374652863,1,-0.06020448729395866,1,0.1468852162361145,1,-0.001114108017645776,1,0.004025045316666365,1,0.005065194796770811,1
1773074746270365184,0.2881475985050201,1,-0.108723521232605,1,0.09952352941036224,1,-0.004995108582079411,1,0.003410563571378589,1,0.00582329323515296,1
1773074746279873024,0.2444649934768677,1,-0.1526836305856705,1,0.07278980314731598,1,-0.0006269650766626,1,0.001176446909084916,1,0.004106484353542328,1
1773074746289288192,0.2229772359132767,1,-0.1206682994961739,1,0.008067554794251919,1,-0.002631642855703831,1,0.0001625628210604191,1,0.004103308543562889,1
1773074746298611968,0.3028350472450256,1,-0.1235620900988579,1,-0.1343608200550079,1,-0.006082003004848957,1,0.003158967709168792,1,0.003499715123325586,1
1773074746308758272,0.3414617478847504,1,-0.1735736727714539,1,-0.1325218677520752,1,-0.0163542740046978,1,0.009894190356135368,1,0.004159869626164436,1
1773074746319417088,0.08886543661355972,1,-0.1313137263059616,1,0.02508986741304398,1,-0.02475307881832123,1,0.01261699106544256,1,0.003424512222409248,1
1773074746329976064,0.1222275793552399,1,-0.034571573138237,1,0.02076867781579494,1,-0.03535116836428642,1,0.01413974538445473,1,0.002636274788528681,1
1773074746340432384,0.3439876437187195,1,-0.07904144376516342,1,-0.07485310733318329,1,-0.04223589226603508,1,0.01553941238671541,1,0.002983134938403964,1
1773074746350786304,0.1725725382566452,1,0.1071821451187134,1,-0.006715535186231136,1,-0.04106057062745094,1,0.01334040798246861,1,0.002076496137306094,1
1773074746361038848,0.06110143661499023,1,0.1824988275766373,1,0.01208861544728279,1,-0.02984992600977421,1,0.007763576228171587,1,0.002098230412229896,1
1773074746371198208,0.2877518236637115,1,0.241496354341507,1,-0.16203473508358,1,-0.01128578651696444,1,0.0001666971802478656,1,0.002394059207290411,1
1773074746381270272,0.2133038491010666,1,0.2579810321331024,1,-0.2300489395856857,1,-0.007902547717094421,1,0.001403379254043102,1,0.001658200402744114,1
1773074746391247104,-0.002979546785354614,1,0.2143696248531342,1,-0.1108779981732368,1,0.01803182996809483,1,-0.004981036763638258,1,0.001976567786186934,1
1773074746401130240,0.03502343967556953,1,0.2972811162471771,1,-0.1528653353452682,1,0.0217994824051857,1,-0.009763679467141628,1,0.001206213957630098,1
1773074746410921984,0.09512621909379959,1,0.2559031248092651,1,-0.2750729918479919,1,0.005334021523594856,1,-0.006633320357650518,1,0.0008005232084542513,1
1773074746420620544,-0.02715641260147095,1,0.2097458392381668,1,-0.2826704978942871,1,0.01006946340203285,1,-0.004391723778098822,1,0.001116334926337004,1
1773074746430226944,-0.01335222460329533,1,0.2303110063076019,1,-0.1568615138530731,1,0.01504155807197094,1,-0.003659693989902735,1,0.0001239595148945227,1
1773074746439749120,0.05902112275362015,1,0.2845431864261627,1,-0.1987007856369019,1,0.01161475479602814,1,-0.003913333173841238,1,0.0003019831783603877,1
1773074746449180928,0.02247919701039791,1,0.199889212846756,1,-0.1782304346561432,1,0.01494115218520164,1,-0.001539030461572111,1,-8.301773777930066e-05,1
1773074746458522880,-0.02040232345461845,1,0.1595785617828369,1,-0.03921126946806908,1,0.02456086128950119,1,-0.002837801584973931,1,-0.0004811527323909104,1
1773074746469113856,0.04987173900008202,1,0.1767571270465851,1,-0.07611879706382751,1,0.03231116756796837,1,-0.005832222755998373,1,0.0007847941596992314,1
1773074746479750912,-0.08800425380468369,1,0.09470972418785095,1,-0.05015186592936516,1,0.0269299577921629,1,-0.004652427509427071,1,0.001265371451154351,1
1773074746490285312,0.004514535889029503,1,0.01090352516621351,1,-0.08041121065616608,1,0.03002875298261642,1,-0.003749565919861197,1,0.0003629133279900998,1
1773074746500716288,0.1264227032661438,1,-0.05198956653475761,1,-0.159828782081604,1,0.02817919105291367,1,0.001191498246043921,1,0.001300375442951918,1
1773074746511047680,-0.1155672371387482,1,-0.02029525116086006,1,0.06125799566507339,1,0.01560489926487207,1,0.01084201596677303,1,0.002684566890820861,1
1773074746521281536,-0.001853682100772858,1,-0.0948767364025116,1,0.1770196855068207,1,0.008887771517038345,1,0.01469242107123137,1,0.003566058585420251,1
1773074746531416064,0.193945050239563,1,-0.2238800525665283,1,0.1537914127111435,1,-0.001022333512082696,1,0.02351189032196999,1,0.00423298217356205,1
1773074746541451776,-0.01842670142650604,1,-0.01217737141996622,1,0.5050323009490967,1,-0.009599817916750908,1,0.02867358736693859,1,0.005242286249995232,1
1773074746551390208,0.01167674176394939,1,-0.1097274348139763,1,0.6612977385520935,1,-0.01094772387295961,1,0.02331517077982426,1,0.006669983267784119,1
1773074746561231872,0.2809198498725891,1,-0.08157826215028763,1,0.386976420879364,1,-0.004206413403153419,1,0.01570210047066212,1,0.006034614518284798,1
1773074746570977280,0.07813959568738937,1,0.002868848852813244,1,0.4284533262252808,1,0.008788633160293102,1,0.01467230636626482,1,0.007114227395504713,1
1773074746580628992,0.07904979586601257,1,-0.004395795986056328,1,0.463554322719574,1,0.02841661497950554,1,0.002572355791926384,1,0.008640099316835403,1
1773074746590187520,0.2667793929576874,1,-0.01705403439700603,1,0.06697016954421997,1,0.03239612281322479,1,0.00404291832819581,1,0.007568089291453362,1
1773074746599652096,0.08350344747304916,1,-0.05533606559038162,1,0.3300408124923706,1,0.02614652365446091,1,0.003631931962445378,1,0.008531165309250355,1
1773074746609023744,0.03732932358980179,1,-0.0178502295166254,1,0.1620587706565857,1,0.02101846225559711,1,0.002671611728146672,1,0.008212615735828876,1
1773074746618457856,0.2273740917444229,1,-0.06036106497049332,1,0.1259592473506927,1,0.01080101635307074,1,0.009239822626113892,1,0.008574103005230427,1
1773074746629173248,0.1070140600204468,1,0.02451472729444504,1,0.2799933552742004,1,-0.009029464796185493,1,0.006472161039710045,1,0.00710013834759593,1
1773074746639785984,0.06506551802158356,1,-0.03228286281228065,1,0.08356866240501404,1,-0.007074164226651192,1,-0.0006559003377333283,1,0.005975967273116112,1
1773074746650296064,0.3190898299217224,1,0.1345000267028809,1,-0.09481574594974518,1,0.008859295397996902,1,0.001422945642843843,1,0.004142944701015949,1
1773074746660704512,0.1672275960445404,1,0.04624542593955994,1,0.09982649981975555,1,0.008710207417607307,1,-0.0007577735232189298,1,0.004878900479525328,1
1773074746671013632,0.07798773795366287,1,0.07465028762817383,1,-0.08221179246902466,1,0.02475297823548317,1,-0.007419073954224586,1,0.002836593193933368,1
1773074746681224960,0.3070565164089203,1,0.04336929321289062,1,-0.09748626500368118,1,0.03176898509263992,1,-0.001652992912568152,1,0.003083957126364112,1
1773074746691346944,0.1428321748971939,1,-0.01375314965844154,1,0.03877522423863411,1,0.02498219348490238,1,-0.003498813603073359,1,0.003100838977843523,1
1773074746701369344,0.1071372479200363,1,0.02989870868623257,1,0.005382380913943052,1,0.0203042309731245,1,-0.006261281669139862,1,0.002200689632445574,1
1773074746711294208,0.2073371261358261,1,0.02239393070340157,1,-0.1094193682074547,1,0.01152679231017828,1,-0.00490574212744832,1,0.00257559516467154,1
1773074746721123072,0.191659227013588,1,-0.05592634156346321,1,-0.1629268378019333,1,0.00911127682775259,1,-0.007786219008266926,1,0.002890910254791379,1
1773074746730855168,0.1935048252344131,1,-0.009492425248026848,1,-0.2662806808948517,1,0.01172037236392498,1,-0.01009555999189615,1,0.003179585793986917,1
1773074746740493056,0.2098678350448608,1,-0.03858577832579613,1,-0.2237363010644913,1,0.01508622709661722,1,-0.008301615715026855,1,0.0030022282153368,1
1773074746750038528,0.2066371291875839,1,-0.1922402530908585,1,-0.2095475047826767,1,0.01185663789510727,1,-0.01374080404639244,1,0.003514013718813658,1
1773074746759491328,0.2083223462104797,1,-0.03545821830630302,1,-0.2790870666503906,1,0.006366115994751453,1,-0.006707802414894104,1,0.003446562681347132,1
1773074746768851456,0.1667003333568573,1,-0.2410210520029068,1,-0.04031025618314743,1,-0.001347373123280704,1,-0.003410842036828399,1,0.005838414188474417,1
1773074746778574848,0.1612387597560883,1,-0.2483477741479874,1,-0.01415318809449673,1,-0.01057952642440796,1,-0.009183603338897228,1,0.003331966465339065,1
1773074746789258752,0.1595623642206192,1,-0.1991456598043442,1,-0.2261893898248672,1,-0.01057872083038092,1,-0.006468545645475388,1,0.003593187080696225,1
1773074746799838976,0.1750959455966949,1,-0.204657182097435,1,0.02213365957140923,1,-0.01977802813053131,1,-0.005084862932562828,1,0.003493384923785925,1
1773074746810318592,0.09827978909015656,1,-0.2761943638324738,1,-0.2228228151798248,1,-0.01935104839503765,1,-0.01081628818064928,1,0.003231164067983627,1
1773074746820695808,0.1146345436573029,1,-0.1421458423137665,1,-0.2166030704975128,1,-0.01806873269379139,1,-0.002647249028086662,1,0.001788377878256142,1
1773074746830972160,0.192128449678421,1,-0.1775206625461578,1,-0.1084167808294296,1,-0.02583375200629234,1,0.000694017973728478,1,0.002041341969743371,1
1773074746841148672,0.2279880791902542,1,-0.1645722985267639,1,-0.2098082154989243,1,-0.03123090974986553,1,0.007270194590091705,1,0.002784882904961705,1
1773074746851225088,-0.04287371039390564,1,-0.02032437920570374,1,0.1501523554325104,1,-0.03757995739579201,1,0.01857011951506138,1,0.001236333861015737,1
1773074746861203712,0.09275065362453461,1,0.01709693297743797,1,0.3152398467063904,1,-0.04201822727918625,1,0.01626369170844555,1,0.002075981348752975,1
1773074746871087104,0.2539734244346619,1,-0.02085168287158012,1,0.1363456100225449,1,-0.04649021476507187,1,0.01722901314496994,1,0.0008936857338994741,1
1773074746880872960,0.06298594176769257,1,0.2756425142288208,1,0.3579923808574677,1,-0.03561674430966377,1,0.01817391067743301,1,0.001299562747590244,1
1773074746890564096,0.06290246546268463,1,0.2715929746627808,1,0.460442990064621,1,-0.02489987201988697,1,0.008887151256203651,1,0.001638164627365768,1
1773074746900170752,0.2376257032155991,1,0.2880597412586212,1,0.1480686813592911,1,-0.004207901656627655,1,0.0006785511504858732,1,0.001663395785726607,1
1773074746909685248,0.202208548784256,1,0.3858431577682495,1,0.2014566361904144,1,0.009997090324759483,1,0.002932393457740545,1,0.002041556406766176,1
1773074746919107072,-0.02276663109660149,1,0.2231683284044266,1,0.3545392453670502,1,0.02795971930027008,1,-0.004920220002532005,1,0.003868062747642398,1
1773074746928437248,0.09553505480289459,1,0.2529816925525665,1,0.250819981098175,1,0.03197915107011795,1,-0.01111928466707468,1,0.002307124901562929,1
1773074746938585344,0.1757263094186783,1,0.1607499420642853,1,0.1203193590044975,1,0.01274621859192848,1,-0.007376968394964933,1,0.003421596717089415,1
1773074746949239808,-0.08210320770740509,1,0.05557405576109886,1,0.2046954780817032,1,0.011123051866889,1,-0.008657039143145084,1,0.002251857193186879,1
1773074746959790592,-0.002783508971333504,1,0.09472222626209259,1,0.1335232853889465,1,0.01052500959485769,1,-0.01130001153796911,1,0.001778259873390198,1
1773074746970237952,0.1831107288599014,1,-0.02077266946434975,1,0.0163628738373518,1,0.003440150292590261,1,-0.009761327877640724,1,0.001580112148076296,1
1773074746980583424,-0.03469296917319298,1,-0.03793305158615112,1,0.07981928437948227,1,-0.006798371206969023,1,-0.003731864504516125,1,0.0001691903889877722,1
1773074746990831616,0.01660728640854359,1,-0.08006627857685089,1,0.1757365465164185,1,0.003652096493169665,1,-0.007629614789038897,1,0.001411778386682272,1
1773074747000982016,0.05299993604421616,1,-0.06217439472675323,1,0.09421773254871368,1,-0.0151915056630969,1,-0.007054348941892385,1,0.001394600258208811,1
1773074747011035136,-0.008513830602169037,1,-0.1886601746082306,1,0.02307247184216976,1,-0.009436884894967079,1,-0.006383384577929974,1,0.000802166061475873,1
1773074747020988672,0.1065310835838318,1,-0.1412539035081863,1,0.0184458177536726,1,-0.009572736918926239,1,-0.008840098977088928,1,0.0004491360741667449,1
1773074747030845184,-0.02727151662111282,1,0.00138399563729763,1,-0.1288288831710815,1,-0.01644312776625156,1,-0.001958028879016638,1,0.002348536159843206,1
1773074747040605696,0.01924420334398746,1,-0.09363629668951035,1,-0.01514992956072092,1,-0.0148960268124938,1,0.0005274622235447168,1,0.002360722748562694,1
1773074747050271232,0.08788152784109116,1,-0.08973019570112228,1,-0.186309888958931,1,-0.01802398264408112,1,-5.052001506555825e-05,1,0.002651153830811381,1
1773074747059843072,-0.07292799651622772,1,0.1543952226638794,1,-0.1465894728899002,1,-0.01207641325891018,1,0.00611122464761138,1,0.003666427452117205,1
1773074747069322240,0.03156431391835213,1,0.0996234267950058,1,-0.01485658716410398,1,-0.01721153035759926,1,0.00637800432741642,1,0.007241130340844393,1
1773074747078708736,0.09549817442893982,1,0.05085096508264542,1,-0.2795901894569397,1,-0.0111573152244091,1,0.002433544956147671,1,0.004817614797502756,1
1773074747088002816,0.07664216309785843,1,0.2050746977329254,1,-0.1878381967544556,1,0.0005188171053305268,1,0.005160084459930658,1,0.005664384923875332,1
1773074747098592768,0.04165910184383392,1,0.1301484405994415,1,-0.1933194696903229,1,0.01265059970319271,1,0.001942906528711319,1,0.006784799508750439,1
1773074747109233920,0.1254702508449554,1,0.1836127638816833,1,-0.3047456741333008,1,0.01660632528364658,1,0.006651508621871471,1,0.005269185174256563,1
1773074747119773184,0.0915626585483551,1,0.0424216091632843,1,-0.05099296942353249,1,0.01773710362613201,1,0.005365177057683468,1,0.005909280385822058,1
1773074747130211584,0.02751024812459946,1,0.05739874020218849,1,-0.2334771305322647,1,0.0160458330065012,1,0.004521438386291265,1,0.00401664711534977,1
1773074747140548352,0.1006740555167198,1,0.06519950181245804,1,-0.09085039794445038,1,0.01062116026878357,1,0.01065061427652836,1,0.003470724215731025,1
1773074747150783488,0.06457159668207169,1,0.01357771828770638,1,-0.01423545554280281,1,-0.007354622706770897,1,0.004353389143943787,1,0.001565153826959431,1
1773074747160919552,0.127370148897171,1,0.01655228435993195,1,-0.2832267284393311,1,-0.006625213194638491,1,0.005032977554947138,1,0.0001364637719234452,1
1773074747170957312,0.1231577917933464,1,0.07452401518821716,1,-0.06369136273860931,1,0.000649494060780853,1,0.005146942567080259,1,-0.0006936629069969058,1
1773074747180897280,0.0972280278801918,1,0.06804448366165161,1,-0.08824057132005692,1,-0.009621215052902699,1,0.002323196735233068,1,-0.0003783539577852935,1
1773074747190742784,0.1770645678043365,1,0.0529264360666275,1,-0.04185312241315842,1,-0.003848719643428922,1,0.0005990328500047326,1,-0.0006908595096319914,1
1773074747200504064,0.1249463558197021,1,0.03421091288328171,1,0.07538188993930817,1,-0.00522523233667016,1,-0.0008472522022202611,1,-0.0009526461362838745,1
1773074747210170368,0.07732534408569336,1,0.1316097974777222,1,0.1517122238874435,1,-0.001586586004123092,1,-0.005917802918702364,1,0.0001028386759571731,1
1773074747219742464,0.1081093326210976,1,0.1840313673019409,1,0.2129755914211273,1,-3.075756831094623e-05,1,-0.009500313550233841,1,0.001386853982694447,1
1773074747229222144,0.1528354287147522,1,0.05048094689846039,1,0.1365087181329727,1,-0.0002915162185672671,1,-0.01817566342651844,1,0.001732297358103096,1
1773074747238608896,0.1405922174453735,1,0.08817176520824432,1,0.01112600695341825,1,0.02003115601837635,1,-0.02347089536488056,1,0.00187177921179682,1
1773074747248056320,0.111870564520359,1,0.06885113567113876,1,0.09041783213615417,1,0.0301092341542244,1,-0.02345985174179077,1,0.002089871792122722,1
1773074747258774272,0.1104258000850677,1,0.00793861597776413,1,0.06863115727901459,1,0.02493719384074211,1,-0.02513722330331802,1,0.003584943013265729,1
1773074747269389824,0.08667588979005814,1,-0.05243802070617676,1,0.0765836089849472,1,0.01847685128450394,1,-0.01898260973393917,1,0.002899398794397712,1
1773074747279905024,0.09116928279399872,1,-0.1786808967590332,1,0.2018611282110214,1,0.01224907767027617,1,-0.01613685302436352,1,0.002966575790196657,1
1773074747290318336,0.08196186274290085,1,-0.120930016040802,1,0.2559394538402557,1,-0.002495859051123261,1,-0.01641527190804482,1,0.001844335696659982,1
1773074747300629504,0.04268092662096024,1,-0.1841266304254532,1,0.1524334698915482,1,-0.01096285693347454,1,-0.01270773075520992,1,0.001606008387170732,1
1773074747310841344,0.1217910498380661,1,-0.103262260556221,1,0.1872710585594177,1,-0.01092679519206285,1,-0.01504498161375523,1,0.0009174252627417445,1
1773074747320953600,-0.0167999267578125,1,-0.1512237638235092,1,-0.02729307115077972,1,-0.01070841867476702,1,-0.01462196372449398,1,0.0007619457319378853,1
1773074747330968576,0.02130720391869545,1,-0.04122068732976913,1,-0.02279315516352654,1,0.001247712410986423,1,-0.01309476047754288,1,-0.0001509948197053745,1
1773074747340894208,0.1642332673072815,1,-0.0710248127579689,1,-0.1890148371458054,1,-0.004408746492117643,1,-0.005420961417257786,1,0.001233509043231606,1
1773074747350723072,-0.03941789269447327,1,0.01840640604496002,1,-0.07553931325674057,1,-0.008813135325908661,1,0.002840714761987329,1,0.00254401657730341,1
1773074747360456448,-0.1081560105085373,1,0.07033070176839828,1,0.0946534276008606,1,-0.01434674486517906,1,0.008522028103470802,1,0.003138592466711998,1
1773074747370095360,0.1863845139741898,1,-0.01158043555915356,1,-0.01376524660736322,1,-0.01396229770034552,1,0.0125680910423398,1,0.003529172390699387,1
1773074747379639040,0.01115251332521439,1,0.1465764939785004,1,0.1391085982322693,1,-0.01901507191359997,1,0.0170822162181139,1,0.002408903790637851,1
1773074747389089792,-0.1600955277681351,1,0.1864197105169296,1,0.317295104265213,1,-0.01169260963797569,1,0.01467305328696966,1,0.004905272275209427,1
