Time,inertial-6286.188861:estLinearAccelX,inertial-6286.188861:estLinearAccelX:valid,inertial-6286.188861:estLinearAccelY,inertial-6286.188861:estLinearAccelY:valid,inertial-6286.188861:estLinearAccelZ,inertial-6286.188861:estLinearAccelZ:valid,inertial-6286.188861:estAngularRateX,inertial-6286.188861:estAngularRateX:valid,inertial-6286.188861:estAngularRateY,inertial-6286.188861:estAngularRateY:valid,inertial-6286.188861:estAngularRateZ,inertial-6286.188861:estAngularRateZ:valid
1773072849684267520,-0.1428948193788528,1,0.04416611418128014,1,0.1047956645488739,1,-0.00419169245287776,1,-0.002411582274362445,1,0.0007150120218284428,1
1773072849694482944,-0.1292909234762192,1,0.034703329205513,1,0.04951116070151329,1,0.0009746748255565763,1,-0.001392810838297009,1,0.001523479004390538,1
1773072849704599808,-0.007652679458260536,1,-0.02033703960478306,1,-0.001560554839670658,1,0.003130274824798107,1,-0.0001580597599968314,1,0.001224276376888156,1
1773072849714619904,0.04434794932603836,1,-0.04343558102846146,1,-0.005635506473481655,1,0.0002691046393010765,1,0.001209701760672033,1,0.0007296623080037534,1
1773072849724543488,-0.02455065958201885,1,-0.01049359887838364,1,0.02448086999356747,1,-0.004516759887337685,1,0.002041247906163335,1,0.0001921570219565183,1
1773072849734375168,-0.1355614364147186,1,0.06277327239513397,1,0.03972777724266052,1,-0.002333866199478507,1,0.001509988680481911,1,0.0007033959263935685,1
1773072849744111872,-0.1217170879244804,1,0.03934366628527641,1,0.007030268665403128,1,0.00523408642038703,1,0.002320025116205215,1,0.001361468341201544,1
1773072849753754624,-0.0112069807946682,1,-0.02232687920331955,1,-0.01323986519128084,1,0.01132634840905666,1,0.001946730073541403,1,0.001577060436829925,1
1773072849763304704,0.05922430753707886,1,-0.07256601005792618,1,0.01682545244693756,1,0.01008742954581976,1,0.002196751534938812,1,0.001400395529344678,1
1773072849772811008,0.006444740109145641,1,-0.0634768158197403,1,0.06817253679037094,1,0.002611769596114755,1,0.0006186452228575945,1,0.0009293369366787374,1
1773072849782226944,-0.09293965995311737,1,-0.02596707455813885,1,0.07798504829406738,1,-0.002364047802984715,1,-0.0006264216499403119,1,0.0007379837334156036,1
1773072849791988480,-0.06717401742935181,1,-0.01447457168251276,1,0.03349234536290169,1,-0.00259859417565167,1,-0.0005176150589250028,1,0.001084011164493859,1
1773072849802669824,0.04739619791507721,1,-0.05636822804808617,1,-0.0110605712980032,1,-0.002035327488556504,1,0.0001603241107659414,1,0.001273326226510108,1
1773072849813250304,0.1029456928372383,1,-0.0874103382229805,1,0.01065161824226379,1,-0.004192803055047989,1,0.0002338788763154298,1,0.001050022547133267,1
1773072849823732992,0.01596885547041893,1,-0.04846777021884918,1,0.05832074210047722,1,-0.007992066442966461,1,-0.001560424454510212,1,0.0003743372799362987,1
1773072849834115328,-0.09639240056276321,1,0.005323385819792747,1,0.05427057668566704,1,-0.006069822702556849,1,-0.003446938470005989,1,0.0007320083677768707,1
1773072849844398080,-0.09815854579210281,1,0.01489530131220818,1,0.01256726775318384,1,0.00202011875808239,1,-0.003727254457771778,1,0.001251149224117398,1
1773072849854582016,0.004877068102359772,1,-0.04146240279078484,1,-0.01720710471272469,1,0.007672757841646671,1,-0.002381591126322746,1,0.001351810293272138,1
1773072849864669184,0.05650010704994202,1,-0.08602409809827805,1,-0.003693154314532876,1,0.003925398923456669,1,-0.0008130864007398486,1,0.001055526314303279,1
1773072849874658304,-0.01194094587117434,1,-0.04779618978500366,1,0.02238290570676327,1,-0.00507294898852706,1,-0.0007127905264496803,1,0.0007255650125443935,1
1773072849884553472,-0.1174029186367989,1,0.01706023141741753,1,0.02000272274017334,1,-0.008948891423642635,1,-0.0005360916256904602,1,0.001034864224493504,1
1773072849894367488,-0.1400070488452911,1,0.03609340265393257,1,-0.004091071430593729,1,-0.003770996816456318,1,0.0005765112000517547,1,0.001837296178564429,1
1773072849904086784,-0.03698720410466194,1,-0.006226513534784317,1,-0.0009386985329911113,1,0.002641047816723585,1,0.0009454943938180804,1,0.001710138749331236,1
1773072849913712384,0.02769315242767334,1,-0.04467124864459038,1,0.04093269631266594,1,0.002974588889628649,1,0.001284634578041732,1,0.001165596768260002,1
1773072849923246336,-0.02272995002567768,1,-0.008174147456884384,1,0.09161031246185303,1,-0.001477950951084495,1,-9.961792966350913e-05,1,0.0003363093419466168,1
1773072849932688384,-0.1292855590581894,1,0.04607105627655983,1,0.0857728123664856,1,-0.002023832639679313,1,-0.001335991430096328,1,0.0004573119222186506,1
1773072849942039040,-0.1390483677387238,1,0.05858571082353592,1,0.03665889054536819,1,0.001618791138753295,1,-0.001131001743488014,1,0.0006339531973935664,1
1773072849952192512,-0.0498552992939949,1,0.02082161605358124,1,0.003701092908158898,1,0.005540825892239809,1,-0.0003286454593762755,1,0.0007614672649651766,1
1773072849962842368,0.0140813896432519,1,-0.02647964097559452,1,0.0230771116912365,1,0.002818712498992682,1,0.0008193551329895854,1,0.0002243367489427328,1
1773072849973393408,-0.04073906689882278,1,0.002620048355311155,1,0.06142932549118996,1,-0.003070010337978601,1,0.0005779376951977611,1,-0.0004975607735104859,1
1773072849983842816,-0.1280042380094528,1,0.05827053636312485,1,0.07011764496564865,1,-0.004290082957595587,1,0.0005156634724698961,1,-0.0001367707154713571,1
1773072849994191872,-0.1299813091754913,1,0.06586481630802155,1,0.04861331731081009,1,-0.0001691816432867199,1,0.0006676767952740192,1,1.478169724578038e-05,1
1773072850004447232,-0.03453867882490158,1,0.01876664534211159,1,0.03294738382101059,1,0.00399160897359252,1,0.001335349283181131,1,0.0001496478944318369,1
1773072850014605568,0.05210752785205841,1,-0.0219526719301939,1,0.03417105972766876,1,0.002162900986149907,1,0.001118972082622349,1,-0.0001582136319484562,1
1773072850024667904,-7.359404116868973e-05,1,0.009725809097290039,1,0.04168305173516273,1,-0.002026318339630961,1,0.0001792133843991905,1,-0.0003894442343153059,1
1773072850034633216,-0.09470713883638382,1,0.04878897219896317,1,0.04383686184883118,1,-0.001183658838272095,1,-0.000195225075003691,1,0.0001128110307035968,1
1773072850044502784,-0.08897655457258224,1,0.04079892858862877,1,0.02525336109101772,1,0.004372735507786274,1,-0.0003032203821931034,1,0.0009092348627746105,1
1773072850054276864,-0.00201890617609024,1,-0.01681696251034737,1,0.01306196302175522,1,0.007773716002702713,1,4.698049087892286e-05,1,0.001466585439629853,1
1773072850063958016,0.05861753597855568,1,-0.05346062779426575,1,0.0326213650405407,1,0.004540150053799152,1,0.0001916500041261315,1,0.0009982179617509246,1
1773072850073549056,0.009069488383829594,1,-0.02075950428843498,1,0.04491835087537766,1,-0.004407208878546953,1,-0.0002141883305739611,1,0.0006507365615107119,1
1773072850083047680,-0.0828787237405777,1,0.04572624713182449,1,0.02773577719926834,1,-0.006408169399946928,1,-0.001725933514535427,1,0.001358328154310584,1
1773072850092453888,-0.08757205307483673,1,0.03678325563669205,1,0.0003279072698205709,1,-0.001275981194339693,1,-0.00136007834225893,1,0.002218251815065742,1
1773072850101769472,-0.0005316184833645821,1,-0.0004282081499695778,1,-0.005669761449098587,1,0.003054587170481682,1,-0.001056889072060585,1,0.002500936854630709,1
1773072850112356096,0.04214269295334816,1,-0.04768256843090057,1,0.02219685167074203,1,0.001837105141021311,1,-0.0006382016581483185,1,0.002100828569382429,1
1773072850122992896,-0.008448426611721516,1,-0.02846803702414036,1,0.0539039745926857,1,-0.003475171979516745,1,-0.0004060459323227406,1,0.001269104308448732,1
1773072850133527296,-0.09836579859256744,1,0.04283871501684189,1,0.05554025247693062,1,-0.002962788101285696,1,-0.00120588846039027,1,0.001605674508027732,1
1773072850143965696,-0.07793907076120377,1,0.0187588632106781,1,0.02738304063677788,1,0.001570569118484855,1,-0.0004537903587333858,1,0.002306155394762754,1
1773072850154305792,0.01934000477194786,1,-0.02401025779545307,1,0.002795026171952486,1,0.003974526654928923,1,-0.0006734054768458009,1,0.002085364190861583,1
1773072850164546816,0.04627526551485062,1,-0.05771853402256966,1,0.01417651958763599,1,0.0006695146439597011,1,-0.0001599449606146663,1,0.001385827315971255,1
1773072850174689536,-0.02938768453896046,1,-0.0341748371720314,1,0.04967853799462318,1,-0.004828172270208597,1,-0.0005131958168931305,1,0.0007595058996230364,1
1773072850184734976,-0.1153842285275459,1,0.02943398058414459,1,0.06220641359686852,1,-0.005108039360493422,1,-0.002030351432040334,1,0.000869250507093966,1
1773072850194683904,-0.08626821637153625,1,0.008790576830506325,1,0.04183072224259377,1,0.0002109516062773764,1,-0.001753320568241179,1,0.001238714903593063,1
1773072850204542464,0.01303858030587435,1,-0.04263813048601151,1,0.03203599900007248,1,0.003156686900183558,1,-0.001184342429041862,1,0.001020826399326324,1
1773072850214317056,0.03066542185842991,1,-0.07789348810911179,1,0.04167410358786583,1,1.677870750427246e-05,1,-0.001097356667742133,1,0.0002252022823086008,1
1773072850223998464,-0.04459283873438835,1,-0.04265405610203743,1,0.04444247856736183,1,-0.003741806140169501,1,-0.002203242853283882,1,-0.0001360613387078047,1
1773072850233586688,-0.1083523333072662,1,0.004462228156626225,1,0.01893815211951733,1,-0.001286035636439919,1,-0.001958629116415977,1,8.041907130973414e-05,1
1773072850243083008,-0.069479800760746,1,-0.02476695366203785,1,-0.001932621700689197,1,0.00403906311839819,1,-0.0008854602929204702,1,0.0004311149241402745,1
1773072850252487680,0.005473480094224215,1,-0.07052645087242126,1,0.02346092835068703,1,0.004622554406523705,1,0.0003518025914672762,1,0.000529216427821666,1
1773072850261950464,0.0007260772399604321,1,-0.08237855136394501,1,0.05876108258962631,1,-0.0009677637717686594,1,0.0001909825950860977,1,-0.0001259666460100561,1
1773072850272661504,-0.09952473640441895,1,-0.02910190634429455,1,0.05975830554962158,1,-0.005378758534789085,1,-0.0007507720729336143,1,-0.0001021042553475127,1
1773072850283270656,-0.1512280106544495,1,0.01295509934425354,1,0.02139412052929401,1,-0.002746048616245389,1,-0.001330518862232566,1,0.0005227432702668011,1
1773072850293777664,-0.08645080029964447,1,-0.01495397835969925,1,-0.01285567879676819,1,0.002813248429447412,1,-0.0006730177556164563,1,0.001391810830682516,1
1773072850304186624,0.01330768223851919,1,-0.05648075044155121,1,-0.007307684049010277,1,0.003455910598859191,1,0.0006595992599613965,1,0.001174270990304649,1
1773072850314494464,0.01699640229344368,1,-0.04975312203168869,1,0.031708724796772,1,-0.002784705720841885,1,0.001317936112172902,1,0.0004761756863445044,1
1773072850324703488,-0.07915271818637848,1,0.01183095388114452,1,0.05679753422737122,1,-0.006631432566791773,1,0.001085291965864599,1,0.0003916822606697679,1
1773072850334819072,-0.1157364323735237,1,0.04716682434082031,1,0.04582471773028374,1,-0.003333944827318192,1,0.001489568268880248,1,0.0008611952071078122,1
1773072850344838912,-0.05296122655272484,1,0.021817397326231,1,0.02470015734434128,1,0.002962914062663913,1,0.001811388530768454,1,0.001371307997033,1
1773072850354763264,0.00892920047044754,1,-0.02790168114006519,1,0.04011933133006096,1,0.004413082264363766,1,0.001829629996791482,1,0.001479762606322765,1
1773072850364591872,-0.0169093981385231,1,-0.02535177953541279,1,0.06838443875312805,1,4.695993266068399e-05,1,0.0006337311933748424,1,0.0006280136876739562,1
1773072850374326272,-0.1038218885660172,1,0.02095764875411987,1,0.05836743116378784,1,-0.002641808008775115,1,-0.0005263216444291174,1,0.0004842403577640653,1
1773072850383966720,-0.1063279360532761,1,0.03756221383810043,1,0.024057786911726,1,-1.225172309204936e-05,1,0.0002599126601126045,1,0.0009696386987343431,1
1773072850393514752,-0.01622920110821724,1,0.003192654810845852,1,0.008362885564565659,1,0.002287458162754774,1,0.00197095051407814,1,0.001002083765342832,1
1773072850402973440,0.06291055679321289,1,-0.03675020113587379,1,0.03832067549228668,1,-0.001241453923285007,1,0.003248428460210562,1,0.0003786673187278211,1
1773072850412340224,0.03547297418117523,1,-0.01111048646271229,1,0.06010191515088081,1,-0.007628134917467833,1,0.002449752297252417,1,-0.0002453192137181759,1
1773072850422065152,-0.07323627173900604,1,0.0496680960059166,1,0.05415346473455429,1,-0.007082656025886536,1,0.0009955045534297824,1,-9.720856178319082e-05,1
1773072850432739840,-0.1097741797566414,1,0.06796221435070038,1,0.02591784484684467,1,0.001014472916722298,1,-0.0002473884960636497,1,0.0002963262959383428,1
1773072850443310848,-0.03170490264892578,1,0.0134248323738575,1,0.005852743051946163,1,0.009048961102962494,1,-0.0006478604045696557,1,0.0008102232241071761,1
1773072850453779200,0.04358553141355515,1,-0.03951476886868477,1,0.01926383376121521,1,0.008010923862457275,1,-0.000201811024453491,1,0.0004160570970270783,1
1773072850464145664,0.008008872158825397,1,-0.03371670842170715,1,0.0404077023267746,1,-0.0001652525388635695,1,-0.0003171011921949685,1,-0.0003300838288851082,1
1773072850474409728,-0.08406640589237213,1,0.0123764630407095,1,0.02997185103595257,1,-0.005043461453169584,1,-0.0003196368052158505,1,0.0001269251806661487,1
1773072850484583936,-0.08539095520973206,1,0.02735725976526737,1,-0.004725590348243713,1,-0.002640782855451107,1,0.0005809864378534257,1,0.000738018483389169,1
1773072850494662912,-0.0003333212807774544,1,-0.01413189060986042,1,-0.01164310798048973,1,0.001418496482074261,1,0.00149731314741075,1,0.001110707875341177,1
1773072850504643584,0.0485152080655098,1,-0.04800307378172874,1,0.03457523882389069,1,0.0003680822555907071,1,0.001184896100312471,1,0.0007386890356428921,1
1773072850514527232,-0.01066587399691343,1,-0.01757730171084404,1,0.08106375485658646,1,-0.003164013382047415,1,-0.001247211010195315,1,0.0003670749138109386,1
1773072850524315392,-0.09515548497438431,1,0.03127243742346764,1,0.06567086279392242,1,-0.003251791931688786,1,-0.003035897854715586,1,0.0004614717909134924,1
1773072850534007296,-0.1110261157155037,1,0.03516089916229248,1,0.02541145496070385,1,0.004150772467255592,1,-0.003137607360258698,1,0.001690646749921143,1
1773072850543604992,-0.0124485120177269,1,-0.03597616404294968,1,0.01271503418684006,1,0.007308132015168667,1,-0.002218949608504772,1,0.002075496129691601,1
1773072850553110784,0.04068688303232193,1,-0.06450006365776062,1,0.02240434288978577,1,0.001588473096489906,1,-0.001411443925462663,1,0.00150747993029654,1
1773072850562523648,-0.02259799651801586,1,-0.03765182942152023,1,0.0361500009894371,1,-0.007161031942814589,1,-0.0007428363896906376,1,0.0008670910028740764,1
1773072850571844096,-0.1194202601909637,1,0.02747349999845028,1,0.0327204093337059,1,-0.008433349430561066,1,-0.000880286970641464,1,0.001002434873953462,1
1773072850581987072,-0.1257586777210236,1,0.04246966540813446,1,0.009541064500808716,1,-0.002374741015955806,1,-0.000102160258393269,1,0.001749746967107058,1
1773072850592639232,-0.04399799555540085,1,-0.000387570820748806,1,0.02111518010497093,1,0.00341455265879631,1,0.001026044483296573,1,0.002153739565983415,1
1773072850603191296,0.02115330286324024,1,-0.04322309419512749,1,0.06375043094158173,1,0.001405320945195854,1,0.001517198397777975,1,0.001953296130523086,1
1773072850613643008,-0.02401554211974144,1,-0.0234994925558567,1,0.08286067843437195,1,-0.003812635783106089,1,0.0004971039015799761,1,0.001074832514859736,1
1773072850623993856,-0.1051224768161774,1,0.02300309203565121,1,0.08022095263004303,1,-0.003971496131271124,1,0.0006728838779963553,1,0.00108162616379559,1
1773072850634247680,-0.1045514643192291,1,0.04177694395184517,1,0.06323051452636719,1,0.001298978924751282,1,0.0001533167524030432,1,0.001452077529393137,1
1773072850644404480,-0.01238339301198721,1,-0.02088608406484127,1,0.04591669142246246,1,0.004525198601186275,1,0.00102771376259625,1,0.001340641872957349,1
1773072850654464256,0.05572612211108208,1,-0.04202891513705254,1,0.04244372621178627,1,0.0009460121509619057,1,0.001008663908578455,1,0.0004754142428282648,1
1773072850664427264,-0.009036777541041374,1,-0.01447673048824072,1,0.05041628330945969,1,-0.003814916824921966,1,0.000590798445045948,1,2.823117029038258e-06,1
1773072850674294016,-0.1061337664723396,1,0.03695188462734222,1,0.03211335092782974,1,-0.003198821563273668,1,-0.0005537008983083069,1,0.0002144403842976317,1
1773072850684065536,-0.1081961616873741,1,0.04561835527420044,1,-0.01239219587296247,1,0.003376332577317953,1,-0.001512640272267163,1,0.001018812297843397,1
1773072850693743360,0.0001829564571380615,1,-0.0241557639092207,1,-0.02700112760066986,1,0.007960807532072067,1,-0.0003293222398497164,1,0.0008481443510390818,1
1773072850703340032,0.05799588188529015,1,-0.07372331619262695,1,0.01012039836496115,1,0.004105223342776299,1,-8.430986054008827e-05,1,0.0004462400393094867,1
1773072850712844800,0.008335834369063377,1,-0.04532840475440025,1,0.03202268481254578,1,-0.004846520256251097,1,-0.000543647853191942,1,-0.0004620638501364738,1
1773072850722258944,-0.1035775691270828,1,0.02442236430943012,1,0.01451282389461994,1,-0.004572228994220495,1,-0.001453305594623089,1,-0.0001897860202006996,1
1773072850731583744,-0.09288613498210907,1,0.01392405107617378,1,-0.01139637269079685,1,0.002008122857660055,1,-0.001127460272982717,1,0.0009525941568426788,1
1773072850742321152,0.001042921096086502,1,-0.03971442580223083,1,-0.03263313695788383,1,0.005528044886887074,1,-0.001424868241883814,1,0.001231747446581721,1
1773072850752957952,0.05082213878631592,1,-0.0972764790058136,1,-0.02139361388981342,1,0.001010417239740491,1,-0.0005646648351103067,1,0.0004908700939267874,1
1773072850763494400,-0.009420409798622131,1,-0.04473264142870903,1,0.01312150806188583,1,-0.005657028406858444,1,-0.001482827705331147,1,7.863439532229677e-05,1
1773072850773932800,-0.1197051629424095,1,0.007825738750398159,1,0.0182189978659153,1,-0.005920217372477055,1,-0.0009101626346819103,1,0.0007070007850416005,1
1773072850784273408,-0.1071998402476311,1,0.009077004157006741,1,0.008700818754732609,1,-0.0006390766357071698,1,-0.0007273298688232899,1,0.001661896123550832,1
1773072850794517760,-0.004125439561903477,1,-0.03575509786605835,1,0.007884988561272621,1,0.00239884271286428,1,0.0008586044423282146,1,0.001806274522095919,1
1773072850804667648,0.05358699336647987,1,-0.06992226839065552,1,0.03456656634807587,1,-0.001726482179947197,1,0.001085150986909866,1,0.001217433018609881,1
1773072850814721792,-0.02492918446660042,1,-0.03141917288303375,1,0.05559037998318672,1,-0.007693055085837841,1,0.0005671057151630521,1,0.0006540284957736731,1
1773072850824682752,-0.1425089836120605,1,0.04481290653347969,1,0.04898249357938766,1,-0.005231402348726988,1,-0.001192771014757454,1,0.001022454001940787,1
1773072850834550528,-0.1269505321979523,1,0.0384303405880928,1,0.03080031648278236,1,0.002958408324047923,1,-0.000618780730292201,1,0.001401793444529176,1
1773072850844325120,-0.02731367573142052,1,-0.006711828988045454,1,0.03517662361264229,1,0.006242871750146151,1,-0.0001730467047309503,1,0.0008738408796489239,1
1773072850854008320,0.01617701724171638,1,-0.05184305459260941,1,0.06701564788818359,1,-4.024070221930742e-05,1,0.001078620785847306,1,0.0003747711598407477,1
1773072850863606784,-0.03724111989140511,1,-0.00978707242757082,1,0.07821736484766006,1,-0.008778154850006104,1,0.0006682839011773467,1,-0.0005817066412419081,1
1773072850873113088,-0.1332127004861832,1,0.06321097165346146,1,0.05905278027057648,1,-0.008262595161795616,1,0.0007196558872237802,1,-0.0003127609670627862,1
1773072850882528256,-0.1061657294631004,1,0.06770878285169601,1,0.04998141154646873,1,-0.001180995837785304,1,0.001684165792539716,1,0.0003841044381260872,1
1773072850892001024,-0.01974647119641304,1,0.02257152274250984,1,0.05913889408111572,1,0.002693339483812451,1,0.002005301183089614,1,0.00026023352984339,1
1773072850902704128,0.02779742330312729,1,-0.02116852067410946,1,0.08843374252319336,1,0.0007816498400643468,1,0.00161814980674535,1,-0.0004241458373144269,1
1773072850913302528,-0.03370094671845436,1,0.01842684112489223,1,0.1068231835961342,1,-0.002437472576275468,1,7.263026054715738e-05,1,-0.0006740406970493495,1
1773072850923797504,-0.1035359501838684,1,0.06421543657779694,1,0.1010478362441063,1,0.0004857841413468122,1,-0.0005001105600968003,1,0.0001095810439437628,1
1773072850934192128,-0.08502942323684692,1,0.05021652206778526,1,0.07626741379499435,1,0.006765194237232208,1,-0.0007784604676999152,1,0.001268959022127092,1
1773072850944499456,0.0195629708468914,1,-0.01998879946768284,1,0.04993428662419319,1,0.007596707902848721,1,0.000381158635718748,1,0.001305542187765241,1
1773072850954706688,0.07330921292304993,1,-0.04814858362078667,1,0.03566846624016762,1,0.002602100372314453,1,0.000538344553206116,1,0.001100419322028756,1
1773072850964814592,0.001668748445808887,1,-0.02971222065389156,1,0.03672546148300171,1,-0.001221844810061157,1,0.0006281978567130864,1,0.0009740745299495757,1
1773072850974824192,-0.07092353701591492,1,0.01962193287909031,1,0.03537683188915253,1,0.001484362175688148,1,7.513592572649941e-05,1,0.001295479945838451,1
1773072850984737280,-0.06512543559074402,1,0.01636247336864471,1,0.0125764412805438,1,0.006967715453356504,1,4.389511741464958e-05,1,0.001713421661406755,1
1773072850994552576,0.01832574233412743,1,-0.04561946541070938,1,0.003978842869400978,1,0.007833177223801613,1,0.0006460124859586358,1,0.001484214793890715,1
1773072851004273152,0.04106278717517853,1,-0.07702026516199112,1,-0.003351298160851002,1,0.002079072408378124,1,-0.0006960313185118139,1,0.001095612067729235,1
1773072851013900800,-0.02952335774898529,1,-0.05554599687457085,1,-0.02147810719907284,1,-0.002604840090498328,1,-0.001635987777262926,1,0.000600515806581825,1
1773072851023433728,-0.09107968211174011,1,-0.01223605591803789,1,-0.04429427534341812,1,-0.001865581958554685,1,-0.001680717105045915,1,0.0008501824922859669,1
1773072851032873984,-0.07131755352020264,1,-0.007299388758838177,1,-0.06441425532102585,1,0.001048325444571674,1,-0.000662538455799222,1,0.0009930431842803955,1
1773072851042223360,0.0173138752579689,1,-0.06310483813285828,1,-0.05768562108278275,1,-4.11825894843787e-05,1,0.001051792758516967,1,0.0006674667820334435,1
1773072851051935488,0.04966511577367783,1,-0.07607872784137726,1,-0.0344853550195694,1,-0.006108897272497416,1,0.001106058713048697,1,3.794435906456783e-05,1
1773072851062610688,-0.03960932418704033,1,-0.01729841530323029,1,-0.01687457598745823,1,-0.01024590060114861,1,-0.0003458117716945708,1,-0.0005386571865528822,1
1773072851073185280,-0.1551473289728165,1,0.04291607066988945,1,-0.01716625690460205,1,-0.006783768068999052,1,-0.001157723949290812,1,0.0001330977102043107,1
1773072851083658752,-0.1436286717653275,1,0.03395793586969376,1,-0.02542205154895782,1,0.0003455447731539607,1,-0.00120756053365767,1,0.0007748499629087746,1
1773072851094033408,-0.04204478859901428,1,-0.03728252276778221,1,-0.02386517822742462,1,0.002613522810861468,1,-0.001145063084550202,1,0.0005939311813563108,1
1773072851104318208,0.01847712323069572,1,-0.06550997495651245,1,0.007433170452713966,1,-0.001964812632650137,1,-0.0008215116104111075,1,-0.0001609854662092403,1
1773072851114504448,-0.03745554015040398,1,-0.02325321733951569,1,0.05092521756887436,1,-0.008233840577304363,1,-0.0003257271600887179,1,-0.0004283966554794461,1
1773072851124592384,-0.1306072175502777,1,0.03714457899332047,1,0.0668603777885437,1,-0.009004516527056694,1,0.0001899189373943955,1,0.0001338997972197831,1
1773072851134585088,-0.10988400131464,1,0.04498076811432838,1,0.05155408754944801,1,-0.00362189975567162,1,0.001727396156638861,1,0.0009211460128426552,1
1773072851144481792,-0.006220525130629539,1,-0.004011690616607666,1,0.05152120813727379,1,0.0006255395710468292,1,0.002522748894989491,1,0.001080033951438963,1
1773072851154282496,0.03211797028779984,1,-0.03129468113183975,1,0.09431716054677963,1,0.0001954002946149558,1,0.001935223932377994,1,0.0008532386855222285,1
1773072851163992320,-0.06302855908870697,1,0.000129165593534708,1,0.1475140452384949,1,-0.001652864157222211,1,0.0002132776717189699,1,0.0007748064817860723,1
1773072851173609472,-0.1787106692790985,1,0.04350814968347549,1,0.1353717148303986,1,0.0008148391498252749,1,-0.001095919986255467,1,0.001475078985095024,1
1773072851183134464,-0.1529181599617004,1,0.03976935148239136,1,0.08608458936214447,1,0.006797300651669502,1,-0.000643313629552722,1,0.002015186008065939,1
1773072851192567296,-0.02896555885672569,1,-0.02095452509820461,1,0.06154701113700867,1,0.007800459861755371,1,0.001955303596332669,1,0.002011169213801622,1
1773072851201908992,0.07388785481452942,1,-0.07324184477329254,1,0.07251031696796417,1,0.0006117069278843701,1,0.003334560664370656,1,0.001458541140891612,1
1773072851212207872,0.04337195679545403,1,-0.0329468660056591,1,0.08141978085041046,1,-0.007128726225346327,1,0.003800233127549291,1,0.0007641816046088934,1
1773072851222855936,-0.05064237490296364,1,0.0304105244576931,1,0.09974061697721481,1,-0.006272921338677406,1,0.004030976910144091,1,0.00104946072679013,1
1773072851233402112,-0.0931854173541069,1,0.06461861729621887,1,0.1215868443250656,1,0.002303458284586668,1,0.003473606426268816,1,0.001752462005242705,1
1773072851243846400,-0.01320459507405758,1,0.005992918740957975,1,0.1217011883854866,1,0.007923824712634087,1,0.002741765696555376,1,0.001885376987047493,1
1773072851254190336,0.06421960145235062,1,-0.04670291393995285,1,0.08876322954893112,1,0.007798491977155209,1,0.000276894512353465,1,0.001211747992783785,1
1773072851264443136,0.007215879857540131,1,-0.03724261000752449,1,0.05985527858138084,1,0.005147217307239771,1,-0.001347544486634433,1,0.0007068402483128011,1
1773072851274600192,-0.09940372407436371,1,0.01514988392591476,1,0.02657873369753361,1,0.004367653746157885,1,-0.002855149563401937,1,0.0006859388086013496,1
1773072851284659968,-0.1039057746529579,1,0.03008350357413292,1,-0.0350043773651123,1,0.004747125785797834,1,-0.002133927075192332,1,0.0009722842369228601,1
1773072851294623744,0.0143264839425683,1,-0.02236403711140156,1,-0.0822959765791893,1,0.002263122005388141,1,0.0007117462810128927,1,0.0006710935849696398,1
1773072851304493056,0.09824171662330627,1,-0.06821106374263763,1,-0.06907602399587631,1,-0.004274103790521622,1,0.002278826432302594,1,-0.0003598948824219406,1
1773072851314267904,0.05315061286091805,1,-0.03189628943800926,1,-0.02344761230051517,1,-0.01027055736631155,1,0.001762912259437144,1,-0.001518733566626906,1
1773072851323951360,-0.06318292021751404,1,0.0471210703253746,1,-0.001151310279965401,1,-0.008851800113916397,1,0.0005760595086030662,1,-0.001293601468205452,1
1773072851333543168,-0.09481719136238098,1,0.07057654112577438,1,-0.00307211559265852,1,-0.000983349047601223,1,-0.000188321850146167,1,-0.0005373558378778398,1
1773072851343042304,-0.02955027297139168,1,0.008536893874406815,1,-0.01989680714905262,1,0.005434142425656319,1,-0.001456492464058101,1,2.192421015934087e-05,1
1773072851352450816,0.0307561382651329,1,-0.05864833667874336,1,-0.02863161452114582,1,0.005059546791017056,1,-0.002849648473784328,1,-0.0002140544092981145,1
1773072851361768960,-0.01172038726508617,1,-0.04892469942569733,1,-0.0230653490871191,1,0.0001679176348261535,1,-0.003669143887236714,1,-0.0005663709598593414,1
1773072851372502272,-0.1058972477912903,1,0.009930059313774109,1,-0.03492733091115952,1,-0.002793557709082961,1,-0.002665302250534296,1,-0.0003245123371016234,1
1773072851383134720,-0.1121492013335228,1,0.03815391659736633,1,-0.05010196566581726,1,-0.002117653843015432,1,-0.0001518309290986508,1,0.0005692353006452322,1
1773072851393666048,-0.01640355959534645,1,-0.00416911393404007,1,-0.04284374415874481,1,-0.002767183817923069,1,0.002415722468867898,1,0.001240966492332518,1
1773072851404102656,0.05006235092878342,1,-0.05269350111484528,1,-0.002102517522871494,1,-0.005049895495176315,1,0.003282365156337619,1,0.001330481492914259,1
1773072851414440448,0.01140912249684334,1,-0.02052521146833897,1,0.06006297469139099,1,-0.006379212252795696,1,0.001379597350023687,1,0.0009654891910031438,1
1773072851424677632,-0.1075161695480347,1,0.04125022888183594,1,0.1001928672194481,1,-0.001321822172030807,1,-0.0003198722552042454,1,0.001437974045984447,1
1773072851434819328,-0.1497652977705002,1,0.0469801276922226,1,0.109499454498291,1,0.005984064191579819,1,-0.0007996354252099991,1,0.002291793469339609,1
1773072851444864256,-0.07604793459177017,1,-0.004109131637960672,1,0.07075481861829758,1,0.009166163392364979,1,-0.001123519614338875,1,0.002621978987008333,1
1773072851454812928,0.01012910809367895,1,-0.06536418199539185,1,0.04410666972398758,1,0.005154081154614687,1,-0.0007871313719078898,1,0.002150884829461575,1
1773072851464667904,-0.02314895018935204,1,-0.04152030497789383,1,0.05438892170786858,1,-0.001967155607417226,1,-0.0006259973160922527,1,0.001528071705251932,1
1773072851474429440,-0.1303966045379639,1,0.01024770922958851,1,0.06441272050142288,1,-0.005812944378703833,1,0.0003530531539581716,1,0.001652120845392346,1
1773072851484118272,-0.1562003046274185,1,0.03560059517621994,1,0.05887219682335854,1,-0.003956339787691832,1,0.001311840605922043,1,0.001853734836913645,1
1773072851493718784,-0.06021495908498764,1,0.001234811265021563,1,0.05407124385237694,1,-0.0002479101240169257,1,0.00278040231205523,1,0.001791043672710657,1
1773072851503227648,0.03954458236694336,1,-0.05755637958645821,1,0.08354607969522476,1,0.0002384856925345957,1,0.002510686870664358,1,0.000939657271374017,1
1773072851512645888,0.01106169074773788,1,-0.04220886901021004,1,0.1250926852226257,1,-0.002487474819645286,1,0.0007136865751817822,1,0.0004421847406774759,1
1773072851522120960,-0.1021646112203598,1,0.01766912639141083,1,0.132778137922287,1,-0.001728016650304198,1,-0.0007355178822763264,1,0.0002829022705554962,1
1773072851532821248,-0.1383636146783829,1,0.0391928032040596,1,0.09588746726512909,1,0.003108463250100613,1,-0.001081820693798363,1,0.0008063180721364915,1
1773072851543418880,-0.05190503969788551,1,-0.01303969044238329,1,0.03892706707119942,1,0.006667571142315865,1,-0.000174387896549888,1,0.001094252802431583,1
1773072851553920512,0.0439545214176178,1,-0.07938039302825928,1,0.01882005482912064,1,0.003766227979212999,1,6.885452603455633e-05,1,0.0005839646910317242,1
1773072851564320768,0.01474501471966505,1,-0.06948623806238174,1,0.03625265508890152,1,-0.002887779846787453,1,-0.0001987107243621722,1,-0.0002829920267686248,1
1773072851574622208,-0.07651675492525101,1,-0.003299429547041655,1,0.04903849214315414,1,-0.005594358313828707,1,9.522048640064895e-05,1,-0.0005467666196636856,1
1773072851584825600,-0.1116991192102432,1,0.02744070068001747,1,0.03402953594923019,1,-0.001569431740790606,1,0.0006108095985837281,1,-0.0003105936048086733,1
1773072851594930688,-0.001653915271162987,1,-0.006929347291588783,1,0.01248167641460896,1,0.002270928816869855,1,0.001638548215851188,1,1.231685382663272e-05,1
1773072851604939008,0.08722791075706482,1,-0.05271541699767113,1,0.0003739940002560616,1,0.0006146440282464027,1,0.001432395656593144,1,4.458921830519103e-05,1
1773072851614860800,0.05971284955739975,1,-0.04988515749573708,1,-0.001748416107147932,1,-0.003308246145024896,1,0.0001296296541113406,1,-0.0001899053168017417,1
1773072851624706048,-0.0580742210149765,1,0.005542237777262926,1,-0.01008310727775097,1,-0.00243855407461524,1,-0.001674115308560431,1,-0.0001685026363702491,1
1773072851634456064,-0.1030405983328819,1,0.03356665372848511,1,-0.0261760838329792,1,0.002163321012631059,1,-0.002033373340964317,1,0.0004438389732968062,1
1773072851644112640,-0.03415487334132195,1,-0.008388328365981579,1,-0.04141587391495705,1,0.004535623826086521,1,-0.0005738012259826064,1,0.000811316363979131,1
1773072851653677568,0.04014712572097778,1,-0.06437955051660538,1,-0.03570031002163887,1,7.841730257496238e-05,1,0.0005439681117422879,1,0.0005992877413518727,1
1773072851663149568,0.01850721798837185,1,-0.05510954186320305,1,-0.02390115708112717,1,-0.006572042591869831,1,0.0001156960570369847,1,0.0001945883850567043,1
1773072851672530432,-0.05726320296525955,1,0.007714805658906698,1,-0.01728525198996067,1,-0.007412334904074669,1,0.0001492887968197465,1,4.737183553515933e-05,1
1773072851682412544,-0.07628201693296432,1,0.05111315101385117,1,-0.006292019039392471,1,-0.002656024415045977,1,0.000657168566249311,1,0.0009319139644503593,1
1773072851693080832,-0.004826091229915619,1,0.01001449301838875,1,0.006911415606737137,1,0.001376995467580855,1,0.001689165830612183,1,0.001261260360479355,1
1773072851703647488,0.05334808304905891,1,-0.03438056260347366,1,0.02373581565916538,1,0.0006801089621149004,1,0.0008219757582992315,1,0.0006830562488175929,1
1773072851714112512,-0.007957031019032001,1,-0.01273886952549219,1,0.04597603902220726,1,-0.0008546868921257555,1,-0.001072997460141778,1,0.0006914691184647381,1
1773072851724484864,-0.1181293874979019,1,0.03439784049987793,1,0.06214503198862076,1,0.0009981632465496659,1,-0.0022216213401407,1,0.0008715745061635971,1
1773072851734758912,-0.1443017423152924,1,0.04342121630907059,1,0.04734490811824799,1,0.004310708958655596,1,-0.002386372070759535,1,0.001612261519767344,1
1773072851744937472,-0.06170308217406273,1,-0.008179057389497757,1,0.01901241019368172,1,0.004559818189591169,1,-0.001026941230520606,1,0.001724669360555708,1
1773072851755021568,0.02040273323655128,1,-0.06070996448397636,1,0.01754070818424225,1,-0.0007994483457878232,1,0.0002427431172691286,1,0.001109758974052966,1
1773072851765010176,-0.002177515532821417,1,-0.03043267875909805,1,0.04418645799160004,1,-0.007868461310863495,1,0.0001428250543540344,1,0.0006164719234220684,1
1773072851774903040,-0.08257816731929779,1,0.02968999557197094,1,0.07561386376619339,1,-0.008662553504109383,1,0.0004124748520553112,1,0.000470346916699782,1
1773072851784704256,-0.09387177228927612,1,0.0619836337864399,1,0.08388782292604446,1,-0.003579523414373398,1,0.001147012109868228,1,0.0004811562539543957,1
1773072851794423808,-0.03821835666894913,1,0.03398449718952179,1,0.08785156160593033,1,0.002144293626770377,1,0.0007681321003474295,1,0.0008630086667835712,1
1773072851804060160,0.01583660766482353,1,-0.0292937383055687,1,0.08562100678682327,1,0.003050621133297682,1,0.0002088501787511632,1,0.0008437448996119201,1
1773072851813605632,-0.02658207342028618,1,-0.02174322493374348,1,0.07177817076444626,1,0.001431879471056163,1,-0.002005829941481352,1,0.0005303978687152267,1
1773072851823060224,-0.1150891184806824,1,0.00810639001429081,1,0.05594325438141823,1,0.002521886955946684,1,-0.002062113955616951,1,0.0008659553132019937,1
1773072851832426240,-0.1166627630591393,1,0.01520044822245836,1,0.03972170874476433,1,0.004206822253763676,1,-0.0007824214990250766,1,0.001235653297044337,1
1773072851842728448,-0.03513948991894722,1,-0.02218860201537609,1,0.01958579011261463,1,0.003031902015209198,1,0.001222887542098761,1,0.0009427429758943617,1
1773072851853368576,0.06972849369049072,1,-0.07466595619916916,1,0.01342572551220655,1,-0.003133277175948024,1,0.003429446369409561,1,0.0005876099457964301,1
1773072851863908352,0.04418985545635223,1,-0.02737604454159737,1,0.03283704444766045,1,-0.01011977437883615,1,0.003198388265445828,1,-0.0001022627329803072,1
1773072851874347264,-0.08329060673713684,1,0.03392569720745087,1,0.06655067205429077,1,-0.008779563941061497,1,0.003038396127521992,1,0.0002711026754695922,1
1773072851884685824,-0.1278303116559982,1,0.06356256455183029,1,0.06893327087163925,1,-2.376560587435961e-05,1,0.0006853779777884483,1,0.001018300303258002,1
1773072851894924544,-0.06428699940443039,1,-0.0002524266019463539,1,0.03072088956832886,1,0.009202628396451473,1,-0.001064387266524136,1,0.00148968503344804,1
1773072851905070592,0.03399499505758286,1,-0.06280271708965302,1,0.01580400764942169,1,0.01024875044822693,1,-0.002479942981153727,1,0.0009869675850495696,1
1773072851915118336,-0.00394958071410656,1,-0.0495019219815731,1,0.03248188272118568,1,0.003565666498616338,1,-0.002258695429190993,1,0.0008366103866137564,1
1773072851925069824,-0.09270332008600235,1,-0.01077121868729591,1,0.0229890551418066,1,-0.003624378470703959,1,-0.001445647329092026,1,0.0008101515704765916,1
1773072851934926080,-0.108504518866539,1,0.03207049891352654,1,-0.02165892161428928,1,-0.004753030836582184,1,0.0003232766466680914,1,0.00133366440422833,1
1773072851944687360,3.945827484130859e-05,1,-0.005330436863005161,1,-0.03223954886198044,1,-0.002345040440559387,1,0.003463704371824861,1,0.001346296863630414,1
1773072851954354432,0.0765620693564415,1,-0.0360746718943119,1,0.02042384818196297,1,-0.002123891841620207,1,0.003293078159913421,1,0.0009307685540989041,1
1773072851963930112,0.008775823749601841,1,-0.01115553732961416,1,0.08452025800943375,1,-0.003252973780035973,1,0.001067728619091213,1,0.0004717441916000098,1
1773072851973414656,-0.1050787195563316,1,0.03886083513498306,1,0.09101627022027969,1,0.0005933078355155885,1,-0.002070107730105519,1,0.0008773300796747208,1
1773072851982807808,-0.1351171731948853,1,0.04689749330282211,1,0.05234581604599953,1,0.01024151686578989,1,-0.003771435236558318,1,0.001173321274109185,1
1773072851992110080,-0.02684482000768185,1,-0.02572462148964405,1,0.0203859880566597,1,0.01415122672915459,1,-0.002860993379727006,1,0.001600825809873641,1
1773072852002839552,0.06143734604120255,1,-0.082883320748806,1,-0.008254708722233772,1,0.006901233922690153,1,-0.001990539953112602,1,0.00104575976729393,1
1773072852013467392,0.03913840278983116,1,-0.08169467747211456,1,-0.03383266180753708,1,-0.005716866813600063,1,0.0004156943468842655,1,5.555233656195924e-05,1
1773072852023993088,-0.06522788107395172,1,0.0159943550825119,1,-0.03303514420986176,1,-0.01005566492676735,1,0.001032353844493628,1,-0.0002302813227288425,1
1773072852034418432,-0.1045280694961548,1,0.04006620496511459,1,-0.006615716964006424,1,-0.006213800050318241,1,0.002587946131825447,1,0.0004652372736018151,1
1773072852044745728,-0.02890852838754654,1,0.009497775696218014,1,0.03081937879323959,1,-0.001360724680125713,1,0.002584118163213134,1,0.000759200076572597,1
1773072852054973440,0.02970343455672264,1,-0.04610829800367355,1,0.06324668973684311,1,-1.752587922965176e-05,1,0.001171224401332438,1,0.0007698808331042528,1
1773072852065102848,-0.009680900722742081,1,-0.03328883647918701,1,0.09697651118040085,1,-0.0005028683808632195,1,-0.001613632077351213,1,0.0004579271771945059,1
1773072852075135488,-0.0995393767952919,1,0.01705475337803364,1,0.08622992783784866,1,0.0001816790754674003,1,-0.003188660135492682,1,0.0003974618157371879,1
1773072852085071872,-0.1181992143392563,1,0.03134100139141083,1,0.0410398431122303,1,0.004258357454091311,1,-0.003060534130781889,1,0.001313319080509245,1
1773072852094913024,-0.01606349274516106,1,-0.02873441018164158,1,0.005888176616281271,1,0.005013586021959782,1,-0.0007392772822640836,1,0.001536744297482073,1
1773072852104661248,0.04934933036565781,1,-0.06875462830066681,1,-0.009330189786851406,1,-0.001154076075181365,1,0.0002310204727109522,1,0.0008420540834777057,1
1773072852114315776,-0.002338717691600323,1,-0.03574533388018608,1,0.0189096387475729,1,-0.007947031408548355,1,0.0007854514406062663,1,0.0001407345698680729,1
1773072852123895552,-0.1188740730285645,1,0.03877631202340126,1,0.0644552931189537,1,-0.006985611282289028,1,0.00049760309047997,1,0.0005220408784225583,1
1773072852133384704,-0.1527933031320572,1,0.0545601099729538,1,0.0772467777132988,1,-0.0006281601963564754,1,0.0001661402347963303,1,0.001412741490639746,1
1773072852142783232,-0.06349390745162964,1,0.008065646514296532,1,0.06468039005994797,1,0.004898675717413425,1,-0.0003446689806878567,1,0.001726318732835352,1
1773072852152242176,0.02725318074226379,1,-0.05694742500782013,1,0.05759763345122337,1,0.004636778961867094,1,-0.0003785854205489159,1,0.001346025266684592,1
1773072852162940672,-0.001474312506616116,1,-0.04727096855640411,1,0.06472688168287277,1,-0.0009043909376487136,1,-0.001002389471977949,1,0.0007327420171350241,1
1773072852173537024,-0.1010601297020912,1,0.03673377633094788,1,0.05589738115668297,1,-0.002617923310026526,1,-0.001796109369024634,1,0.000654087751172483,1
1773072852184031488,-0.1094224229454994,1,0.04372687265276909,1,0.02301599644124508,1,0.0006015697726979852,1,-0.0005716978339478374,1,0.001430964330211282,1
1773072852194426624,-0.003512254916131496,1,0.0001248698681592941,1,-0.006551691796630621,1,0.004573594778776169,1,0.0002633956319186836,1,0.001599865732714534,1
1773072852204729600,0.06671484559774399,1,-0.06207644566893578,1,-0.000617265934124589,1,0.002737102564424276,1,0.0006593852303922176,1,0.001138336723670363,1
1773072852214934272,0.03002484142780304,1,-0.038429856300354,1,0.02872744388878345,1,-0.003023007651790977,1,0.0004074313037563115,1,0.0001812180562410504,1
1773072852225042176,-0.09224836528301239,1,0.03273189812898636,1,0.03226705268025398,1,-0.002624512184411287,1,-0.0009202043293043971,1,0.0005427261348813772,1
1773072852235052288,-0.1168336346745491,1,0.02581220492720604,1,0.01262004300951958,1,0.00321890227496624,1,-0.0008265619399026036,1,0.001137142302468419,1
1773072852244967936,-0.02112118154764175,1,-0.002471298445016146,1,-0.006878639571368694,1,0.0056614656932652,1,-0.0003774554352276027,1,0.0009863295126706362,1
1773072852254787328,0.06077442690730095,1,-0.06142213940620422,1,-0.006137714721262455,1,0.001081731403246522,1,0.0006943947519175708,1,0.0006211604923009872,1
1773072852264514560,0.01128449290990829,1,-0.04262042790651321,1,0.003839720971882343,1,-0.006385482847690582,1,0.0007656301604583859,1,-4.078341225977056e-05,1
1773072852274149632,-0.08707603067159653,1,0.03405587002635002,1,0.01589773781597614,1,-0.005826605018228292,1,0.0004509880091063678,1,0.0004745314072351903,1
1773072852283691776,-0.07662232965230942,1,0.03308107703924179,1,0.0148003650829196,1,0.0004955101176165044,1,0.0008642730535939336,1,0.000906210218090564,1
1773072852293141504,0.02465375326573849,1,-0.02415150590240955,1,0.01926378346979618,1,0.004289350006729364,1,0.0005486427107825875,1,0.0008040463435463607,1
1773072852302500096,0.07320037484169006,1,-0.06550545245409012,1,0.03985322639346123,1,0.001368767814710736,1,0.0002829543664120138,1,0.0001873486617114395,1
1773072852312366848,-0.009287262335419655,1,-0.02574343979358673,1,0.0602925606071949,1,-0.00309257535263896,1,-0.001299953670240939,1,-0.0001123279434978031,1
1773072852323034624,-0.1054838225245476,1,0.02724956162273884,1,0.05549271032214165,1,-0.002415633760392666,1,-0.002405104925855994,1,0.000215205000131391,1
1773072852333599488,-0.08717393130064011,1,0.02375758625566959,1,0.02210283279418945,1,0.002004957525059581,1,-0.002051842398941517,1,0.0009346220758743584,1
1773072852344062976,-0.005936950445175171,1,-0.0318194143474102,1,0.01381762139499187,1,0.003939876332879066,1,-0.0009548065718263388,1,0.001177138416096568,1
1773072852354427136,0.03029138594865799,1,-0.0657326951622963,1,0.03683304786682129,1,-0.001305269077420235,1,-0.001136058825068176,1,0.0006065510679036379,1
1773072852364699136,-0.04989851266145706,1,-0.02223675325512886,1,0.04590418189764023,1,-0.005889149848371744,1,-0.001706153503619134,1,0.0001940654474310577,1
1773072852374873344,-0.1082124039530754,1,0.01680930331349373,1,0.04044514894485474,1,-0.003035580273717642,1,-0.001344160409644246,1,0.0002874759084079415,1
1773072852384950272,-0.07208918035030365,1,0.02535154297947884,1,0.04692549630999565,1,0.002518285997211933,1,-0.0006297457148320973,1,0.0005806329427286983,1
1773072852394933248,0.0003421483561396599,1,-0.02787118032574654,1,0.06607528775930405,1,0.002993374364450574,1,0.001494102994911373,1,0.00118599645793438,1
1773072852404820224,0.03008236363530159,1,-0.05193226411938667,1,0.07743673026561737,1,-0.002905456814914942,1,0.000616959820035845,1,0.0004228109610266984,1
1773072852414611968,-0.06477998197078705,1,-0.002630805596709251,1,0.05608013272285461,1,-0.005141874775290489,1,-0.0008636629790998995,1,0.0004495222528930753,1
1773072852424312064,-0.1285807937383652,1,0.03249435499310493,1,0.03577888756990433,1,-0.0003028006467502564,1,-0.001249278080649674,1,0.0006904418114572763,1
1773072852433920768,-0.1086887866258621,1,0.02510062046349049,1,0.01953620463609695,1,0.004771364387124777,1,-0.001258129603229463,1,0.0009801071137189865,1
1773072852443436544,-0.03193886578083038,1,-0.02770157903432846,1,0.02573294751346111,1,0.004788232501596212,1,-2.605431654956192e-05,1,0.0008256417931988835,1
1773072852452860928,-0.003106372430920601,1,-0.04518607631325722,1,0.03422709926962852,1,-0.002054444048553705,1,0.0004479673225432634,1,0.0002487502351868898,1
1773072852462194688,-0.08770427107810974,1,0.009396329522132874,1,0.0323658399283886,1,-0.006540650967508554,1,0.0004797088331542909,1,0.0002916534140240401,1
1773072852472487424,-0.1324463039636612,1,0.04431285709142685,1,0.02461741864681244,1,-0.003738369094207883,1,0.0006824391894042492,1,0.0007981921662576497,1
1773072852483130880,-0.07173433899879456,1,0.03325409442186356,1,0.01217001676559448,1,0.001070161932148039,1,0.001506589818745852,1,0.001154755707830191,1
1773072852493675008,0.01415445283055305,1,-0.02250240370631218,1,0.01373907551169395,1,0.002512166043743491,1,0.001859797514043748,1,0.0008913398487493396,1
1773072852504121856,0.01864008605480194,1,-0.02595009468495846,1,0.03501478210091591,1,-0.00044760707532987,1,0.001129090669564903,1,0.0004739335272461176,1
1773072852514470400,-0.08108547329902649,1,0.01908508688211441,1,0.04869914799928665,1,-0.001865891623310745,1,-6.658181519014761e-06,1,0.0002755764871835709,1
1773072852524718336,-0.1262238174676895,1,0.03910185396671295,1,0.02672345004975796,1,0.001658553490415215,1,-0.0001599180104676634,1,0.0009656601469032466,1
1773072852534870272,-0.06046221405267715,1,0.001642219256609678,1,-0.002416038885712624,1,0.005802609492093325,1,0.0009216333273798227,1,0.001594902598299086,1
1773072852544924928,0.03112062439322472,1,-0.05886820703744888,1,0.006455867551267147,1,0.004069119691848755,1,0.002024996094405651,1,0.0009539058082737029,1
1773072852554883840,0.03662531077861786,1,-0.06379991769790649,1,0.03284497559070587,1,-0.003341087605804205,1,0.001895605470053852,1,0.0005501661798916757,1
1773072852564769792,-0.0507061667740345,1,-0.01124886516481638,1,0.03219743072986603,1,-0.007262739818543196,1,0.001671444741077721,1,0.0004296288825571537,1
1773072852574562560,-0.08375874161720276,1,0.01762600056827068,1,0.01336864102631807,1,-0.002854754682630301,1,0.00177191651891917,1,0.001035361317917705,1
1773072852584261632,-0.0173899345099926,1,-0.008931848220527172,1,0.01902828179299831,1,0.003656662767753005,1,0.002306229900568724,1,0.001444673980586231,1
1773072852593868544,0.0651264414191246,1,-0.05526010692119598,1,0.06090481579303741,1,0.003803666913881898,1,0.002180089009925723,1,0.001016925903968513,1
1773072852603384064,0.05287329852581024,1,-0.06019431725144386,1,0.08765696734189987,1,-0.002248757518827915,1,0.0008298158063553274,1,0.0006575132138095796,1
1773072852612808192,-0.05286142602562904,1,-0.007587022613734007,1,0.07040560245513916,1,-0.004316926468163729,1,-0.0007992354803718626,1,0.0007960741640999913,1
1773072852622144512,-0.09466199576854706,1,0.01741031929850578,1,0.04147057980298996,1,0.0004979290533810854,1,-0.0009079189039766788,1,0.001268798834644258,1
1773072852632873728,-0.02366332709789276,1,-0.01303224079310894,1,0.02375444583594799,1,0.005265550687909126,1,-0.000214810628676787,1,0.001455004443414509,1
1773072852643502080,0.0634196549654007,1,-0.05727631971240044,1,0.03152608871459961,1,0.002452228916808963,1,0.0007994562620297074,1,0.0009841157589107752,1
1773072852654027776,0.03461083769798279,1,-0.04036401584744453,1,0.04980326816439629,1,-0.005313585512340069,1,0.0004420621844474226,1,0.000219185691094026,1
1773072852664454656,-0.06344081461429596,1,0.02409895323216915,1,0.04301761463284492,1,-0.008074508048593998,1,-0.0008136301767081022,1,0.000254951766692102,1
1773072852674779648,-0.1174841821193695,1,0.05103442817926407,1,0.02237126417458057,1,-0.001102381967939436,1,-0.001086843549273908,1,0.001056460780091584,1
1773072852685004288,-0.03563550487160683,1,0.004795843735337257,1,0.02212295867502689,1,0.004847326315939426,1,-0.0006174857262521982,1,0.001011560205370188,1
1773072852695129088,0.03268879652023315,1,-0.03507931530475616,1,0.03275052830576897,1,0.003500983817502856,1,-0.0006346459849737585,1,0.0004712423833552748,1
1773072852705154816,-0.0002711471170186996,1,-0.0371616818010807,1,0.05318433791399002,1,-0.002751555293798447,1,-0.0007728163618594408,1,-0.0001088984499801882,1
1773072852715083008,-0.1034457385540009,1,0.02465550974011421,1,0.03465746715664864,1,-0.00506159383803606,1,-0.001747399801388383,1,-0.0001282520534005016,1
1773072852724914688,-0.1255318373441696,1,0.04691608250141144,1,-0.003724179696291685,1,-0.0005196061101742089,1,-0.001121594337746501,1,0.0005285475635901093,1
1773072852734659328,-0.04686643183231354,1,0.01059792377054691,1,-0.01073265727609396,1,0.003278364893049002,1,0.0006194035522639751,1,0.001293887733481824,1
1773072852744311296,0.0133385518565774,1,-0.03518461808562279,1,0.02095453999936581,1,0.0005324876983650029,1,0.001389014534652233,1,0.0008059337269514799,1
1773072852753869056,-0.02031189016997814,1,-0.02337801456451416,1,0.04723925143480301,1,-0.005289795808494091,1,0.0003936590801458806,1,0.000123078454635106,1
1773072852763333888,-0.1159457191824913,1,0.0321425274014473,1,0.03541228920221329,1,-0.004114338662475348,1,-0.0006791276973672211,1,0.0001382732298225164,1
1773072852772705536,-0.1299782544374466,1,0.05112027004361153,1,0.01625559106469154,1,0.00268110865727067,1,-0.0005592072266153991,1,0.001022774493321776,1
1773072852782138112,-0.05707976222038269,1,0.01445049978792667,1,0.01192975323647261,1,0.00692024827003479,1,0.0004272253136150539,1,0.001368331257253885,1
1773072852792836096,0.01119691878557205,1,-0.04504149407148361,1,0.02473463676869869,1,0.003236970864236355,1,0.001648652018047869,1,0.0009360881522297859,1
1773072852803429632,-0.005815350450575352,1,-0.03379160538315773,1,0.02969262003898621,1,-0.003428902477025986,1,0.000895206059794873,1,0.0004352300311438739,1
1773072852813921024,-0.09191854298114777,1,0.0170186460018158,1,0.03029010631144047,1,-0.003488557180389762,1,0.001005319762043655,1,0.0008603924070484936,1
1773072852824312832,-0.107656441628933,1,0.03131242096424103,1,0.0394037701189518,1,0.001790037960745394,1,0.00175185059197247,1,0.001481384970247746,1
1773072852834603520,-0.03513334691524506,1,-0.003501208033412695,1,0.04752843827009201,1,0.004422001074999571,1,0.002210569102317095,1,0.001708505325950682,1
1773072852844793856,0.03809577599167824,1,-0.05349179729819298,1,0.06099439784884453,1,0.001888972939923406,1,0.002053966047242284,1,0.0008487587329000235,1
1773072852854884864,0.007308316417038441,1,-0.04206139221787453,1,0.07086349278688431,1,-0.002640778897330165,1,0.0005439292872324586,1,0.0002876330399885774,1
1773072852864876800,-0.08224187791347504,1,0.01062397286295891,1,0.05687141045928001,1,-0.002694329479709268,1,-0.001079857116565108,1,0.0003067062352783978,1
1773072852874771712,-0.1048894450068474,1,0.03637275472283363,1,0.03422781452536583,1,0.002973033813759685,1,-0.00133791787084192,1,0.001095619285479188,1
1773072852884570624,-0.02258086577057838,1,-0.0191461481153965,1,0.0230428334325552,1,0.006389034911990166,1,-0.0003722497203852981,1,0.001374146435409784,1
1773072852894274304,0.05182593688368797,1,-0.06509232521057129,1,0.02861151844263077,1,0.003675790270790458,1,-0.0001954252074938267,1,0.000842537556309253,1
1773072852903887360,0.01703670434653759,1,-0.06186180934309959,1,0.05041267722845078,1,-0.001644292497076094,1,6.063874752726406e-05,1,0.0001749114744598046,1
1773072852913415680,-0.05430712550878525,1,0.00154813751578331,1,0.04879496991634369,1,-0.004363640677183867,1,-0.001432431163266301,1,-0.0001504670508438721,1
1773072852922854912,-0.09177143126726151,1,0.002825737465173006,1,0.02572423592209816,1,-0.0006592940771952271,1,0.0004812388215214014,1,0.0004435860901139677,1
1773072852932203520,-0.0167577862739563,1,-0.0122646689414978,1,0.00371827743947506,1,0.003997277468442917,1,-0.0001148792216554284,1,0.001421920722350478,1
1773072852942066432,0.03715166077017784,1,-0.02277524024248123,1,0.0426902137696743,1,0.00320233847014606,1,0.001049375045113266,1,0.0009829655755311251,1
1773072852952738816,0.04514801874756813,1,-0.06384864449501038,1,0.07394988834857941,1,-0.004412710666656494,1,-0.0007240295526571572,1,0.0003250151057727635,1
1773072852963309568,-0.09429673850536346,1,0.009602231904864311,1,-0.001899519003927708,1,-0.005278256721794605,1,-0.004178203642368317,1,0.0006301832036115229,1
1773072852973779456,-0.125153437256813,1,0.02942023612558842,1,0.01983231864869595,1,0.0004804724012501538,1,-0.001507036271505058,1,0.0009554581483826041,1
1773072852984153856,-0.03474238514900208,1,0.006786931771785021,1,0.03159062936902046,1,0.003320142859593034,1,-0.001811633119359612,1,0.001449987874366343,1
1773072852994438400,0.0906764417886734,1,-0.07285997271537781,1,-0.03038286790251732,1,-0.003775544930249453,1,0.0004717524570878595,1,0.0007743026944808662,1
1773072853004624384,0.04929765313863754,1,-0.0287727378308773,1,-0.05018579214811325,1,-0.006306234281510115,1,0.0003004787140525877,1,0.0004618185921572149,1
1773072853014711808,-0.08538361638784409,1,0.006647739093750715,1,0.06655077636241913,1,-0.004927618429064751,1,0.002459624083712697,1,0.0005173410172574222,1
1773072853024704000,-0.1052689701318741,1,0.03563367575407028,1,0.09566625207662582,1,-0.002033188240602612,1,-0.0006066388450562954,1,0.001397100160829723,1
1773072853034599680,-0.05613582208752632,1,0.03256323933601379,1,0.008661129511892796,1,0.004228767938911915,1,-0.0003422220761422068,1,0.00155466899741441,1
1773072853044400640,0.03066605888307095,1,-0.03879660740494728,1,0.0315626859664917,1,0.005618002731353045,1,0.001631854916922748,1,0.001337905297987163,1
1773072853054111232,-0.02560252323746681,1,-0.03557632490992546,1,0.06799963861703873,1,-0.000663808430545032,1,-0.001265140250325203,1,0.0007694609230384231,1
1773072853063729408,-0.1061222851276398,1,0.01874968409538269,1,0.02768271416425705,1,-0.001920786104165018,1,-0.002787336241453886,1,0.0006756620132364333,1
1773072853073255936,-0.1125573068857193,1,0.0505211316049099,1,-0.007378571666777134,1,0.003556843381375074,1,-0.001479636412113905,1,0.001175628509372473,1
1773072853082691328,-0.03767111152410507,1,-0.006077725440263748,1,0.01621333509683609,1,0.005193663295358419,1,0.001375818043015897,1,0.001232351874932647,1
1773072853092036352,0.03628981113433838,1,-0.05145736411213875,1,0.04304395243525505,1,-0.0006597494357265532,1,0.0009783661225810647,1,0.0005133220111019909,1
1773072853102333440,-0.01470030378550291,1,-0.02574658393859863,1,0.04275866597890854,1,-0.006054708734154701,1,0.00040159493801184,1,8.327760588144884e-05,1
1773072853112978944,-0.1070361360907555,1,0.008710969239473343,1,0.05430535599589348,1,-0.005189582239836454,1,-0.0003664744144771248,1,-0.000127215520478785,1
1773072853123523840,-0.1458653211593628,1,0.06797070801258087,1,0.01153956726193428,1,0.001986408606171608,1,-0.002224919386208057,1,0.001239017001353204,1
1773072853133967872,-0.08002246916294098,1,0.005245215259492397,1,0.01639017835259438,1,0.007893901318311691,1,0.00234198709949851,1,0.0012630894780159,1
1773072853144318208,-0.01596891321241856,1,-0.1080349236726761,1,0.06871403753757477,1,0.006143787875771523,1,0.0001193226489704102,1,0.0005313556757755578,1
1773072853154574848,0.001441188156604767,1,-0.0581103041768074,1,0.01686383411288261,1,-0.004713486414402723,1,-0.003802877385169268,1,0.0002356276818318292,1
1773072853164733696,-0.1013805493712425,1,0.03580654039978981,1,0.01243928074836731,1,-0.004686837084591389,1,0.002374703763052821,1,0.0003497178840916604,1
1773072853174796288,-0.1031148731708527,1,0.01922641694545746,1,0.085274338722229,1,-0.001081747352145612,1,0.002854930702596903,1,0.001230174908414483,1
1773072853184764416,-0.03077965974807739,1,0.001555486116558313,1,0.03684455901384354,1,-0.001060674083419144,1,5.252231494523585e-05,1,0.001282986020669341,1
1773072853194636288,0.04936252161860466,1,-0.0212318692356348,1,0.02300177700817585,1,0.0004357794241514057,1,0.001512432238087058,1,0.001067527919076383,1
1773072853204414976,0.01717104762792587,1,-0.0363096259534359,1,0.08379060029983521,1,-0.001624816562980413,1,0.001106212730519474,1,0.0008252897532656789,1
1773072853214102528,-0.09283208101987839,1,0.01007462479174137,1,0.08641421049833298,1,-0.001594715635292232,1,-0.00211114645935595,1,0.0008059273823164403,1
1773072853223696128,-0.09793881326913834,1,0.01614601723849773,1,0.03421768173575401,1,0.004309239331632853,1,-0.001463193912059069,1,0.001366371638141572,1
1773072853233197824,-0.002315094694495201,1,-0.00574540626257658,1,0.03636333718895912,1,0.007821662351489067,1,0.0002819353831000626,1,0.001330587547272444,1
1773072853242607872,0.07377436757087708,1,-0.07250576466321945,1,0.05976779013872147,1,0.001224854728206992,1,0.001908069592900574,1,0.0009572688722983003,1
1773072853251927296,0.027810949832201,1,-0.03771385177969933,1,0.04163578525185585,1,-0.007646357640624046,1,0.0008968324982561171,1,0.0002467872691340744,1
1773072853262656768,-0.09227705001831055,1,0.03395660221576691,1,0.01550120487809181,1,-0.006726012099534273,1,-0.0003029816725756973,1,0.0002952632785309106,1
1773072853273287168,-0.1183320805430412,1,0.05289376899600029,1,0.01220208685845137,1,0.001412393292412162,1,-0.0006170179694890976,1,0.001118040294386446,1
1773072853283817728,-0.03035086393356323,1,-0.01373852696269751,1,0.009132729843258858,1,0.00768245430663228,1,-0.0005224102642387152,1,0.001196961500681937,1
1773072853294248448,0.05509161576628685,1,-0.06852474808692932,1,0.01947863772511482,1,0.005026781931519508,1,-0.001184853143058717,1,0.0002440113894408569,1
1773072853304579584,-0.01998431235551834,1,-0.04335739091038704,1,0.03776165843009949,1,-0.0021850042976439,1,-0.001261437893845141,1,-6.329838652163744e-05,1
1773072853314813696,-0.1134922280907631,1,0.005484911613166332,1,0.02984148263931274,1,-0.005150162614881992,1,-0.001402879715897143,1,9.12699251784943e-05,1
1773072853324961536,-0.1093151718378067,1,0.03906627371907234,1,-0.0173586830496788,1,-0.001539227203465998,1,-0.00110753788612783,1,0.0008979709236882627,1
1773072853335021312,-0.008997490629553795,1,-0.007140289526432753,1,-0.02897150069475174,1,0.001612091669812799,1,0.001046262681484222,1,0.00120121834333986,1
1773072853344985344,0.04281134530901909,1,-0.05017539858818054,1,0.00953337736427784,1,-0.0007755339029245079,1,0.001644226256757975,1,0.0006552677950821817,1
1773072853354856704,-0.001459915656596422,1,-0.05445008352398872,1,0.04714981094002724,1,-0.005233399104326963,1,0.0001911773579195142,1,0.0003875112452078611,1
1773072853364635136,-0.08723506331443787,1,0.01277655269950628,1,0.04511691629886627,1,-0.001507424283772707,1,-0.001757803256623447,1,0.0006342553533613682,1
1773072853374319360,-0.0850960835814476,1,0.0292559489607811,1,0.05708560347557068,1,0.006798400543630123,1,-6.723153637722135e-05,1,0.001028860220685601,1
1773072853383911936,0.01105191186070442,1,-0.04556078091263771,1,0.06183622777462006,1,0.006659205071628094,1,0.001130213611759245,1,0.001144727226346731,1
1773072853393416704,0.06814870238304138,1,-0.04942694678902626,1,0.01118296105414629,1,-0.000406885810662061,1,0.000511259597260505,1,0.0006863581947982311,1
1773072853402830592,-0.02103303000330925,1,-0.0162439439445734,1,0.03193071857094765,1,-0.004697824362665415,1,0.002462575677782297,1,0.0007280246936716139,1
1773072853412301568,-0.1261160522699356,1,0.02223668619990349,1,0.06444369256496429,1,-0.004267438314855099,1,-0.0001107711723307148,1,0.001036361092701554,1
1773072853423003136,-0.1358076632022858,1,0.05256406590342522,1,0.001134062185883522,1,0.0001519864890724421,1,-0.001623274991288781,1,0.00149711943231523,1
1773072853433605632,-0.03440381959080696,1,0.008534902706742287,1,-0.01075859740376472,1,0.008406892418861389,1,0.0007526859408244491,1,0.001448513008654118,1
1773072853444111104,0.04863554611802101,1,-0.05397270619869232,1,0.07439905405044556,1,0.002834284212440252,1,0.001018249429762363,1,0.0002785263932310045,1
1773072853454518016,-0.02811460383236408,1,-0.02898801863193512,1,0.07796894013881683,1,-0.006311209872364998,1,-0.001211345079354942,1,-0.000193807136383839,1
1773072853464825088,-0.1141948327422142,1,0.04501644521951675,1,0.01631760783493519,1,-0.00708965165540576,1,-0.00128566671628505,1,-0.0002750525018200278,1
1773072853475034880,-0.1173017546534538,1,0.07282694429159164,1,0.00992946419864893,1,-0.0003851765068247914,1,0.0004116858472116292,1,0.0005972477956674993,1
1773072853485148416,-0.02550109475851059,1,0.008547187782824039,1,0.0270957387983799,1,0.002945770043879747,1,0.001604728633537889,1,0.0005689563695341349,1
1773072853495186944,0.02431523986160755,1,-0.0286247543990612,1,0.03457391262054443,1,0.001155954087153077,1,0.0004844081995543092,1,-0.0001689299824647605,1
1773072853505131520,-0.04219137504696846,1,-0.01291846111416817,1,0.0544937364757061,1,-0.0009689809521660209,1,-0.0007182531408034265,1,-0.0003473343094810843,1
1773072853514980864,-0.10971899330616,1,0.02606948837637901,1,0.062708780169487,1,0.001574165304191411,1,-0.001794885727576911,1,0.0003624181845225394,1
1773072853524738816,-0.04931626841425896,1,0.00346713699400425,1,0.02184055373072624,1,0.005779929924756289,1,-0.001083338400349021,1,0.0008649668307043612,1
1773072853534403840,0.04641697555780411,1,-0.0463741272687912,1,0.01835814118385315,1,0.004475731402635574,1,0.002199443290010095,1,0.000716247595846653,1
1773072853543976448,0.06735551357269287,1,-0.08436314761638641,1,0.06193480640649796,1,-0.002579454099759459,1,0.00386609579436481,1,0.0004217185196466744,1
1773072853553463040,0.0318109355866909,1,-0.0415615476667881,1,0.05630529671907425,1,-0.008109277114272118,1,0.001759055652655661,1,-0.000133690147777088,1
1773072853562860544,-0.04275301098823547,1,0.006937285419553518,1,0.02576150931417942,1,-0.002860479755327106,1,0.001104644266888499,1,0.0002951290225610137,1
1773072853572747520,-0.04687193036079407,1,0.01505555491894484,1,0.04911936819553375,1,0.00506166834384203,1,0.001049731392413378,1,0.001048399717546999,1
1773072853583404288,-0.02068043313920498,1,-0.01792161725461483,1,0.07913948595523834,1,0.006591545417904854,1,8.223871554946527e-05,1,0.001555335125885904,1
1773072853593960192,0.007107103709131479,1,-0.0692799910902977,1,0.0485595315694809,1,0.001744599081575871,1,-0.001600048621185124,1,0.001194797339849174,1
1773072853604416000,-0.03887157514691353,1,-0.05650319904088974,1,0.007531449198722839,1,-0.002509314799681306,1,-0.002538891509175301,1,0.0007460351916961372,1
1773072853614777600,-0.1451148688793182,1,-0.001717761158943176,1,0.005833134055137634,1,-0.001776046701706946,1,-0.00157466612290591,1,0.0008162726298905909,1
1773072853625039360,-0.1841321438550949,1,0.03022542037069798,1,0.02390218526124954,1,3.256115451222286e-05,1,-0.001093304366804659,1,0.0009789239848032594,1
1773072853635203840,-0.1267689913511276,1,-0.01690112426877022,1,-0.007089633028954268,1,-0.002785717602819204,1,-0.002161519136279821,1,-3.259650839027017e-05,1
1773072853645274112,-0.1437737047672272,1,0.0191146656870842,1,-0.04208159446716309,1,-0.007406171411275864,1,-0.002919105347245932,1,-0.0009803085122257471,1
1773072853655249152,-0.2851811051368713,1,0.05489964410662651,1,-0.03946870937943459,1,-0.00860089436173439,1,-0.007518546655774117,1,-0.0006314113270491362,1
1773072853665128192,-0.515816330909729,1,0.07872873544692993,1,-0.05701794475317001,1,-0.003884914796799421,1,-0.01260787062346935,1,0.0003874099638778716,1
1773072853674914816,-0.5055657029151917,1,0.06878070533275604,1,-0.0815943107008934,1,0.004864464048296213,1,-0.01373223029077053,1,0.001315999892540276,1
1773072853684608512,-0.4161824882030487,1,-0.04403558745980263,1,-0.112364150583744,1,0.007465477101504803,1,-0.01298573240637779,1,0.001127638970501721,1
1773072853694222080,-0.3077281713485718,1,-0.08317309617996216,1,-0.1025117635726929,1,0.0005335759487934411,1,-0.005649025086313486,1,-0.0001198621175717562,1
1773072853703751936,-0.3507601022720337,1,-0.04358898103237152,1,-0.04579002782702446,1,-0.01145198754966259,1,-0.003221743041649461,1,-0.0005334856687113643,1
1773072853713190656,-0.47145676612854,1,0.03173159435391426,1,-0.03497108072042465,1,-0.01789873465895653,1,-0.001071186969056726,1,6.413183291442692e-05,1
1773072853722539520,-0.4481519758701324,1,0.07310719043016434,1,-0.05323693156242371,1,-0.01101902779191732,1,-0.002050671726465225,1,0.001235327566973865,1
1773072853732833792,-0.3314048647880554,1,0.04391971603035927,1,-0.03885989636182785,1,-7.433496648445725e-05,1,-0.002299216343089938,1,0.001827635569497943,1
1773072853743472896,-0.2839425206184387,1,-0.001695068553090096,1,0.03282637894153595,1,0.004965248052030802,1,-0.003281231969594955,1,0.001834501163102686,1
1773072853754011136,-0.4098562598228455,1,-0.018553102388978,1,0.07968208193778992,1,0.004004265181720257,1,-0.00554667366668582,1,0.002126643899828196,1
1773072853764448000,-0.5210952162742615,1,0.04167259857058525,1,0.02550758793950081,1,0.006809628568589687,1,-0.008279635570943356,1,0.002543277572840452,1
1773072853774796544,-0.4570516645908356,1,-0.000902986153960228,1,-0.06160547584295273,1,0.01208605989813805,1,-0.006257819011807442,1,0.002974732546135783,1
1773072853785046016,-0.2995203137397766,1,-0.05946918576955795,1,-0.08124670386314392,1,0.009024309925734997,1,-0.0006025699549354613,1,0.002443096367642283,1
1773072853795197184,-0.2076981365680695,1,-0.09048439562320709,1,-0.04596035927534103,1,-0.004388147033751011,1,0.003920017741620541,1,0.001646062009967864,1
1773072853805253376,-0.2871384918689728,1,-0.02500802278518677,1,0.001997855259105563,1,-0.0144138028845191,1,0.005799402482807636,1,0.001414243830367923,1
1773072853815212800,-0.3686659634113312,1,0.0513923317193985,1,0.061660036444664,1,-0.01118057407438755,1,0.005558143835514784,1,0.001944536110386252,1
1773072853825076224,-0.35540372133255,1,0.08642367273569107,1,0.1231980100274086,1,0.001312714070081711,1,0.004320329986512661,1,0.002325686626136303,1
1773072853834845696,-0.2725424766540527,1,-0.003135635517537594,1,0.1591203510761261,1,0.008017218671739101,1,0.002708009909838438,1,0.002172272652387619,1
1773072853844522240,-0.2732018232345581,1,-0.01231150235980749,1,0.1503769755363464,1,0.008254745975136757,1,-0.001797514036297798,1,0.001310711842961609,1
1773072853854105088,-0.3838701248168945,1,-0.00906689465045929,1,0.1037803068757057,1,0.007331310771405697,1,-0.004528370220214128,1,0.0009157888707704842,1
1773072853863595520,-0.4512527883052826,1,0.04861976206302643,1,0.04155461490154266,1,0.008268324658274651,1,-0.006091006100177765,1,0.0007569870795123279,1
1773072853872994304,-0.3727754652500153,1,0.01514428108930588,1,-0.01972089521586895,1,0.007818124257028103,1,-0.002494681859388947,1,0.0008005156996659935,1
1773072853882453504,-0.2088206261396408,1,-0.02842151746153831,1,-0.01171001512557268,1,0.0007331273518502712,1,0.0009831857169046998,1,-4.267767508281395e-05,1
1773072853893177344,-0.1801469326019287,1,-0.04304061830043793,1,0.03907451406121254,1,-0.01246680412441492,1,0.003430721815675497,1,-0.000724244280718267,1
1773072853903798016,-0.2955195307731628,1,0.03743512555956841,1,0.0947490781545639,1,-0.01768284104764462,1,0.00278396182693541,1,-0.001319784787483513,1
1773072853914320384,-0.4139553904533386,1,0.1096480190753937,1,0.1388625651597977,1,-0.008790861815214157,1,0.0004048123664688319,1,-0.001129043404944241,1
1773072853924743936,-0.3690589070320129,1,0.08296040445566177,1,0.1232971027493477,1,0.004491950385272503,1,-0.004344393033534288,1,-0.0006110248505137861,1
1773072853935066624,-0.3028204739093781,1,0.0162140391767025,1,0.09990721195936203,1,0.01224589161574841,1,-0.004469395615160465,1,-0.0005635349079966545,1
1773072853945289984,-0.2538588047027588,1,-0.0523441918194294,1,0.1021595299243927,1,0.008638286963105202,1,-0.005676721688359976,1,-0.001232335111126304,1
1773072853955415552,-0.3352252840995789,1,-0.01832587271928787,1,0.02612289600074291,1,-0.0007747972849756479,1,-0.007808226626366377,1,-0.001196605851873755,1
1773072853965444096,-0.4045284986495972,1,0.03813445568084717,1,-0.04146945476531982,1,-0.001668951823376119,1,-0.005375372245907784,1,-0.0006058369763195515,1
1773072853975377152,-0.3276987373828888,1,0.009076268412172794,1,-0.05680327489972115,1,-0.001839673146605492,1,-0.0007229485781863332,1,-0.0001672317885095254,1
1773072853985216768,-0.223183810710907,1,-0.01761887967586517,1,-0.03962786495685577,1,-0.004330035764724016,1,0.001393771963194013,1,-7.590079621877521e-05,1
1773072853994961152,-0.2041894197463989,1,-0.05152186751365662,1,-0.01252426020801067,1,-0.009460831992328167,1,0.001740543404594064,1,1.732000600895844e-05,1
1773072854004611072,-0.3348602056503296,1,0.03368553146719933,1,0.006705168634653091,1,-0.007545770145952702,1,-0.00109068606980145,1,0.000799276283942163,1
1773072854014168064,-0.4302631318569183,1,0.06095622107386589,1,0.01149546075612307,1,0.002545133233070374,1,-0.002492485800758004,1,0.002007332630455494,1
1773072854023656192,-0.3976348042488098,1,0.02741548046469688,1,0.0007466087117791176,1,0.01249873172491789,1,-0.003211290342733264,1,0.002467944519594312,1
1773072854033067520,-0.2858400344848633,1,-0.05083468183875084,1,-0.02961644716560841,1,0.01117386389523745,1,-0.002318238373845816,1,0.001876582507975399,1
1773072854042535424,-0.2394960820674896,1,-0.0622529573738575,1,-0.07032175362110138,1,0.002176082693040371,1,-0.001445584348402917,1,0.001659207162447274,1
1773072854053223680,-0.3122048079967499,1,-0.02798748388886452,1,-0.08732151240110397,1,-0.006873328238725662,1,0.001560066128149629,1,0.001838439493440092,1
1773072854063809792,-0.3554308116436005,1,0.04495184868574142,1,-0.09456570446491241,1,-0.006835106294602156,1,0.002072349656373262,1,0.002462768694385886,1
1773072854074293248,-0.3106854856014252,1,0.04062866047024727,1,-0.06314806640148163,1,-0.001587966922670603,1,0.004640862345695496,1,0.002822734881192446,1
1773072854084679680,-0.211356595158577,1,-0.002452772576361895,1,0.003978138323873281,1,0.0002244798088213429,1,0.004392980132251978,1,0.002227984834462404,1
1773072854094972672,-0.2429211884737015,1,0.005077600479125977,1,0.0305052325129509,1,-0.00124981056433171,1,0.001228957436978817,1,0.001655738800764084,1
1773072854105167360,-0.3579813241958618,1,0.04421061649918556,1,0.03910275548696518,1,0.001494286581873894,1,-0.0006702381651848555,1,0.001405352842994034,1
1773072854115262464,-0.4145562350749969,1,0.06544605642557144,1,0.01420846208930016,1,0.008117701858282089,1,-0.003310606116428971,1,0.001891338150016963,1
1773072854125261568,-0.34311842918396,1,0.02499068714678288,1,-0.0289604663848877,1,0.01120887696743011,1,-0.002296149497851729,1,0.001607316429726779,1
1773072854135163392,-0.2465278655290604,1,-0.04399300366640091,1,-0.02843899838626385,1,0.006291770376265049,1,-0.0007123494287952781,1,0.0005015793140046299,1
1773072854144969984,-0.2374461740255356,1,-0.03367610648274422,1,-0.01251285895705223,1,-0.00689508905634284,1,-9.309855522587895e-05,1,-0.0004828356031794101,1
1773072854154685952,-0.3590272068977356,1,0.04472114890813828,1,0.001198973506689072,1,-0.009469478391110897,1,0.0005733607104048133,1,-0.0004504369571805,1
1773072854164308480,-0.3626288771629333,1,0.04092547297477722,1,0.0308119673281908,1,-0.006706908345222473,1,0.001067161792889237,1,-0.0003785733715631068,1
1773072854173837824,-0.3234454691410065,1,0.0632726177573204,1,0.02728250622749329,1,0.00346973305568099,1,-0.001034006476402283,1,-0.0001063280506059527,1
1773072854183275008,-0.2107774168252945,1,-0.01449671946465969,1,0.1101445183157921,1,0.006215288303792477,1,0.0008713598363101482,1,-0.0007427760865539312,1
1773072854192621056,-0.2121370285749435,1,-0.0277717337012291,1,0.1197725534439087,1,0.0006887121126055717,1,-0.002368874847888947,1,-0.0009778167586773634,1
1773072854202476800,-0.3391634225845337,1,-0.008484290912747383,1,0.03872016817331314,1,-0.0004344543558545411,1,-0.003846107982099056,1,-0.001235046656802297,1
1773072854213134080,-0.3827601075172424,1,0.02145509794354439,1,0.0158033724874258,1,0.005530138034373522,1,-0.002958260010927916,1,-0.0004701726720668375,1
1773072854223691520,-0.3318092226982117,1,-0.01870359666645527,1,0.03408249467611313,1,0.007583723403513432,1,-0.001394461491145194,1,-0.0005282860365696251,1
1773072854234147584,-0.2193011343479156,1,-0.06751260161399841,1,0.05164441838860512,1,0.002729695057496428,1,0.0004063692758791149,1,-0.001186083536595106,1
1773072854244503296,-0.1798589527606964,1,-0.0692613273859024,1,0.03736215829849243,1,-0.006671718787401915,1,0.001367266871966422,1,-0.001328706042841077,1
1773072854254758400,-0.2656648457050323,1,0.01753033883869648,1,0.03004364669322968,1,-0.006889401935040951,1,0.0002920654078479856,1,-0.001118080806918442,1
1773072854264915712,-0.2861862480640411,1,0.04214205220341682,1,0.04803450033068657,1,-0.002797073218971491,1,0.001193432603031397,1,-0.0001068708224920556,1
1773072854274974720,-0.2399110049009323,1,0.01135672815144062,1,0.02482170611619949,1,0.001445819973014295,1,0.002585100475698709,1,0.0004889441188424826,1
1773072854284941824,-0.1620708853006363,1,-0.03564746677875519,1,0.06803245842456818,1,0.005153129808604717,1,0.004585724323987961,1,0.0004286938637960702,1
1773072854294837504,-0.1242292076349258,1,-0.03617830201983452,1,0.1160383522510529,1,0.001868532737717032,1,0.002945233136415482,1,0.0005451377364806831,1
1773072854304637440,-0.2047149837017059,1,-0.002901819534599781,1,0.04965119063854218,1,-0.001200178172439337,1,0.0007304878672584891,1,0.001049647573381662,1
1773072854314343168,-0.2260380536317825,1,0.04259719699621201,1,-0.05052199587225914,1,0.001492441166192293,1,0.001459430204704404,1,0.001278699026443064,1
1773072854323956224,-0.179047703742981,1,0.01177801098674536,1,-0.04562695696949959,1,0.006240862421691418,1,0.005480119492858648,1,0.001807259628549218,1
1773072854333476352,-0.04116930812597275,1,-0.05380312353372574,1,0.02514112740755081,1,0.001433741650544107,1,0.005727436393499374,1,0.0007974969339556992,1
1773072854342904320,-0.02014489285647869,1,-0.03014512918889523,1,0.007143494673073292,1,-0.007936888374388218,1,0.004266392905265093,1,0.0005494496435858309,1
1773072854352243200,-0.1242602467536926,1,0.03466257452964783,1,0.02590272203087807,1,-0.0088766785338521,1,0.005558586213737726,1,0.0006704457919113338,1
1773072854362684672,-0.1660548150539398,1,0.05794716626405716,1,0.0666092112660408,1,-0.002548128599300981,1,0.004866053350269794,1,0.0009662099764682353,1
1773072854373323520,-0.05024022236466408,1,0.02888780646026134,1,0.0322473980486393,1,0.00489061139523983,1,0.003075348678976297,1,0.0009114581043832004,1
1773072854383861248,0.1143380030989647,1,-0.01858891546726227,1,0.01431889273226261,1,0.006691118236631155,1,0.003721265820786357,1,0.0003081336035393178,1
1773072854394304000,0.1396331340074539,1,-0.01980329304933548,1,0.03997084498405457,1,0.0007204691646620631,1,0.00490319449454546,1,-9.646115358918905e-06,1
1773072854404647424,0.01556285005062819,1,-0.007919721305370331,1,0.06873810291290283,1,-0.003959265537559986,1,0.0048347357660532,1,4.866554445470683e-05,1
1773072854414891776,-0.07370112091302872,1,0.03650140017271042,1,0.07864417135715485,1,0.0006038185674697161,1,0.003249516710639,1,0.0003082303737755865,1
1773072854425039104,0.02460149303078651,1,0.004835488274693489,1,0.08315598964691162,1,0.007938487455248833,1,0.004078653641045094,1,9.627303370507434e-05,1
1773072854435090176,0.1982339024543762,1,-0.0410187728703022,1,0.09707759320735931,1,0.007009162567555904,1,0.004992748145014048,1,-0.0005650804378092289,1
1773072854445045504,0.2664327919483185,1,-0.04388697445392609,1,0.08154433220624924,1,-0.0009575593285262585,1,0.005739197134971619,1,-0.0008873088518157601,1
1773072854454907392,0.1807253658771515,1,-0.02695132046937943,1,0.06769315898418427,1,-0.005500717088580132,1,0.004964051768183708,1,-0.0006896437844261527,1
1773072854464690432,0.09448624402284622,1,0.03729152679443359,1,0.06717266887426376,1,-0.001062288647517562,1,0.00412600627169013,1,-0.0005174582474865019,1
1773072854474389504,0.1703634858131409,1,0.0285180751234293,1,0.1032983139157295,1,0.01054126117378473,1,0.004887665156275034,1,5.854986375197768e-05,1
1773072854483996416,0.3990655839443207,1,-0.06221509352326393,1,0.1114213690161705,1,0.007975563406944275,1,0.005517151206731796,1,-0.0004405940999276936,1
1773072854493511168,0.5153472423553467,1,-0.04089812934398651,1,0.06546217203140259,1,-0.00158292765263468,1,0.01067962031811476,1,-0.0003601937205530703,1
1773072854502935552,0.4539898931980133,1,-0.02266343124210835,1,0.1534838676452637,1,-0.002563221147283912,1,0.01501919608563185,1,-0.0004396647855173796,1
1773072854512417024,0.3128657937049866,1,-0.07700975239276886,1,0.2737150192260742,1,-0.005129543598741293,1,0.0127662718296051,1,-0.0001814918068703264,1
1773072854523137792,0.1946917325258255,1,0.06013447418808937,1,0.262294739484787,1,0.002855694852769375,1,0.006768744438886642,1,0.0001442910870537162,1
1773072854533757184,0.358725517988205,1,-0.03179989010095596,1,0.2073624581098557,1,0.01501219999045134,1,0.009176426567137241,1,-0.0004115936462767422,1
1773072854544274944,0.5948634147644043,1,-0.09357316792011261,1,0.1101774126291275,1,0.01590457372367382,1,0.003452456556260586,1,-0.0004745773621834815,1
1773072854554701312,0.5771294832229614,1,-0.08408969640731812,1,-0.01399358361959457,1,0.006689503788948059,1,0.004258933942764997,1,-1.225931555381976e-06,1
1773072854565030912,0.3400829434394836,1,-0.008246760815382004,1,0.09334859251976013,1,-0.005657260306179523,1,0.009480183012783527,1,0.0005741265485994518,1
1773072854575260160,0.07373086363077164,1,0.05214446783065796,1,0.2185857146978378,1,-0.009100786410272121,1,0.008439880795776844,1,0.001671317149884999,1
1773072854585393920,0.2857027053833008,1,-0.04193476960062981,1,0.1516522914171219,1,0.002622529864311218,1,0.003921139054000378,1,0.00113199558109045,1
1773072854595430144,0.7417417764663696,1,-0.1634743213653564,1,-0.01763980835676193,1,0.009331983514130116,1,0.003603343153372407,1,0.0002257257292512804,1
1773072854605371136,0.9079174399375916,1,-0.1418903917074203,1,-0.01445159409195185,1,0.002552626188844442,1,0.01002701371908188,1,-0.0001613133063074201,1
1773072854615217664,0.6467373967170715,1,-0.04881593957543373,1,0.1551088094711304,1,-0.01714877225458622,1,0.01382898259907961,1,0.0006444322061724961,1
1773072854624970752,0.1752204596996307,1,0.07965856790542603,1,0.243523508310318,1,-0.0225168839097023,1,0.008414548821747303,1,0.00168043072335422,1
1773072854634629632,0.1287075728178024,1,0.09493088722229004,1,0.1885550022125244,1,1.194863580167294e-05,1,0.002632509218528867,1,0.002295122947543859,1
1773072854644195328,0.5375210046768188,1,-0.07942823320627213,1,0.05457028746604919,1,0.02600720152258873,1,-0.001168979913927615,1,0.002045882632955909,1
1773072854653669120,0.8578672409057617,1,-0.1641598343849182,1,-0.007128520868718624,1,0.0241547841578722,1,0.0005899006500840187,1,0.0006336221122182906,1
1773072854663051776,0.6787447929382324,1,-0.107205256819725,1,0.0125209242105484,1,-0.003714435268193483,1,0.005924457684159279,1,0.000774602172896266,1
1773072854672493312,0.2425314038991928,1,0.05881816148757935,1,0.002847594209015369,1,-0.02440742030739784,1,0.002909996313974261,1,0.001282066106796265,1
1773072854683179520,0.2085778415203094,1,0.09661459922790527,1,-0.1083494275808334,1,-0.0139551805332303,1,0.000198084773728624,1,0.001946486765518785,1
1773072854693764608,0.6580183506011963,1,-0.06189505755901337,1,-0.2053535282611847,1,0.008111379109323025,1,0.002275307197123766,1,0.001683795009739697,1
1773072854704250624,0.9163901805877686,1,-0.1230930313467979,1,-0.03960296884179115,1,0.009157526306807995,1,0.008847465738654137,1,0.0005626851343549788,1
1773072854714636032,0.6099167466163635,1,-0.06221858412027359,1,0.26136115193367,1,-0.01140518300235271,1,0.01315642427653074,1,0.000666020147036761,1
1773072854724921600,0.1931037753820419,1,0.09100686013698578,1,0.2952001094818115,1,-0.01796277612447739,1,0.002808052813634276,1,0.0007795241544954479,1
1773072854735108864,0.3350478410720825,1,0.07462657243013382,1,-0.02293649315834045,1,0.003989085555076599,1,-0.006232630461454391,1,0.0007230588234961033,1
1773072854745197056,0.7978159785270691,1,-0.07565644383430481,1,-0.3185113668441772,1,0.02392446249723434,1,-0.002167166909202933,1,0.0001929245190694928,1
1773072854755189504,0.8088789582252502,1,-0.117095485329628,1,-0.1813473254442215,1,0.01645292155444622,1,0.008236183784902096,1,-4.182255725027062e-05,1
1773072854765104128,0.3732425570487976,1,-0.02108027040958405,1,0.1470881700515747,1,-0.009106910787522793,1,0.007525201886892319,1,6.309796299319714e-05,1
1773072854774927616,0.2005843967199326,1,0.07289996743202209,1,0.1095477044582367,1,-0.01479257456958294,1,-0.0002548882621340454,1,0.0003152987046632916,1
1773072854784656640,0.5641821622848511,1,-0.008726662956178188,1,-0.1574797183275223,1,0.004362000152468681,1,-0.0005282497149892151,1,0.0002162560704164207,1
1773072854794292992,0.8176640868186951,1,-0.05468795821070671,1,-0.1195008754730225,1,0.0101540070027113,1,0.007042285520583391,1,0.0001691663783276454,1
1773072854803836416,0.5996439456939697,1,-0.06398078054189682,1,0.1404716521501541,1,-0.008460010401904583,1,0.008198614232242107,1,0.0005860828678123653,1
1773072854813287680,0.2694723308086395,1,-0.03613847494125366,1,0.08702950179576874,1,-0.01848727278411388,1,-0.004672950133681297,1,0.0003981251502409577,1
1773072854822648832,0.3735204637050629,1,0.02980284951627254,1,-0.166713684797287,1,0.004246625117957592,1,-0.0116607965901494,1,-0.0006695039919577539,1
1773072854832662272,0.5706230401992798,1,0.04920300468802452,1,-0.1166473627090454,1,0.02635987475514412,1,-0.002427676925435662,1,4.06495964853093e-05,1
1773072854843319296,0.5203981399536133,1,-0.05867195874452591,1,0.2076903581619263,1,0.01379531342536211,1,0.006940202321857214,1,0.001668474636971951,1
1773072854853874176,0.4495052397251129,1,-0.150866836309433,1,0.2154924869537354,1,-0.01462101936340332,1,0.002257569460198283,1,0.001614162232726812,1
1773072854864328704,0.5445991158485413,1,-0.1169597059488297,1,-0.07739466428756714,1,-0.01718323864042759,1,-0.004180602729320526,1,-0.0001429145049769431,1
1773072854874688000,0.503665566444397,1,0.04616159573197365,1,-0.06663022935390472,1,0.002055041957646608,1,0.0005503040738403797,1,-0.000260036438703537,1
1773072854884954624,0.3395631611347198,1,0.09983384609222412,1,0.2759319543838501,1,0.009710910730063915,1,0.004289805423468351,1,0.0014788688858971,1
1773072854895122944,0.3515439927577972,1,-0.09430905431509018,1,0.2959840893745422,1,-0.001622473006136715,1,-0.003015017136931419,1,0.002428903942927718,1
1773072854905193984,0.5015042424201965,1,-0.1196497902274132,1,-0.02451613172888756,1,-0.003251173533499241,1,-0.009137959219515324,1,0.001414005644619465,1
1773072854915170560,0.4821557998657227,1,0.03065255098044872,1,-0.01327915862202644,1,0.0122776897624135,1,-0.004681887105107307,1,0.001449857838451862,1
1773072854925051136,0.3418588936328888,1,-0.01214926782995462,1,0.2536042332649231,1,0.01189675647765398,1,-0.0006207809783518314,1,0.002507868222892284,1
1773072854934836224,0.3842247724533081,1,-0.1249086409807205,1,0.2276946604251862,1,-0.009364958852529526,1,-0.001736100181005895,1,0.001960022607818246,1
1773072854944529920,0.4581976532936096,1,-0.02207601256668568,1,-0.03543449565768242,1,-0.01860169135034084,1,-0.001423495821654797,1,0.001397544168867171,1
1773072854954129664,0.4287199676036835,1,0.01283359248191118,1,-0.02315877564251423,1,-0.001919875969178975,1,0.002521480200812221,1,0.002065955428406596,1
1773072854963636736,0.4465788304805756,1,-0.1067605763673782,1,0.1950100511312485,1,0.003983562346547842,1,0.003542558290064335,1,0.001242998521775007,1
1773072854973051648,0.4796903729438782,1,-0.01832563802599907,1,0.2162296175956726,1,-0.006145665887743235,1,0.001231299946084619,1,0.000218319270061329,1
1773072854982375680,0.4639801979064941,1,0.0654384046792984,1,0.1175329610705376,1,-0.007478161714971066,1,0.002562369219958782,1,0.001001630793325603,1
1773072854992812544,0.419046014547348,1,-0.04808767884969711,1,0.0907977968454361,1,0.0005489963223226368,1,0.002549896249547601,1,0.001625504461117089,1
1773072855003451136,0.4476199448108673,1,-0.07540120929479599,1,0.09392914175987244,1,0.0055865328758955,1,0.0007225221488624811,1,0.0007375964196398854,1
1773072855013988096,0.5054373741149902,1,0.02985319495201111,1,0.07286230474710464,1,0.005227422807365656,1,-5.614184192381799e-05,1,0.000859622610732913,1
1773072855024430080,0.4245693385601044,1,-0.03601407259702682,1,0.06377656012773514,1,0.001860830467194319,1,0.001939687877893448,1,0.00112382578663528,1
1773072855034773248,0.4618593454360962,1,-0.03719951957464218,1,0.06509885191917419,1,-0.002050671027973294,1,0.003991543781012297,1,-0.0001227013999596238,1
1773072855045015808,0.615939736366272,1,-0.007064725272357464,1,0.002948458306491375,1,-0.001114075188525021,1,0.002479317365214229,1,0.0005541174905374646,1
1773072855055162624,0.5731964111328125,1,-0.1134701669216156,1,-0.009084966033697128,1,-0.003019113093614578,1,0.003419190878048539,1,0.0005396159249357879,1
1773072855065210624,0.4567975699901581,1,0.04746214300394058,1,0.08852227032184601,1,-0.004293803125619888,1,0.004694158677011728,1,-0.0005779070197604597,1
1773072855075161600,0.4569674134254456,1,0.05232813954353333,1,0.1392332762479782,1,-0.0005186776397749782,1,0.002066756365820765,1,0.0005527349421754479,1
1773072855085018368,0.5104671716690063,1,-0.08903428167104721,1,0.0699065774679184,1,0.001030639978125691,1,-0.001148246228694916,1,0.0004964903928339481,1
1773072855094781184,0.5764808058738708,1,0.02052882127463818,1,0.0132193909958005,1,0.00611364608630538,1,-0.0007284546736627817,1,-0.0001105228438973427,1
1773072855104449536,0.5967650413513184,1,-0.02830438502132893,1,0.0208221971988678,1,0.007131385151296854,1,4.521127993939444e-05,1,0.0008497239905409515,1
1773072855114024192,0.6033734679222107,1,-0.0874163806438446,1,0.03544266521930695,1,-0.0005837357020936906,1,0.0007365034543909132,1,0.0003525681095197797,1
1773072855123505920,0.6265913844108582,1,0.01802128553390503,1,0.02805992588400841,1,-0.00464671989902854,1,0.001671427278779447,1,0.0006753425113856792,1
1773072855132896768,0.5654752850532532,1,-0.03932103887200356,1,0.07600440084934235,1,-0.002863222733139992,1,0.002741693751886487,1,0.001336502144113183,1
1773072855142348288,0.5181784629821777,1,-0.03073633834719658,1,0.1505375802516937,1,0.0003837942786049098,1,0.002193265361711383,1,0.001100326422601938,1
1773072855153066240,0.6385034322738647,1,-0.01613885723054409,1,0.1297976672649384,1,0.004789391066879034,1,-0.0005186910275369883,1,0.001651332248002291,1
1773072855163681536,0.6625344157218933,1,-0.07914408296346664,1,0.06189171224832535,1,0.006313821766525507,1,-0.001857039052993059,1,0.001566593069583178,1
1773072855174195968,0.6766959428787231,1,-0.03137541934847832,1,0.08689689636230469,1,0.004349939059466124,1,0.0006655444740317762,1,0.0007808547234162688,1
1773072855184609792,0.6775156259536743,1,-0.07773283123970032,1,0.08537168055772781,1,0.001202260493300855,1,-0.0001324527838733047,1,0.001274962327443063,1
1773072855194927616,0.6543061137199402,1,-0.09194804728031158,1,0.0558738149702549,1,0.0005614786641672254,1,0.0002768189297057688,1,0.0008300464833155274,1
1773072855205147904,0.7185099124908447,1,-0.0191748458892107,1,0.09992508590221405,1,0.005380687303841114,1,0.002663872204720974,1,0.001487554283812642,1
1773072855215269376,0.7463551163673401,1,-0.1472955793142319,1,0.1536369472742081,1,0.002333908341825008,1,0.003085584379732609,1,0.001502576982602477,1
1773072855225294592,0.7501049041748047,1,-0.05819018185138702,1,0.1529694050550461,1,-0.003405947238206863,1,0.00299909058958292,1,0.0004503021482378244,1
1773072855235222784,0.7642754912376404,1,-0.05509275943040848,1,0.1117885112762451,1,-0.003942432347685099,1,0.002203185809776187,1,0.001059856032952666,1
1773072855245055488,0.6982158422470093,1,-0.07309522479772568,1,0.06915333867073059,1,-0.00458438228815794,1,-7.820532482583076e-05,1,0.001209262409247458,1
1773072855254799616,0.6950485110282898,1,0.0005254793213680387,1,0.05760309472680092,1,0.0006124300416558981,1,0.001005513593554497,1,0.001164559507742524,1
1773072855264454912,0.7463710308074951,1,-0.05940689146518707,1,0.07382974028587341,1,0.001335374894551933,1,0.001068172045052052,1,0.00161959754768759,1
1773072855274017792,0.7252620458602905,1,-0.02884575352072716,1,0.09489724040031433,1,-0.003106723539531231,1,0.003279136726632714,1,0.001305202837102115,1
1773072855283489024,0.7866168618202209,1,0.0162021592259407,1,0.1264035552740097,1,-0.003797024488449097,1,0.006418803241103888,1,0.002018579747527838,1
1773072855292869888,0.8396064043045044,1,-0.09004323184490204,1,0.11237733066082,1,-0.006878168787807226,1,0.00688252504914999,1,0.002093445509672165,1
1773072855302459136,0.8536781668663025,1,0.01338483020663261,1,0.09941457211971283,1,-0.005048207007348537,1,0.00760756665840745,1,0.001497759949415922,1
1773072855313148928,0.8709141612052917,1,0.02857327461242676,1,0.1613759845495224,1,0.0007621406111866236,1,0.007971743121743202,1,0.002650693524628878,1
1773072855323738624,0.8025171160697937,1,-0.05687982589006424,1,0.2095402181148529,1,0.0009658546186983585,1,0.005558320321142673,1,0.002349505433812737,1
1773072855334231808,0.8284281492233276,1,0.03878230601549149,1,0.1989694684743881,1,0.00543159618973732,1,0.004521444905549288,1,0.002361980499699712,1
1773072855344627456,0.8979383111000061,1,-0.05053529143333435,1,0.1643372625112534,1,0.01062278542667627,1,0.003533296985551715,1,0.003442454850301147,1
1773072855354923520,0.8623824715614319,1,-0.1123274937272072,1,0.1475626528263092,1,0.009020593948662281,1,0.003522283863276243,1,0.002349915448576212,1
1773072855365120768,0.9224405884742737,1,-0.02345701493322849,1,0.1406702250242233,1,0.006258565001189709,1,0.004598993342369795,1,0.001721956301480532,1
1773072855375220224,0.9235576987266541,1,-0.1256685554981232,1,0.07295490801334381,1,-0.0006231394363567233,1,0.003932044375687838,1,0.001519722049124539,1
1773072855385222400,0.8549366593360901,1,-0.04971877485513687,1,0.05526865646243095,1,-0.004887993913143873,1,0.005715907551348209,1,0.0006324677378870547,1
1773072855395128320,0.8726783394813538,1,0.002292647026479244,1,0.1048388481140137,1,-0.001666312338784337,1,0.006183056626468897,1,0.001209934125654399,1
1773072855404941056,0.8633752465248108,1,-0.1545897275209427,1,0.1101102381944656,1,-0.002246766351163387,1,0.003797638462856412,1,0.0008599106804467738,1
1773072855414659584,0.9094633460044861,1,-0.03511659428477287,1,0.0975179448723793,1,-0.0004340359882917255,1,0.004144372418522835,1,-0.0003146880480926484,1
1773072855424283904,0.9730303883552551,1,-0.02682210877537727,1,0.120988130569458,1,0.00205504521727562,1,0.004835313651710749,1,0.0008298166212625802,1
1773072855433828608,0.8825503587722778,1,-0.1639610230922699,1,0.1266792118549347,1,-0.002235847990959883,1,0.004800802562385798,1,0.000873283133842051,1
1773072855443301120,0.9371078014373779,1,-0.03895443677902222,1,0.084603451192379,1,-0.003840356599539518,1,0.005165913142263889,1,8.505507139489055e-05,1
1773072855452684288,0.9665274620056152,1,-0.05080511420965195,1,0.05044227465987206,1,-0.0003469558141659945,1,0.004733591806143522,1,0.001274341251701117,1
1773072855462706944,0.8592680096626282,1,-0.14216448366642,1,0.1256053745746613,1,-2.765742829069495e-05,1,0.00815307442098856,1,0.0007137664360925555,1
1773072855473361664,0.8979289531707764,1,-0.008048880845308304,1,0.1949147582054138,1,-0.001546839135698974,1,0.00699422974139452,1,0.0001515293843112886,1
1773072855483914496,0.905209481716156,1,-0.1084749326109886,1,0.1101078540086746,1,-0.00299911992624402,1,0.00398859940469265,1,0.001015213085338473,1
1773072855494366208,0.8937263488769531,1,-0.1113477572798729,1,0.05310063064098358,1,-0.0030914347153157,1,0.005091934930533171,1,-4.698438715422526e-05,1
1773072855504719872,0.9275543093681335,1,0.005485131405293941,1,0.06797833740711212,1,0.0004003879730589688,1,0.004960381891578436,1,0.0004673912189900875,1
1773072855514984448,0.8932303190231323,1,-0.1516079604625702,1,0.06632470339536667,1,-0.003577327821403742,1,0.004166859667748213,1,0.0001419813197571784,1
1773072855525149952,0.8720602989196777,1,-0.03795885667204857,1,0.05129341036081314,1,-0.007768645882606506,1,0.00489190686494112,1,-0.001090560341253877,1
1773072855535216128,0.9405604004859924,1,0.02252663299441338,1,0.04992494359612465,1,-0.00424698693677783,1,0.005079106893390417,1,-0.0004269171913620085,1
1773072855545185280,0.9209679961204529,1,-0.1283259689807892,1,0.05401204153895378,1,-0.004926958121359348,1,0.005040378775447607,1,-0.0003021451411768794,1
1773072855555057664,0.9361715316772461,1,0.006961151957511902,1,0.08435074239969254,1,-0.005167816765606403,1,0.006049639545381069,1,-0.001523716724477708,1
1773072855564833280,0.9602167010307312,1,0.02557297050952911,1,0.05918870493769646,1,-0.003876636270433664,1,0.003144238609820604,1,-0.0006043650209903717,1
1773072855574516480,0.8392612934112549,1,-0.06074648723006248,1,0.03438762947916985,1,-0.002952496521174908,1,0.003114397870376706,1,-0.001246810774318874,1
1773072855584107008,0.9057161808013916,1,0.0689246878027916,1,0.04907787591218948,1,0.00179254321847111,1,0.002114332048222423,1,-0.002025188412517309,1
1773072855593605632,0.9448198676109314,1,-0.02055197954177856,1,0.004701624158769846,1,0.003721067449077964,1,7.832072151359171e-05,1,-0.001688599702902138,1
1773072855603012608,0.8999215364456177,1,-0.06491445749998093,1,0.005171468481421471,1,-0.0001816746662370861,1,0.002149676438421011,1,-0.003537541255354881,1
1773072855612329216,0.9401484727859497,1,0.06415560096502304,1,0.04517781734466553,1,-0.001185905188322067,1,0.002974947914481163,1,-0.003253250848501921,1
1773072855622765056,0.9045522809028625,1,-0.101651594042778,1,0.05755968764424324,1,-0.004006245639175177,1,0.002549623139202595,1,-0.003512548049911857,1
1773072855633403648,0.9041180014610291,1,-0.0007883291691541672,1,0.08134440332651138,1,-0.004246949683874846,1,0.0030736920889467,1,-0.004560883156955242,1
1773072855643940864,0.9619351625442505,1,0.009364860132336617,1,0.1138952299952507,1,0.001302632968872786,1,0.003744585206732154,1,-0.003141143592074513,1
1773072855654381824,0.9141498208045959,1,-0.1485654413700104,1,0.145153746008873,1,0.0009275942575186491,1,0.002511566737666726,1,-0.003504370339214802,1
1773072855664725760,0.953235924243927,1,0.01958205737173557,1,0.1595990657806396,1,0.0038385686930269,1,0.002825308125466108,1,-0.003873371053487062,1
1773072855674972160,1.014980673789978,1,-0.09582860022783279,1,0.1410903781652451,1,0.00625629723072052,1,0.002865117741748691,1,-0.002238087588921189,1
1773072855685120768,0.959593653678894,1,-0.1077959015965462,1,0.1250202804803848,1,0.003918703179806471,1,0.002827627118676901,1,-0.002778038615360856,1
1773072855695172608,1.004950523376465,1,-0.008288633078336716,1,0.1537652462720871,1,0.007837312296032906,1,0.004313200712203979,1,-0.002113962080329657,1
1773072855705130240,0.9913278222084045,1,-0.1568822860717773,1,0.13426473736763,1,0.004421842284500599,1,0.002046102657914162,1,-0.001934404484927654,1
1773072855715000320,0.9650392532348633,1,-0.01774063892662525,1,0.09559809416532516,1,0.004030977841466665,1,0.001837792806327343,1,-0.002591163385659456,1
1773072855724776704,1.043390274047852,1,-0.06968805193901062,1,0.09136854857206345,1,0.006394405849277973,1,0.003028398845344782,1,-0.001788952387869358,1
1773072855734459904,0.987074613571167,1,-0.1587772816419601,1,0.06557523459196091,1,0.000516051659360528,1,0.0007193260244093835,1,-0.00268884957768023,1
1773072855744053248,1.034783720970154,1,0.001980174565687776,1,0.0425884872674942,1,0.0004721745499409735,1,0.002601263346150517,1,-0.002704553306102753,1
1773072855753555712,1.064908981323242,1,-0.1476142853498459,1,0.05003257468342781,1,-0.0002544828457757831,1,0.001463221735320985,1,-0.002058382611721754,1
1773072855762967552,0.9803236722946167,1,-0.1178745180368423,1,0.09442555904388428,1,-0.005386763252317905,1,0.003654706757515669,1,-0.003498507896438241,1
1773072855772441600,1.050716757774353,1,-0.02594081684947014,1,0.1710803955793381,1,-0.005727074109017849,1,0.004538651555776596,1,-0.002840595785528421,1
1773072855783157504,0.9723839163780212,1,-0.132673591375351,1,0.1747333556413651,1,-0.005687503609806299,1,0.001785152242518961,1,-0.00261587300337851,1
1773072855793771776,1.041165947914124,1,-0.05330175533890724,1,0.192235603928566,1,-0.001958620734512806,1,0.003291546367108822,1,-0.003035191912204027,1
1773072855804285184,1.122080683708191,1,-0.05687762796878815,1,0.1705885827541351,1,-0.0001560491364216432,1,8.09877528809011e-05,1,-0.002459430368617177,1
1773072855814697216,1.060675740242004,1,-0.08556441962718964,1,0.1467354446649551,1,-0.0005743858637288213,1,0.001925220713019371,1,-0.002913234289735556,1
1773072855825012992,1.111760854721069,1,-0.004121169447898865,1,0.1836879998445511,1,0.002187891397625208,1,0.001992818200960755,1,-0.002538358559831977,1
1773072855835229952,1.079025626182556,1,-0.09698332846164703,1,0.1818969398736954,1,0.003015132155269384,1,0.000146729638800025,1,-0.002171087777242064,1
1773072855845347840,1.047713875770569,1,-0.06183471903204918,1,0.2023337483406067,1,0.004438917618244886,1,0.001611756859347224,1,-0.003284365637227893,1
1773072855855368448,1.10780656337738,1,0.002669676207005978,1,0.2211098819971085,1,0.005900238174945116,1,0.001428792718797922,1,-0.002939213765785098,1
1773072855865295616,1.090924382209778,1,-0.1268997937440872,1,0.1749015897512436,1,0.001835551811382174,1,0.0006877094856463373,1,-0.003117378335446119,1
1773072855875132416,1.08663535118103,1,-0.06913432478904724,1,0.1230397447943687,1,-0.001117147039622068,1,0.0009899369906634092,1,-0.004632424097508192,1
1773072855884875776,1.166738510131836,1,-0.002729989355430007,1,0.0915026068687439,1,-0.001270603737793863,1,0.0005642912001349032,1,-0.004193710163235664,1
1773072855894526208,1.120247364044189,1,-0.1415544301271439,1,0.08871316164731979,1,-0.004025486297905445,1,0.001216729287989438,1,-0.00418282812461257,1
1773072855904086272,1.116402268409729,1,-0.09031207859516144,1,0.1632916629314423,1,-0.006803428288549185,1,0.003709373530000448,1,-0.00567726930603385,1
1773072855913554944,1.212017059326172,1,-0.03122120723128319,1,0.1667719781398773,1,-0.007704197429120541,1,0.001336946967057884,1,-0.005534461233764887,1
1773072855922932736,1.181458830833435,1,-0.1204260587692261,1,0.1285618245601654,1,-0.007741712033748627,1,0.002042027190327644,1,-0.005276207812130451,1
1773072855932534272,1.205934762954712,1,-0.05910762026906013,1,0.1624917089939117,1,-0.009056197479367256,1,0.00288251182064414,1,-0.006296669133007526,1
1773072855943218688,1.194203853607178,1,-0.01864541880786419,1,0.1207214891910553,1,-0.007011584471911192,1,-0.0008382131345570087,1,-0.005102494265884161,1
1773072855953801984,1.160449743270874,1,-0.1462787538766861,1,0.06891729682683945,1,-0.001387700205668807,1,-0.002195914043113589,1,-0.005261491052806377,1
1773072855964285696,1.157134771347046,1,-0.05082444846630096,1,0.09673257917165756,1,0.001907804515212774,1,-0.002517859684303403,1,-0.006033484824001789,1
1773072855974668032,1.150070071220398,1,0.009670566767454147,1,0.1532858610153198,1,0.003269183449447155,1,-0.0006730164168402553,1,-0.004771853797137737,1
1773072855984953600,1.192571997642517,1,-0.1231677457690239,1,0.1610321849584579,1,-0.0005370685830712318,1,0.0007550631416961551,1,-0.004083536099642515,1
1773072855995141376,1.23252534866333,1,-0.1141252368688583,1,0.1100176796317101,1,-0.004712685942649841,1,0.001600594841875136,1,-0.005295022390782833,1
1773072856005230848,1.256269574165344,1,-0.004311331547796726,1,0.1286673545837402,1,2.315704477950931e-05,1,0.00432380149140954,1,-0.005344927310943604,1
1773072856015224064,1.296319842338562,1,0.001142243854701519,1,0.2078096717596054,1,0.005228785797953606,1,0.005800941493362188,1,-0.004512657411396503,1
1773072856025121792,1.319554090499878,1,-0.1142982468008995,1,0.2223194539546967,1,0.003290268592536449,1,0.005277592688798904,1,-0.004708327818661928,1
1773072856034929664,1.237491607666016,1,-0.01075701043009758,1,0.2000053375959396,1,0.003344259224832058,1,0.00377913611009717,1,-0.005771622061729431,1
1773072856044644352,1.248348474502563,1,0.03931147232651711,1,0.164715439081192,1,0.01044891960918903,1,0.001282971468754113,1,-0.005260009318590164,1
1773072856054265856,1.279239416122437,1,-0.06335381418466568,1,0.06326556205749512,1,0.01176667306572199,1,-0.001743020489811897,1,-0.005430826917290688,1
1773072856063795200,1.224098324775696,1,-0.07576929777860641,1,0.002555877901613712,1,0.005279576871544123,1,1.671354402787983e-05,1,-0.006214302964508533,1
1773072856073233920,1.10542106628418,1,0.003433951176702976,1,0.02076883986592293,1,-0.00172916566953063,1,-0.0005534156807698309,1,-0.006368553265929222,1
1773072856082581760,1.180888295173645,1,-0.007774541154503822,1,-0.01701541244983673,1,-0.001514350646175444,1,0.0004589670279528946,1,-0.005619553849101067,1
1773072856092587520,1.392721772193909,1,-0.1640738993883133,1,0.001015424262732267,1,-0.001552034635096788,1,0.003590967506170273,1,-0.006188467610627413,1
1773072856103241472,1.45129120349884,1,-0.1455459743738174,1,0.1252624094486237,1,-0.009055532515048981,1,0.009084791876375675,1,-0.00715976906940341,1
1773072856113793536,1.384688973426819,1,-0.01415131986141205,1,0.3072151243686676,1,-0.01491090562194586,1,0.01198019552975893,1,-0.006985537707805634,1
1773072856124241920,1.337937831878662,1,-0.07292123138904572,1,0.3397679924964905,1,-0.007937269285321236,1,0.01004553586244583,1,-0.006342308130115271,1
1773072856134588928,1.54103672504425,1,-0.09759080410003662,1,0.1872517168521881,1,0.004473569337278605,1,0.005765506997704506,1,-0.007829689420759678,1
1773072856144834048,1.494171261787415,1,-0.07987605035305023,1,0.1061972975730896,1,0.01266718935221434,1,0.003902374533936381,1,-0.007478214800357819,1
1773072856154979840,1.147417902946472,1,0.0048157824203372,1,0.2162346988916397,1,0.01232547964900732,1,0.001991253113374114,1,-0.006984337233006954,1
1773072856165028608,0.9945166707038879,1,0.02215969935059547,1,0.148858442902565,1,0.01588503085076809,1,-0.004384195897728205,1,-0.006254586391150951,1
1773072856174991872,1.293551564216614,1,-0.1614317148923874,1,-0.1396207809448242,1,0.02144784666597843,1,-0.006960706785321236,1,-0.0067334552295506,1
1773072856184857856,1.451375126838684,1,-0.1476317346096039,1,-0.1417000293731689,1,0.01978006400167942,1,0.0009268908761441708,1,-0.007121781818568707,1
1773072856194626304,1.08590042591095,1,-0.1664777100086212,1,0.2448167055845261,1,-0.003981728106737137,1,0.009362872689962387,1,-0.007186016067862511,1
1773072856204301056,0.615462064743042,1,-0.01734619960188866,1,0.3900947570800781,1,-0.02346446737647057,1,-0.001401494489982724,1,-0.007890793494880199,1
1773072856213881600,0.7403114438056946,1,-0.01908789575099945,1,0.0616004653275013,1,-0.0119880111888051,1,-0.01298719830811024,1,-0.008094168268144131,1
1773072856223368704,1.167983055114746,1,-0.09200891107320786,1,-0.2823658883571625,1,0.01268738321959972,1,-0.01052389200776815,1,-0.008428562432527542,1
1773072856232764160,1.160258650779724,1,-0.132691964507103,1,-0.1049894988536835,1,0.01868663169443607,1,-0.003148492891341448,1,-0.009039595723152161,1
1773072856242068480,0.6351113319396973,1,-0.09011971205472946,1,0.2137523889541626,1,-0.006400592625141144,1,-0.01220021676272154,1,-0.009440445341169834,1
1773072856252502784,0.09764134138822556,1,0.05055440217256546,1,0.1036279872059822,1,-0.02474619075655937,1,-0.0267323087900877,1,-0.00832025334239006,1
1773072856263142912,0.02468450367450714,1,0.1144933626055717,1,-0.1656221002340317,1,-0.009186467155814171,1,-0.03479480743408203,1,-0.007265903055667877,1
1773072856273683200,0.2078045457601547,1,-0.03273731470108032,1,-0.2315374612808228,1,0.02049762383103371,1,-0.02858594246208668,1,-0.006516686640679836,1
1773072856284123136,0.3765594661235809,1,-0.17884561419487,1,-0.01561854779720306,1,0.01853999681770802,1,-0.02032247371971607,1,-0.008529422804713249,1
1773072856294462976,0.2095701545476913,1,-0.1828550547361374,1,-0.0005805548280477524,1,-0.008877042680978775,1,-0.02750958874821663,1,-0.009609874337911606,1
1773072856304705280,-0.04068237915635109,1,0.02784321270883083,1,-0.2222445160150528,1,-0.02594055235385895,1,-0.03535416349768639,1,-0.01045068353414536,1
1773072856314860032,-0.2507035136222839,1,0.1184446737170219,1,-0.3409857451915741,1,-0.01612565107643604,1,-0.0357300266623497,1,-0.008261377923190594,1
1773072856324918272,-0.3553836941719055,1,0.06694784760475159,1,-0.2794867753982544,1,-0.005916115362197161,1,-0.03236324340105057,1,-0.00667658494785428,1
1773072856334880000,-0.3093612790107727,1,0.03315257281064987,1,-0.2306368350982666,1,-0.004970712587237358,1,-0.0315464586019516,1,-0.005609490443021059,1
1773072856344747008,-0.2198849469423294,1,-0.05724259838461876,1,-0.2025067657232285,1,-0.001648988691158593,1,-0.03016045689582825,1,-0.004514500498771667,1
1773072856354518784,-0.1109358891844749,1,-0.142308697104454,1,-0.1266629248857498,1,0.004842638503760099,1,-0.02694407664239407,1,-0.006865306291729212,1
1773072856364196096,-0.1395881772041321,1,-0.1137892231345177,1,-0.02512529864907265,1,0.00229312083683908,1,-0.02338813617825508,1,-0.008111396804451942,1
1773072856373782016,-0.3287813067436218,1,-0.02933207899332047,1,-0.01469524204730988,1,-0.007679126691073179,1,-0.02030391059815884,1,-0.00818733312189579,1
1773072856383277056,-0.452299177646637,1,0.01045429334044456,1,-0.1261771470308304,1,-0.00826541893184185,1,-0.01975595951080322,1,-0.006424994673579931,1
1773072856392680448,-0.2571308612823486,1,-0.03591896221041679,1,-0.2304400205612183,1,0.005698238499462605,1,-0.01394453458487988,1,-0.005378925241529942,1
1773072856402144000,0.1071593314409256,1,-0.1380005180835724,1,-0.120630219578743,1,0.01518922485411167,1,-0.002760634990409017,1,-0.005580795928835869,1
1773072856412862720,0.2490162253379822,1,-0.09454284608364105,1,0.1551689952611923,1,0.006742615252733231,1,0.008294173516333103,1,-0.005675132852047682,1
1773072856423480576,0.1057462990283966,1,-0.03927815333008766,1,0.3950703740119934,1,-0.009017201140522957,1,0.01280214823782444,1,-0.005204691551625729,1
1773072856433999104,0.09676234424114227,1,0.0412941537797451,1,0.3914915323257446,1,-0.01129454653710127,1,0.0107049997895956,1,-0.005132969468832016,1
1773072856444418560,0.3825468719005585,1,0.01853224821388721,1,0.2124584168195724,1,0.005346406251192093,1,0.01207543164491653,1,-0.004367746878415346,1
1773072856454741760,0.8128425478935242,1,-0.08312658220529556,1,0.1602950394153595,1,0.02947446331381798,1,0.01828834787011147,1,-0.00649629719555378,1
1773072856464967168,0.9904537200927734,1,-0.08652858436107635,1,0.3984034061431885,1,0.03115704469382763,1,0.02642058953642845,1,-0.008437352254986763,1
1773072856475094272,0.7726755738258362,1,0.01107837166637182,1,0.7162823677062988,1,0.01211412623524666,1,0.02915988117456436,1,-0.008212354965507984,1
1773072856485130752,0.629056990146637,1,0.02070352807641029,1,0.7272906899452209,1,-0.0003384254523552954,1,0.02311620861291885,1,-0.007558170240372419,1
1773072856495071232,0.9011133909225464,1,-0.03784237056970596,1,0.4781804084777832,1,0.004434400238096714,1,0.0211919154971838,1,-0.008783009834587574,1
1773072856504916480,1.351633548736572,1,-0.1220066472887993,1,0.3113448619842529,1,0.02282098866999149,1,0.02794224768877029,1,-0.01011126674711704,1
1773072856514668288,1.652533173561096,1,-0.05774463340640068,1,0.4498578310012817,1,0.02289634756743908,1,0.03519317880272865,1,-0.01068664528429508,1
1773072856524326912,1.652373194694519,1,-0.1737513393163681,1,0.5735236406326294,1,0.006179311312735081,1,0.03569984063506126,1,-0.01037055160850286,1
1773072856533891840,1.452718734741211,1,-0.1695790588855743,1,0.6131339073181152,1,-0.005948247853666544,1,0.03307201340794563,1,-0.01152824889868498,1
1773072856543366656,1.334752678871155,1,-0.01625267788767815,1,0.6502416133880615,1,0.0007109889993444085,1,0.02704423666000366,1,-0.01295833103358746,1
1773072856552761600,1.417427897453308,1,0.04489580169320107,1,0.6146575212478638,1,0.01936247572302818,1,0.02792306058108807,1,-0.01220419909805059,1
1773072856562362880,1.748926997184753,1,-0.1104403659701347,1,0.5027660727500916,1,0.0233889427036047,1,0.02859687991440296,1,-0.01191188860684633,1
1773072856573047808,1.684619426727295,1,-0.1620258539915085,1,0.2804755568504333,1,0.01314524561166763,1,0.02680004946887493,1,-0.01240368559956551,1
1773072856583631616,1.442096352577209,1,-0.117540255188942,1,0.2210308015346527,1,0.005656422581523657,1,0.02996494807302952,1,-0.01289397105574608,1
1773072856594112512,1.407840490341187,1,0.04199256747961044,1,0.2797703742980957,1,0.01016460079699755,1,0.02487487904727459,1,-0.01262901537120342,1
1773072856604490752,1.556516170501709,1,-0.1823616623878479,1,0.1668102443218231,1,0.01331303082406521,1,0.02262195385992527,1,-0.01153521612286568,1
1773072856614769152,1.627323150634766,1,-0.2134099304676056,1,0.135431319475174,1,0.00747208995744586,1,0.02420945838093758,1,-0.01291373558342457,1
1773072856624947712,1.279767870903015,1,-0.008810035884380341,1,0.2879804372787476,1,-0.009828593581914902,1,0.02513258904218674,1,-0.01313029695302248,1
1773072856635025664,0.9581903219223022,1,0.02396548166871071,1,0.3534800708293915,1,-0.01014685817062855,1,0.01632566750049591,1,-0.01231070514768362,1
1773072856645018368,1.206164360046387,1,-0.04942121356725693,1,-0.01631860062479973,1,-0.0009796245722100139,1,0.007521846797317266,1,-0.01206764299422503,1
1773072856654924288,1.520034670829773,1,-0.1277511715888977,1,-0.3616866171360016,1,0.01312070898711681,1,0.006883039139211178,1,-0.01244521047919989,1
1773072856664733952,1.210203409194946,1,-0.2105158120393753,1,-0.2692518532276154,1,0.007815297693014145,1,0.009735650382936001,1,-0.01291001867502928,1
1773072856674448128,0.7535314559936523,1,0.02220559492707253,1,0.07178940623998642,1,-0.01544970367103815,1,0.001907622790895402,1,-0.0116541413590312,1
1773072856684067584,0.5934427380561829,1,0.01387367863208055,1,-0.04847053438425064,1,-0.03041973896324635,1,-0.01246591191738844,1,-0.009324987418949604,1
1773072856693593600,0.8750977516174316,1,-0.1658603549003601,1,-0.487983912229538,1,-0.01176217664033175,1,-0.01213802210986614,1,-0.01011713407933712,1
1773072856703026944,1.081087708473206,1,-0.1353989094495773,1,-0.4831421971321106,1,0.005814076866954565,1,-0.006951627321541309,1,-0.01190318819135427,1
1773072856712369920,0.7634738683700562,1,-0.07878128439188004,1,-0.1639156937599182,1,-0.007953789085149765,1,-0.009633825160562992,1,-0.01052130851894617,1
1773072856722371840,0.379859983921051,1,-0.02240343764424324,1,-0.1591831594705582,1,-0.03801436722278595,1,-0.01928582787513733,1,-0.009099896065890789,1
1773072856733025280,0.3316685855388641,1,0.04982376843690872,1,-0.4927939176559448,1,-0.03439820185303688,1,-0.02792080119252205,1,-0.008606957271695137,1
1773072856743579392,0.5362802743911743,1,-0.08845815062522888,1,-0.6531227231025696,1,0.0006067287176847458,1,-0.02377964183688164,1,-0.008657524362206459,1
1773072856754032384,0.5818580985069275,1,-0.1357406228780746,1,-0.381926417350769,1,0.01296613737940788,1,-0.019472511485219,1,-0.009720318019390106,1
1773072856764392192,0.2712178826332092,1,-0.1536888778209686,1,-0.100943312048912,1,-0.009045617654919624,1,-0.02157058380544186,1,-0.008933223783969879,1
1773072856774653440,0.06477774679660797,1,-0.07820109277963638,1,-0.2223047912120819,1,-0.02904150635004044,1,-0.02485192939639091,1,-0.008772573433816433,1
1773072856784816128,0.3097347915172577,1,-0.03700988739728928,1,-0.4705248177051544,1,-0.009389325045049191,1,-0.02161373756825924,1,-0.009389382787048817,1
1773072856794883328,0.4869605004787445,1,-0.105473130941391,1,-0.322148323059082,1,0.00927771907299757,1,-0.007998436689376831,1,-0.009546173736453056,1
1773072856804853760,0.2902586460113525,1,-0.07452651858329773,1,0.1047960072755814,1,0.001253839931450784,1,-0.0009259236394427717,1,-0.009307943284511566,1
1773072856814728448,0.1074216887354851,1,0.0554644949734211,1,0.1102618500590324,1,-0.0146994749084115,1,-0.01225372590124607,1,-0.008258895948529243,1
1773072856824509696,0.2907682955265045,1,-0.02544024772942066,1,-0.2635465562343597,1,-0.001874636393040419,1,-0.01770290918648243,1,-0.008587079122662544,1
1773072856834196480,0.5444014072418213,1,-0.087131567299366,1,-0.3590399920940399,1,0.01794704236090183,1,-0.01047199778258801,1,-0.01033919770270586,1
1773072856843788288,0.4090010225772858,1,-0.03478294238448143,1,-0.05651063099503517,1,0.01844408735632896,1,-0.001947479322552681,1,-0.009661142714321613,1
1773072856853286656,0.2462977170944214,1,-0.1230350136756897,1,0.1968108117580414,1,0.001144321518950164,1,-0.002418846823275089,1,-0.008306924253702164,1
1773072856862693120,0.3015904724597931,1,-0.1642330139875412,1,0.1013346761465073,1,-0.006251157261431217,1,-0.004646518267691135,1,-0.009308182634413242,1
1773072856872006912,0.523198664188385,1,-0.1448134034872055,1,0.08316739648580551,1,0.0009421966387890279,1,0.002420378848910332,1,-0.01090968493372202,1
1773072856882442752,0.5377482175827026,1,-0.01825009100139141,1,0.2862267792224884,1,0.003852563910186291,1,0.0098464610055089,1,-0.01069104392081499,1
1773072856893080576,0.5695061087608337,1,-0.004088441841304302,1,0.4028078317642212,1,-0.007024231366813183,1,0.01097622141242027,1,-0.009392113424837589,1
1773072856903616000,0.6200222969055176,1,-0.1580321341753006,1,0.1850428283214569,1,-0.0156695768237114,1,0.004085826221853495,1,-0.009740181267261505,1
1773072856914049024,0.6730032563209534,1,0.02802324667572975,1,0.03179869055747986,1,-0.0003894898109138012,1,0.005855853203684092,1,-0.01114915031939745,1
1773072856924379648,0.7658078670501709,1,0.0756441205739975,1,0.2443356513977051,1,0.02401157468557358,1,0.0116479117423296,1,-0.008782696910202503,1
1773072856934610432,0.7709609270095825,1,-0.1176193729043007,1,0.5155875086784363,1,0.02396717108786106,1,0.01419554837048054,1,-0.007493087090551853,1
1773072856944741376,0.770180344581604,1,-0.1813046485185623,1,0.5923693776130676,1,0.002987846033647656,1,0.01557500660419464,1,-0.009974087588489056,1
1773072856954780160,0.841223418712616,1,0.03867834806442261,1,0.5070896148681641,1,-0.005643948446959257,1,0.01380677800625563,1,-0.01048499252647161,1
1773072856964722688,0.9145612716674805,1,-0.01566489972174168,1,0.4280965328216553,1,-0.0004230876220390201,1,0.01299594901502132,1,-0.01002167724072933,1
1773072856974568960,0.9357530474662781,1,-0.1402000784873962,1,0.4495655596256256,1,0.001786331180483103,1,0.0141225652769208,1,-0.01108426041901112,1
1773072856984318976,0.9274789690971375,1,0.007199132815003395,1,0.4799469113349915,1,-0.00148238125257194,1,0.01150618679821491,1,-0.01221111416816711,1
1773072856993974528,0.9923290014266968,1,0.0683760866522789,1,0.4964465796947479,1,0.00496623944491148,1,0.01117662899196148,1,-0.01096516568213701,1
1773072857003537152,1.027381539344788,1,-0.1604383736848831,1,0.5763383507728577,1,0.01014916971325874,1,0.01124725490808487,1,-0.01146392431110144,1
1773072857013006592,1.009761929512024,1,-0.07655060291290283,1,0.5969932675361633,1,0.006047549191862345,1,0.007820140570402145,1,-0.01387886330485344,1
1773072857022385920,1.017511010169983,1,0.07326596975326538,1,0.4657582342624664,1,0.003779696766287088,1,0.002430491149425507,1,-0.01288357935845852,1
1773072857031826688,1.078428149223328,1,0.05345399305224419,1,0.2169811427593231,1,-0.0006209533894434571,1,0.0008169995271600783,1,-0.01255044154822826,1
1773072857042546688,0.983735203742981,1,-0.1151952743530273,1,0.03071755915880203,1,-0.005194132681936026,1,-0.0004154688504058868,1,-0.01376591809093952,1
1773072857053162496,0.9237098693847656,1,0.1100542768836021,1,-0.02064690925180912,1,-0.002783793257549405,1,-0.001556057017296553,1,-0.01463292818516493,1
1773072857063677952,0.9791175127029419,1,0.09357260912656784,1,-0.008295160718262196,1,0.008074242621660233,1,-0.002672036411240697,1,-0.01276758685708046,1
1773072857074096896,0.8974872231483459,1,-0.1161263585090637,1,0.1643917411565781,1,0.006544278003275394,1,0.003600088879466057,1,-0.01299522910267115,1
1773072857084413952,0.8478423953056335,1,-0.01777952536940575,1,0.2829498648643494,1,-0.007103159092366695,1,0.003660492366179824,1,-0.01562274433672428,1
1773072857094631168,0.8331586718559265,1,0.05463417991995811,1,0.08959446847438812,1,-0.00742189958691597,1,-0.004006368108093739,1,-0.01423457730561495,1
1773072857104748800,0.956607460975647,1,0.02938223816454411,1,-0.1165553331375122,1,0.003834135830402374,1,-0.001938255270943046,1,-0.01342339906841516,1
1773072857114768128,0.8451277613639832,1,-0.1213222220540047,1,-0.1097147613763809,1,0.009939361363649368,1,-0.003626428311690688,1,-0.01268249563872814,1
1773072857124688896,0.6623963117599487,1,-0.004618237726390362,1,-0.07813918590545654,1,0.008617795072495937,1,-0.007219331339001656,1,-0.01284880377352238,1
1773072857134515200,0.6725016832351685,1,-0.01079743914306164,1,-0.1562934815883636,1,0.01325937826186419,1,-0.01166940666735172,1,-0.0101449815556407,1
1773072857144245248,0.6638782620429993,1,-0.1904589831829071,1,-0.1505910605192184,1,0.01723305881023407,1,-0.006426159292459488,1,-0.009407263249158859,1
1773072857153879552,0.7326449751853943,1,-0.2384786307811737,1,-0.07233819365501404,1,0.007301909849047661,1,-0.003025353653356433,1,-0.01001208834350109,1
1773072857163425280,0.7008452415466309,1,-0.05442611500620842,1,-0.07924932241439819,1,-0.00578303262591362,1,-0.003384501673281193,1,-0.00892466027289629,1
1773072857172891648,0.5971379280090332,1,-0.200751468539238,1,-0.1275090575218201,1,-0.01121558807790279,1,-0.003305848455056548,1,-0.007594941183924675,1
1773072857182267648,0.5331724882125854,1,-0.1759838461875916,1,-0.1964492350816727,1,-0.01124473381787539,1,-0.006106908433139324,1,-0.008865897543728352,1
1773072857191853056,0.5658642649650574,1,-0.01073274575173855,1,-0.1877222806215286,1,-0.0005000254604965448,1,-0.006796533241868019,1,-0.008342773653566837,1
1773072857202536448,0.4947589635848999,1,-0.09381092339754105,1,-0.03043645620346069,1,0.01038951426744461,1,-0.002067744731903076,1,-0.006264197640120983,1
1773072857213118464,0.5487267374992371,1,-0.2139627933502197,1,0.08702800422906876,1,0.001910657389089465,1,-0.003386917291209102,1,-0.007479757536202669,1
1773072857223596800,0.4393076598644257,1,-0.09932351857423782,1,-0.003315155394375324,1,-0.005668886005878448,1,-0.005618018098175526,1,-0.007982827723026276,1
1773072857233972480,0.5203261375427246,1,-0.06298165023326874,1,-0.09440170973539352,1,-0.003384452546015382,1,-0.002709160093218088,1,-0.008508577942848206,1
1773072857244247808,0.492806613445282,1,-0.1282172948122025,1,-0.07237431406974792,1,-0.00620172405615449,1,-0.001987259369343519,1,-0.008434179238975048,1
1773072857254423040,0.4585264921188354,1,-0.04322178661823273,1,-0.01533020753413439,1,-0.01148725207895041,1,-7.153551268856972e-05,1,-0.009751409292221069,1
1773072857264496896,0.4993668496608734,1,-0.01875472813844681,1,0.0005353401647880673,1,-0.009482733905315399,1,-0.002331884577870369,1,-0.009031368419528008,1
1773072857274482176,0.4995405972003937,1,-0.07996127009391785,1,0.01214385405182838,1,-0.004439742770045996,1,-0.0004856798332184553,1,-0.01105104386806488,1
1773072857284379904,0.5681423544883728,1,-0.0501793697476387,1,0.09999968856573105,1,-0.002604367444291711,1,0.0007409801473841071,1,-0.01248185615986586,1
