Time,inertial-6286.188861:estLinearAccelX,inertial-6286.188861:estLinearAccelX:valid,inertial-6286.188861:estLinearAccelY,inertial-6286.188861:estLinearAccelY:valid,inertial-6286.188861:estLinearAccelZ,inertial-6286.188861:estLinearAccelZ:valid,inertial-6286.188861:estAngularRateX,inertial-6286.188861:estAngularRateX:valid,inertial-6286.188861:estAngularRateY,inertial-6286.188861:estAngularRateY:valid,inertial-6286.188861:estAngularRateZ,inertial-6286.188861:estAngularRateZ:valid
1773074089684481280,0.3599700629711151,1,-0.05295977741479874,1,0.0150290634483099,1,-0.00128321663942188,1,0.001419863663613796,1,-0.01567587628960609,1
1773074089694005504,0.3572624325752258,1,-0.04186183214187622,1,0.0354369655251503,1,-0.002919161692261696,1,0.002944209147244692,1,-0.01652699895203114,1
1773074089703437056,0.3030847907066345,1,0.05415965244174004,1,0.08286868035793304,1,-0.002408151514828205,1,0.002206035889685154,1,-0.01689929701387882,1
1773074089712776192,0.2762418687343597,1,-0.002740899100899696,1,0.09128409624099731,1,-9.267911082133651e-06,1,-3.298432420706376e-05,1,-0.01720614172518253,1
1773074089722781696,0.3160732388496399,1,-0.05909731611609459,1,0.05304301157593727,1,-0.0001097886997740716,1,-0.0002629228110890836,1,-0.01845521293580532,1
1773074089733444608,0.3212025761604309,1,0.008308945223689079,1,0.04388154670596123,1,0.001094013801775873,1,-0.0007427125237882137,1,-0.01905230432748795,1
1773074089744008448,0.2731494605541229,1,0.007148418575525284,1,0.08031994104385376,1,0.002937319688498974,1,-0.002462871605530381,1,-0.01895574852824211,1
1773074089754471424,0.2739509344100952,1,-0.0572868138551712,1,0.06624053418636322,1,0.0007886703824624419,1,-0.003716123290359974,1,-0.01997319981455803,1
1773074089764832512,0.3047796189785004,1,-0.03107396326959133,1,0.01671513915061951,1,-0.0002555485698394477,1,-0.00405858363956213,1,-0.02070927061140537,1
1773074089775094016,0.2801812589168549,1,-0.005248285364359617,1,0.04236076027154922,1,0.00232384679839015,1,-0.004258807748556137,1,-0.02063937298953533,1
1773074089785263104,0.2551436126232147,1,-0.0753147080540657,1,0.0756983682513237,1,0.001793652423657477,1,-0.005145696457475424,1,-0.02069681137800217,1
1773074089795335424,0.2781158983707428,1,-0.08058618009090424,1,0.05535145848989487,1,-0.00140514294616878,1,-0.0059888013638556,1,-0.02148961462080479,1
1773074089805311488,0.2612206339836121,1,-0.03617699071764946,1,0.04483521357178688,1,-0.001888212864287198,1,-0.006033976096659899,1,-0.02143269404768944,1
1773074089815192832,0.2429364621639252,1,-0.06189307570457458,1,0.05423498153686523,1,0.00141637516207993,1,-0.006143500097095966,1,-0.02126360684633255,1
1773074089824979200,0.2675118744373322,1,-0.1041353270411491,1,0.05186556279659271,1,0.0004314843390602618,1,-0.005966279655694962,1,-0.02201738022267818,1
1773074089834671104,0.2450194209814072,1,-0.05960138142108917,1,0.03988803178071976,1,-0.002788605634123087,1,-0.004060826729983091,1,-0.02268162183463573,1
1773074089844272384,0.2236862629652023,1,0.01159648038446903,1,0.05685082077980042,1,-0.0008483749115839601,1,-0.003807841567322612,1,-0.02182338386774063,1
1773074089853781760,0.2537619173526764,1,-0.0596792995929718,1,0.05079948529601097,1,0.000740527524612844,1,-0.0029274916741997,1,-0.02133574895560741,1
1773074089863199744,0.2625981867313385,1,-0.06639312952756882,1,0.05534559860825539,1,-0.002159355208277702,1,-0.0006776425871066749,1,-0.02243747189640999,1
1773074089872526848,0.1916060745716095,1,0.01371722295880318,1,0.1086872294545174,1,-0.002802693517878652,1,0.001443938235752285,1,-0.02229469642043114,1
1773074089882969600,0.1920802593231201,1,0.04191634804010391,1,0.1214613616466522,1,0.0007903403020463884,1,0.001065541408024728,1,-0.02128441073000431,1
1773074089893612544,0.2778476476669312,1,-0.04093171283602715,1,0.0571114607155323,1,-0.0009606051607988775,1,0.001316960202530026,1,-0.02191593497991562,1
1773074089904154368,0.26163649559021,1,0.01556957140564919,1,0.04113639891147614,1,-0.003614859655499458,1,0.001488458598032594,1,-0.02225225232541561,1
1773074089914597120,0.1782373189926147,1,0.09888160973787308,1,0.105160266160965,1,-0.001040221657603979,1,0.0002985709288623184,1,-0.02142192237079144,1
1773074089924940800,0.2144167274236679,1,0.02786075137555599,1,0.114672914147377,1,0.002636791439726949,1,-0.001286176149733365,1,-0.02232320979237556,1
1773074089935185408,0.2987136840820312,1,0.007621599361300468,1,0.07938440889120102,1,-0.0007490157731808722,1,-0.002762740477919579,1,-0.02368719130754471,1
1773074089945338368,0.2357553392648697,1,0.08226954191923141,1,0.09804517030715942,1,-8.048577001318336e-05,1,-0.002086922992020845,1,-0.02351051941514015,1
1773074089955392256,0.2160634696483612,1,0.09967788308858871,1,0.1210601329803467,1,0.006768754683434963,1,-0.002789289923384786,1,-0.02320240065455437,1
1773074089965349120,0.2624422013759613,1,-0.01417732518166304,1,0.06717368960380554,1,0.006875654216855764,1,-0.001735910074785352,1,-0.02440157532691956,1
1773074089975211008,0.2589488327503204,1,0.01231460459530354,1,0.03899809718132019,1,0.003994653467088938,1,-0.0008632848039269447,1,-0.02540769428014755,1
1773074089984977664,0.1932867169380188,1,0.1121680662035942,1,0.07372529804706573,1,0.007061335258185863,1,-0.002616854617372155,1,-0.02486706897616386,1
1773074089994649600,0.2149926275014877,1,-0.00401073694229126,1,0.05494991317391396,1,0.01112272404134274,1,-0.004696290008723736,1,-0.02502039261162281,1
1773074090004227072,0.3354818820953369,1,-0.08999470621347427,1,0.01127404347062111,1,0.005347877275198698,1,-0.004377931356430054,1,-0.02646193094551563,1
1773074090013712640,0.277507096529007,1,0.02333760634064674,1,0.02955994941294193,1,0.00204521045088768,1,-0.004377057775855064,1,-0.02667626366019249,1
1773074090023106048,0.2003670483827591,1,0.05058607831597328,1,0.08171184360980988,1,0.0100279888138175,1,-0.004945907741785049,1,-0.02598588913679123,1
1773074090032558592,0.2853537797927856,1,-0.1143514364957809,1,0.06322170048952103,1,0.01047672983258963,1,-0.004342012573033571,1,-0.02704340778291225,1
1773074090043283200,0.275442361831665,1,-0.07836946845054626,1,0.006816485896706581,1,0.004353133030235767,1,-0.004861702211201191,1,-0.02784961648285389,1
1773074090053902848,0.1944967657327652,1,0.0005312561406753957,1,0.0246070958673954,1,0.008480885066092014,1,-0.005070801824331284,1,-0.02731768600642681,1
1773074090064418304,0.2046073377132416,1,-0.09684837609529495,1,0.03181314095854759,1,0.01179634220898151,1,-0.006377466954290867,1,-0.02745821885764599,1
1773074090074838784,0.2339695692062378,1,-0.134629413485527,1,0.006051485426723957,1,0.007538380566984415,1,-0.007410202641040087,1,-0.02870248071849346,1
1773074090085160704,0.2191094309091568,1,-0.05352895706892014,1,0.005768113769590855,1,0.007141002919524908,1,-0.007921796292066574,1,-0.02865434251725674,1
1773074090095382784,0.225379005074501,1,-0.1025612950325012,1,0.01902897097170353,1,0.01058010756969452,1,-0.008935095742344856,1,-0.0278808306902647,1
1773074090105503744,0.2213136851787567,1,-0.163690909743309,1,0.02928690426051617,1,0.005355356261134148,1,-0.008310054428875446,1,-0.0288265123963356,1
1773074090115526400,0.1769393086433411,1,-0.07135134935379028,1,0.02399295009672642,1,0.001770011498592794,1,-0.006513130851089954,1,-0.02879831381142139,1
1773074090125451008,0.1647629737854004,1,-0.05971159413456917,1,0.02060880325734615,1,0.004942795261740685,1,-0.004619986284524202,1,-0.02800516039133072,1
1773074090135279104,0.1838224679231644,1,-0.1593450009822845,1,0.005490143783390522,1,0.001461353851482272,1,-0.001651204656809568,1,-0.02807558514177799,1
1773074090145012224,0.1860227286815643,1,-0.1016837656497955,1,-0.008527612313628197,1,-0.006388027686625719,1,0.001028422731906176,1,-0.02895696461200714,1
1773074090154650112,0.1716930717229843,1,-0.02181622758507729,1,-0.01591542363166809,1,-0.008361193351447582,1,0.002256961073726416,1,-0.02800502814352512,1
1773074090164193024,0.1532152593135834,1,-0.08192087709903717,1,-0.01574143394827843,1,-0.01031158957630396,1,0.002823686692863703,1,-0.02819391153752804,1
1773074090173643520,0.1609737575054169,1,-0.03978423774242401,1,-0.009835000149905682,1,-0.01023605186492205,1,0.002658321755006909,1,-0.02945248037576675,1
1773074090183002368,0.2133103162050247,1,0.01203980389982462,1,0.002209990518167615,1,-0.006795928347855806,1,0.001715466496534646,1,-0.0299133937805891,1
1773074090192572672,0.2158523499965668,1,-0.04397468268871307,1,0.009127316065132618,1,-0.007497993297874928,1,0.0005007750005461276,1,-0.03043508343398571,1
1773074090203258368,0.1710890680551529,1,0.01252137683331966,1,0.04031699523329735,1,-0.009119815193116665,1,-0.0009317651274614036,1,-0.03164114430546761,1
1773074090213841920,0.1687164157629013,1,0.04637200757861137,1,0.04655126854777336,1,-0.007466663606464863,1,-0.001523988205008209,1,-0.03191645443439484,1
1773074090224322560,0.2038594186306,1,-0.02767601236701012,1,0.009212164208292961,1,-0.006917865015566349,1,-0.0009693136671558022,1,-0.03218891471624374,1
1773074090234700800,0.201222762465477,1,-0.00859641470015049,1,0.01511446759104729,1,-0.009905360639095306,1,0.001263931859284639,1,-0.03326162695884705,1
1773074090244979712,0.1865758001804352,1,0.03647429496049881,1,0.05907200649380684,1,-0.01093857083469629,1,0.003616950241848826,1,-0.03328195586800575,1
1773074090255158272,0.1838544458150864,1,-0.005551299080252647,1,0.04981225356459618,1,-0.01370089408010244,1,0.003439635969698429,1,-0.03365926817059517,1
1773074090265246976,0.2120556831359863,1,-0.01448524091392756,1,0.01367045380175114,1,-0.01387068536132574,1,0.00458215968683362,1,-0.03417264670133591,1
1773074090275240448,0.236455112695694,1,0.05206334963440895,1,0.02939156256616116,1,-0.0101267984136939,1,0.004078709986060858,1,-0.03421352431178093,1
1773074090285138432,0.2043789476156235,1,0.004792132414877415,1,0.06657101958990097,1,-0.007409918587654829,1,0.002645892091095448,1,-0.03411285579204559,1
1773074090294941184,0.2098622024059296,1,-0.01139617804437876,1,0.0679476410150528,1,-0.009113959968090057,1,0.001924620941281319,1,-0.03518762812018394,1
1773074090304648192,0.2386200129985809,1,0.07426455616950989,1,0.05164200067520142,1,-0.007794197648763657,1,0.0006612609140574932,1,-0.03559717163443565,1
1773074090314260224,0.2203636765480042,1,0.04653489962220192,1,0.06904862821102142,1,-0.001744529465213418,1,0.0002396750205662102,1,-0.03507040441036224,1
1773074090323780352,0.2139180451631546,1,0.01281049102544785,1,0.1170088350772858,1,0.0009107380174100399,1,0.0002981616999022663,1,-0.034844059497118,1
1773074090333209088,0.2232904732227325,1,0.07751444727182388,1,0.1349223703145981,1,0.00175324035808444,1,-0.00152829079888761,1,-0.0345054529607296,1
1773074090342544896,0.2509771287441254,1,0.02166332677006721,1,0.1103971302509308,1,0.00370033853687346,1,-0.002665052190423012,1,-0.03369810059666634,1
1773074090352696576,0.2597550451755524,1,-0.02782496623694897,1,0.09097572416067123,1,0.002651933347806334,1,-0.003103930503129959,1,-0.03352252393960953,1
1773074090363353600,0.2211667001247406,1,0.0510622076690197,1,0.1095534116029739,1,0.003215055912733078,1,-0.003485845634713769,1,-0.03296000137925148,1
1773074090373908224,0.2094043046236038,1,0.0357416570186615,1,0.1215936243534088,1,0.006586271338164806,1,-0.004544540774077177,1,-0.03235404565930367,1
1773074090384364544,0.2386579066514969,1,-0.0527166835963726,1,0.09719767421483994,1,0.007001894526183605,1,-0.006553326733410358,1,-0.03209401294589043,1
1773074090394719744,0.2341543138027191,1,-0.0219656229019165,1,0.07887095957994461,1,0.006798257119953632,1,-0.008719950914382935,1,-0.03220919519662857,1
1773074090404974848,0.176065668463707,1,0.03357399255037308,1,0.1191137358546257,1,0.009809753857553005,1,-0.01025671884417534,1,-0.03151924535632133,1
1773074090415129856,0.154934361577034,1,-0.01540163904428482,1,0.1269598305225372,1,0.01079337205737829,1,-0.01206909399479628,1,-0.031124172732234,1
1773074090425185280,0.1877385824918747,1,-0.03424873948097229,1,0.06658785790205002,1,0.01044865138828754,1,-0.0119779584929347,1,-0.03130226209759712,1
1773074090435150080,0.1977794468402863,1,0.00924685038626194,1,0.05517742782831192,1,0.01220268104225397,1,-0.0100261103361845,1,-0.03134915977716446,1
1773074090445018112,0.1720153391361237,1,-0.01185477338731289,1,0.08633619546890259,1,0.01267159171402454,1,-0.009878597222268581,1,-0.03070281073451042,1
1773074090454792192,0.186362236738205,1,-0.0520172119140625,1,0.05312385037541389,1,0.006973060313612223,1,-0.009584364481270313,1,-0.03125351667404175,1
1773074090464472576,0.1851940900087357,1,-0.02489584125578403,1,-0.02430670149624348,1,0.001471522613428533,1,-0.007354254368692636,1,-0.03164230659604073,1
1773074090474057984,0.1467015147209167,1,0.006756795570254326,1,-0.01998408138751984,1,0.003860552096739411,1,-0.005272711161524057,1,-0.03157123178243637,1
1773074090483550720,0.1531955003738403,1,-0.05823914706707001,1,0.01892693340778351,1,0.005825595464557409,1,-0.004272349178791046,1,-0.03151749446988106,1
1773074090492952832,0.200181171298027,1,-0.1139888614416122,1,0.02205984480679035,1,0.0003460150910541415,1,-0.004041770473122597,1,-0.03277205675840378,1
1773074090502263808,0.1683521419763565,1,-0.05030974000692368,1,0.01410969160497189,1,-0.006100645288825035,1,-0.002807824173942208,1,-0.0334709919989109,1
1773074090512856064,0.1292896270751953,1,0.003814941272139549,1,0.01337740384042263,1,-0.002761282492429018,1,-0.002663562307134271,1,-0.03298448398709297,1
1773074090523498496,0.2218586206436157,1,-0.0683320164680481,1,-0.02096600644290447,1,0.002755492925643921,1,-0.002051964867860079,1,-0.03368641808629036,1
1773074090534039552,0.2962619960308075,1,-0.1136055663228035,1,-0.03730777651071548,1,2.292450517416e-05,1,-0.0006979801109991968,1,-0.03508590906858444,1
1773074090544477440,0.1758850365877151,1,-0.01644014753401279,1,0.03265068680047989,1,-0.004457418341189623,1,-0.0002721095224842429,1,-0.03501792997121811,1
1773074090554813440,0.06845872104167938,1,0.02706853859126568,1,0.087166927754879,1,-0.0008789824787527323,1,-0.0012132846750319,1,-0.03482495993375778,1
1773074090565049088,0.2088873982429504,1,-0.06091328710317612,1,0.02029291912913322,1,0.004042957909405231,1,-0.001932439161464572,1,-0.03604421392083168,1
1773074090575185408,0.3550067245960236,1,-0.09134289622306824,1,-0.04999000579118729,1,0.0009650405263528228,1,0.0004011356504634023,1,-0.03679594397544861,1
1773074090585222912,0.2301729321479797,1,-0.01551492419093847,1,0.02149836532771587,1,-0.003203068627044559,1,0.002995254239067435,1,-0.03630132973194122,1
1773074090595162880,0.09716583788394928,1,0.0166897140443325,1,0.1464720219373703,1,-0.004684197716414928,1,0.0028974290471524,1,-0.03640444204211235,1
1773074090605007104,0.1948477625846863,1,-0.03916557505726814,1,0.1084426268935204,1,-0.004536502063274384,1,0.001430344884283841,1,-0.03706216439604759,1
1773074090614755840,0.3212899267673492,1,-0.06650828570127487,1,0.02551820874214172,1,-0.004440334625542164,1,0.003085637232288718,1,-0.03785115852952003,1
1773074090624408832,0.2370148897171021,1,-0.004283903632313013,1,0.1091957688331604,1,-0.003938695415854454,1,0.003071425249800086,1,-0.03724118694663048,1
1773074090633967104,0.1255970448255539,1,0.009966206736862659,1,0.2135704159736633,1,-0.005521440878510475,1,0.0002479779650457203,1,-0.03669289499521255,1
1773074090643435520,0.2400176376104355,1,-0.0555131584405899,1,0.1172537729144096,1,-0.006179939024150372,1,-0.003175727790221572,1,-0.0375002846121788,1
1773074090652832768,0.3844428658485413,1,-0.08052799850702286,1,-0.01476731430739164,1,-0.005755607970058918,1,-0.002742997370660305,1,-0.03754419460892677,1
1773074090662290176,0.2513047456741333,1,0.007644232362508774,1,0.0725552886724472,1,-0.005239896476268768,1,-0.002379864221438766,1,-0.03647669777274132,1
1773074090673009408,0.07554443925619125,1,0.04876844957470894,1,0.2154599726200104,1,-0.00487494096159935,1,-0.003086688229814172,1,-0.03588871285319328,1
1773074090683626496,0.1987743228673935,1,-0.0005017621442675591,1,0.1232932358980179,1,-0.003147696377709508,1,-0.005142160225659609,1,-0.03595755994319916,1
1773074090694146816,0.4214909672737122,1,-0.04554111510515213,1,-0.07521118223667145,1,0.0009394265944138169,1,-0.002658879850059748,1,-0.03550592809915543,1
1773074090704565504,0.3457156419754028,1,0.01618998497724533,1,-0.025090666487813,1,0.003413454163819551,1,0.0004496378824114799,1,-0.03445426374673843,1
1773074090714882304,0.08737015724182129,1,0.09966706484556198,1,0.1488799154758453,1,-7.231198833324015e-05,1,0.001751593663357198,1,-0.03373182192444801,1
1773074090725101568,0.08800260722637177,1,0.07007957994937897,1,0.09202257543802261,1,-0.001658389111980796,1,-0.0004737604467663914,1,-0.03413315489888191,1
1773074090735220736,0.3202868103981018,1,-0.006321799010038376,1,-0.1235928013920784,1,0.005924542900174856,1,-0.001436653197742999,1,-0.03464692831039429,1
1773074090745241344,0.4341137707233429,1,0.01512909960001707,1,-0.08041820675134659,1,0.01204898953437805,1,0.0008295372826978564,1,-0.03389643132686615,1
1773074090755165696,0.1952311843633652,1,0.0705956369638443,1,0.1472982615232468,1,0.0007889267290011048,1,4.196281952317804e-05,1,-0.03377730399370193,1
1773074090764994304,-0.01853404380381107,1,0.0819416418671608,1,0.1900327652692795,1,-0.008203285746276379,1,-0.001956804888322949,1,-0.03499257937073708,1
1773074090774726656,0.1534386426210403,1,0.01276977732777596,1,0.0114414393901825,1,0.004049392882734537,1,-0.005041232798248529,1,-0.03654724359512329,1
1773074090784364800,0.4855763912200928,1,-0.03967458009719849,1,-0.08145476132631302,1,0.01967655681073666,1,-0.003458688734099269,1,-0.03699572011828423,1
1773074090793908224,0.492526650428772,1,-0.0498017780482769,1,0.06536384671926498,1,0.01136508584022522,1,-0.0004866043163929135,1,-0.03628496825695038,1
1773074090803401472,0.1349604576826096,1,0.02827846631407738,1,0.2122567445039749,1,-0.01267386972904205,1,-0.001470828079618514,1,-0.03688352927565575,1
1773074090812812032,-0.07212242484092712,1,0.0647815614938736,1,0.1332582086324692,1,-0.01233470626175404,1,-0.002360336715355515,1,-0.03806657344102859,1
1773074090822570752,0.1840612888336182,1,-0.04094424843788147,1,-0.04025439545512199,1,0.01716402545571327,1,-0.003545507090166211,1,-0.0388110838830471,1
1773074090833255168,0.5273828506469727,1,-0.0845567062497139,1,-0.01105513982474804,1,0.02674458734691143,1,-0.004938747268170118,1,-0.03845567628741264,1
1773074090843836672,0.4195634126663208,1,-0.06751082837581635,1,0.1089897975325584,1,0.0008795440662652254,1,-0.005040578544139862,1,-0.03786956891417503,1
1773074090854314752,0.02426538988947868,1,0.03215730935335159,1,0.1088503673672676,1,-0.01971522532403469,1,-0.006374736316502094,1,-0.03815732151269913,1
1773074090864690432,-0.04269189387559891,1,0.04969416558742523,1,-0.01915207132697105,1,-0.002233082894235849,1,-0.006518668495118618,1,-0.03815618902444839,1
1773074090874965760,0.2905504107475281,1,-0.08890989422798157,1,-0.09642784297466278,1,0.02867491170763969,1,-0.006057272665202618,1,-0.03865940496325493,1
1773074090885143296,0.5384483337402344,1,-0.1501142382621765,1,0.06956364214420319,1,0.0241719763725996,1,-0.006652661133557558,1,-0.03893769532442093,1
1773074090895228928,0.2980065047740936,1,-0.06462936103343964,1,0.1903786957263947,1,-0.00962988194078207,1,-0.007903651334345341,1,-0.03785305470228195,1
1773074090905217024,-0.05604978650808334,1,0.03034146502614021,1,0.08486258238554001,1,-0.01794157922267914,1,-0.007951817475259304,1,-0.03755301609635353,1
1773074090915107328,0.04631898552179337,1,0.0007026819512248039,1,-0.05890011787414551,1,0.01264458894729614,1,-0.006357347592711449,1,-0.03876591846346855,1
1773074090924901632,0.4083042144775391,1,-0.1041026264429092,1,-0.04249577224254608,1,0.03214191272854805,1,-0.003298758296296,1,-0.03896543011069298,1
1773074090934600448,0.4208219945430756,1,-0.1136407628655434,1,0.1098382547497749,1,0.009713712148368359,1,-0.002418265212327242,1,-0.03775908797979355,1
1773074090944205056,0.08310394734144211,1,0.01368033699691296,1,0.1680864691734314,1,-0.02143198624253273,1,-0.003289377316832542,1,-0.03734074160456657,1
1773074090953716992,-0.01939855515956879,1,0.06203481182456017,1,0.02509848400950432,1,-0.01574249938130379,1,-0.002153750276193023,1,-0.03810391947627068,1
1773074090963136512,0.2728766798973083,1,-0.04254034906625748,1,-0.1050882562994957,1,0.0144259724766016,1,0.0001775875716703013,1,-0.0386127308011055,1
1773074090972463360,0.5123003721237183,1,-0.05381749197840691,1,0.04450112581253052,1,0.02135094255208969,1,0.001409650547429919,1,-0.03773405030369759,1
1773074090982611200,0.3103077113628387,1,-0.006807906553149223,1,0.2342082858085632,1,-0.00593886710703373,1,0.0008300766348838806,1,-0.03637496381998062,1
1773074090993266432,0.01352102123200893,1,0.03243215382099152,1,0.161273181438446,1,-0.02245630323886871,1,-0.0009227987611666322,1,-0.03685529157519341,1
1773074091003820800,0.1154919862747192,1,0.01167077943682671,1,-0.05654559284448624,1,-0.001730981981381774,1,-0.001006099046207964,1,-0.03757668286561966,1
1773074091014272256,0.3824959695339203,1,-0.08195944875478745,1,-0.07438554614782333,1,0.02186089754104614,1,0.001584793324582279,1,-0.03779841586947441,1
1773074091024621056,0.4037927985191345,1,-0.04313115403056145,1,0.145120844244957,1,0.01096285693347454,1,0.001915245549753308,1,-0.03692794963717461,1
1773074091034869760,0.1861249953508377,1,0.008459578268229961,1,0.2200429886579514,1,-0.01699426397681236,1,-0.0003962059563491493,1,-0.03683485463261604,1
1773074091045017600,0.1813080310821533,1,-0.01158358622342348,1,0.00580921582877636,1,-0.01679174229502678,1,-0.000566868344321847,1,-0.03851912915706635,1
1773074091055067648,0.402215987443924,1,-0.07629698514938354,1,-0.1356647908687592,1,0.009323915466666222,1,0.003731225850060582,1,-0.03925903514027596,1
1773074091065028096,0.4279756247997284,1,-0.02504532411694527,1,0.07227843254804611,1,0.01851277984678745,1,0.004964842461049557,1,-0.03878955915570259,1
1773074091074892288,0.1786452829837799,1,0.04701539501547813,1,0.2939031720161438,1,-0.0003936728462576866,1,0.0009577447781339288,1,-0.03877808153629303,1
1773074091084659968,0.1715392917394638,1,0.03113513998687267,1,0.1236942261457443,1,-0.009881552308797836,1,-0.002071588532999158,1,-0.03911308571696281,1
1773074091094332416,0.4755795896053314,1,-0.08509945124387741,1,-0.2116672843694687,1,0.004389530047774315,1,0.0003651518782135099,1,-0.03934727609157562,1
1773074091103910656,0.5748125314712524,1,-0.04369177669286728,1,-0.1502987593412399,1,0.01974488236010075,1,0.004107573535293341,1,-0.03929872065782547,1
1773074091113394688,0.385959804058075,1,0.03101516887545586,1,0.1902464926242828,1,0.01097262278199196,1,0.006146387662738562,1,-0.0391237847507,1
1773074091122787072,0.2522108554840088,1,0.04295241087675095,1,0.2660716772079468,1,-0.009778594598174095,1,0.003009005915373564,1,-0.03978986293077469,1
1773074091132088320,0.4071608781814575,1,-0.03005389496684074,1,0.0151604451239109,1,-0.004212519153952599,1,0.001085974625311792,1,-0.04142310842871666,1
1773074091142679296,0.6813200116157532,1,-0.05841877311468124,1,-0.08406022936105728,1,0.01623345166444778,1,0.006488852202892303,1,-0.04206409305334091,1
1773074091153323776,0.626679003238678,1,0.02439767122268677,1,0.1301949173212051,1,0.02176153101027012,1,0.006637998856604099,1,-0.04073299467563629,1
1773074091163870976,0.3343595266342163,1,0.02971355430781841,1,0.3495875298976898,1,0.002661438891664147,1,0.002451980952173471,1,-0.04079530015587807,1
1773074091174319872,0.3421854376792908,1,-0.02972851693630219,1,0.1859671622514725,1,-0.003967232536524534,1,-0.003685134928673506,1,-0.04342365637421608,1
1773074091184668928,0.6453268527984619,1,-0.1128053516149521,1,-0.09932571649551392,1,0.01065461523830891,1,-0.005462962668389082,1,-0.04504233971238136,1
1773074091194924544,0.7561740279197693,1,-0.05371178686618805,1,-0.03661675751209259,1,0.02103589475154877,1,-0.005185701884329319,1,-0.04452686756849289,1
1773074091205083392,0.5104683041572571,1,-0.01120928674936295,1,0.2506059408187866,1,0.005047241225838661,1,-0.004581601824611425,1,-0.04327660799026489,1
1773074091215149312,0.3085277676582336,1,0.01121506188064814,1,0.264793187379837,1,-0.01297245640307665,1,-0.006827460136264563,1,-0.0433281846344471,1
1773074091225134336,0.4877292811870575,1,-0.09114247560501099,1,0.02645492926239967,1,0.00146382418461144,1,-0.005218389444053173,1,-0.04480702802538872,1
1773074091235024640,0.8540025949478149,1,-0.1530348360538483,1,-0.03364652395248413,1,0.0198970939964056,1,-0.0004794299602508545,1,-0.04555563256144524,1
1773074091244819968,0.7762008905410767,1,-0.08403518050909042,1,0.1652713418006897,1,0.01305700745433569,1,0.001337411580607295,1,-0.04346642643213272,1
1773074091254523904,0.4250948429107666,1,-0.07065017521381378,1,0.3255529403686523,1,-0.009460613131523132,1,0.0004255911917425692,1,-0.04337525367736816,1
1773074091264134912,0.3410473465919495,1,0.006987250875681639,1,0.1784030050039291,1,-0.01186085771769285,1,-0.002670405665412545,1,-0.04480518400669098,1
1773074091273653760,0.6947941780090332,1,-0.08963305503129959,1,-0.09170407056808472,1,0.01482276618480682,1,-0.0008698925375938416,1,-0.04559990763664246,1
1773074091283085568,0.9497689604759216,1,-0.1242565810680389,1,-0.02702290564775467,1,0.02422340959310532,1,0.000699509575497359,1,-0.04461484774947166,1
1773074091292575232,0.6699106097221375,1,-0.07285633683204651,1,0.197415828704834,1,8.580437861382961e-05,1,0.0007562527898699045,1,-0.04339197650551796,1
1773074091303289856,0.3223343789577484,1,-0.006326274480670691,1,0.2179728150367737,1,-0.02132486924529076,1,-0.002855653408914804,1,-0.04346509650349617,1
1773074091313901568,0.4035846590995789,1,-0.03101912513375282,1,0.00691707618534565,1,-0.005382887087762356,1,-0.00455425912514329,1,-0.04516030102968216,1
1773074091324414208,0.8933896422386169,1,-0.1068012863397598,1,-0.1336720585823059,1,0.02113117463886738,1,-0.0005662345793098211,1,-0.04595649987459183,1
1773074091334827008,1.006371021270752,1,-0.1141226440668106,1,0.04684570804238319,1,0.01419957261532545,1,0.001875044894404709,1,-0.04453654587268829,1
1773074091345139200,0.559353232383728,1,-0.03009912185370922,1,0.2849729657173157,1,-0.01748451963067055,1,0.003187259193509817,1,-0.04409221932291985,1
1773074091355359488,0.2517556846141815,1,0.03236377239227295,1,0.2222602814435959,1,-0.02327051572501659,1,0.002102686790749431,1,-0.04503907263278961,1
1773074091365480704,0.5305968523025513,1,-0.06151174381375313,1,-0.03409551084041595,1,0.008043183013796806,1,0.001211818307638168,1,-0.04618285596370697,1
1773074091375503104,0.9461007714271545,1,-0.1291735470294952,1,-0.0744113028049469,1,0.02533716522157192,1,0.002503477735444903,1,-0.04646143689751625,1
1773074091385428480,0.8123138546943665,1,-0.08593311905860901,1,0.1085621565580368,1,0.002514350693672895,1,0.002700978191569448,1,-0.04533641412854195,1
1773074091395257600,0.3487901091575623,1,0.02562257833778858,1,0.1798830479383469,1,-0.02773693762719631,1,0.001166793634183705,1,-0.04506285488605499,1
1773074091404990464,0.2815392315387726,1,0.03535524010658264,1,-0.019703458994627,1,-0.02008805982768536,1,-0.001965645467862487,1,-0.04602503031492233,1
1773074091414628352,0.7263628840446472,1,-0.08123980462551117,1,-0.2424254417419434,1,0.01365278661251068,1,-0.0006270267767831683,1,-0.04697778448462486,1
1773074091424174080,1.017778396606445,1,-0.130130335688591,1,-0.04653061181306839,1,0.0189482606947422,1,0.0001995357451960444,1,-0.04679031670093536,1
1773074091433626112,0.7157438993453979,1,-0.08525947481393814,1,0.2404736876487732,1,-0.01651920937001705,1,0.002270415890961885,1,-0.04587056487798691,1
1773074091442986240,0.3282128870487213,1,0.02368981018662453,1,0.2161383181810379,1,-0.03399978205561638,1,0.000828747870400548,1,-0.04650364071130753,1
1773074091452709376,0.4081934094429016,1,0.01211051270365715,1,-0.003688247874379158,1,-0.001699913293123245,1,2.613483229652047e-05,1,-0.04778207466006279,1
1773074091463394048,0.8711090683937073,1,-0.1070467904210091,1,-0.07538116723299026,1,0.03489010408520699,1,0.002920980332419276,1,-0.04862289503216743,1
1773074091473974528,0.9559925198554993,1,-0.07562887668609619,1,0.1269777715206146,1,0.02303572744131088,1,0.003161911619827151,1,-0.0470094196498394,1
1773074091484451584,0.5383771657943726,1,-0.005036158487200737,1,0.2496819198131561,1,-0.01784858293831348,1,0.00263508758507669,1,-0.04672306403517723,1
1773074091494827264,0.2754080891609192,1,0.09426906704902649,1,0.0491829439997673,1,-0.0253384206444025,1,-0.001568570849485695,1,-0.0478426069021225,1
1773074091505100544,0.5995937585830688,1,-0.02015313506126404,1,-0.2153547257184982,1,0.01433805003762245,1,-0.002199644455686212,1,-0.04866819456219673,1
1773074091515273472,1.047423720359802,1,-0.06722640246152878,1,-0.1162668764591217,1,0.03312039375305176,1,-0.002487144200131297,1,-0.04850210621953011,1
1773074091525362432,0.8708937168121338,1,-0.08284265547990799,1,0.1828099489212036,1,0.001466434914618731,1,-0.001469621900469065,1,-0.04778571054339409,1
1773074091535352576,0.4227986037731171,1,-0.02642800286412239,1,0.2825802564620972,1,-0.03117861412465572,1,-0.004236116539686918,1,-0.04928570240736008,1
1773074091545245184,0.3370265364646912,1,0.05242988094687462,1,0.1088811606168747,1,-0.01361036952584982,1,-0.00671550165861845,1,-0.05044357106089592,1
1773074091555041792,0.7855268120765686,1,-0.1127605512738228,1,-0.05651150271296501,1,0.03247513622045517,1,-0.005664670374244452,1,-0.05069552734494209,1
1773074091564741888,1.07200288772583,1,-0.08095704019069672,1,0.1196230724453926,1,0.03451266139745712,1,-0.005217971745878458,1,-0.05010973662137985,1
1773074091574348288,0.7160182595252991,1,-0.05358842387795448,1,0.2924306392669678,1,-0.009063621982932091,1,-0.003643549047410488,1,-0.04960617050528526,1
1773074091583862016,0.3157733976840973,1,0.05022650957107544,1,0.1522600948810577,1,-0.02945440262556076,1,-0.004342436790466309,1,-0.04983004927635193,1
1773074091593286144,0.4504855275154114,1,-0.01384305115789175,1,-0.1298030763864517,1,0.005515588447451591,1,-0.004991193301975727,1,-0.04995181784033775,1
1773074091602619392,0.9102345705032349,1,-0.07645827531814575,1,-0.135318398475647,1,0.0384332463145256,1,-0.004711851011961699,1,-0.04990335553884506,1
1773074091612767488,0.9675965905189514,1,-0.1023955121636391,1,0.1325744092464447,1,0.01759141124784946,1,-0.005807613022625446,1,-0.04891638830304146,1
1773074091623420416,0.5355029702186584,1,-0.0008197063580155373,1,0.2573856711387634,1,-0.02910426259040833,1,-0.007845533080399036,1,-0.04815676808357239,1
1773074091633974784,0.258782833814621,1,0.03946953639388084,1,0.04258145391941071,1,-0.02877518720924854,1,-0.007176407147198915,1,-0.0489894300699234,1
1773074091644431616,0.5838359594345093,1,0.002571276389062405,1,-0.1281637698411942,1,0.0219778697937727,1,-0.006078578997403383,1,-0.04993996024131775,1
1773074091654791168,1.007734417915344,1,-0.07045955955982208,1,0.05933143943548203,1,0.04752954468131065,1,-0.004430854227393866,1,-0.04920278117060661,1
1773074091665048576,0.8897082805633545,1,-0.1098498404026031,1,0.3044788539409637,1,0.01142286323010921,1,-0.003316540271043777,1,-0.04795664921402931,1
1773074091675206912,0.4202041029930115,1,0.006016974803060293,1,0.2715989649295807,1,-0.02857578732073307,1,-0.003714307211339474,1,-0.04817089810967445,1
1773074091685265152,0.2596471905708313,1,0.05344779789447784,1,0.007102983072400093,1,-0.01233983226120472,1,-0.002944585867226124,1,-0.0482981838285923,1
1773074091695227136,0.5748523473739624,1,-0.03665173053741455,1,-0.1313956081867218,1,0.03889235109090805,1,-0.002732285065576434,1,-0.04711172729730606,1
1773074091705092864,0.9645240902900696,1,-0.1160001307725906,1,0.09945251792669296,1,0.04673421755433083,1,-0.004106021486222744,1,-0.04689499363303185,1
1773074091714866432,0.78094881772995,1,-0.1599598228931427,1,0.2435443252325058,1,-0.007872924208641052,1,-0.005649287719279528,1,-0.04692339524626732,1
1773074091724545536,0.3291308879852295,1,0.03984688222408295,1,0.1168494746088982,1,-0.03946710377931595,1,-0.00747783575206995,1,-0.0468149296939373,1
1773074091734130432,0.3193484842777252,1,0.0100845443084836,1,-0.08067242801189423,1,-0.00805597472935915,1,-0.00505613349378109,1,-0.04720805212855339,1
1773074091743621120,0.7588898539543152,1,-0.1514051854610443,1,-0.09724568575620651,1,0.03346682712435722,1,-0.001825283048674464,1,-0.04808414354920387,1
1773074091753019136,1.068320155143738,1,-0.1457109898328781,1,0.1622736304998398,1,0.0248730331659317,1,0.0006662708474323153,1,-0.04830171167850494,1
1773074091762325760,0.7819686532020569,1,-0.07506750524044037,1,0.2775613069534302,1,-0.02719618193805218,1,0.003121251473203301,1,-0.04751008749008179,1
1773074091772914688,0.269284188747406,1,0.06704270094633102,1,0.1556429415941238,1,-0.04060250520706177,1,0.005691886879503727,1,-0.0479753278195858,1
1773074091783555584,0.3046497106552124,1,0.06210163980722427,1,-0.003823285922408104,1,0.004653325304389,1,0.005975332576781511,1,-0.04785363748669624,1
1773074091794094848,0.7572360634803772,1,-0.1009717583656311,1,-0.05122340470552444,1,0.04200851172208786,1,0.005354934372007847,1,-0.04786340519785881,1
1773074091804534784,1.004124402999878,1,-0.1188398823142052,1,0.1087370589375496,1,0.02358497120440006,1,0.002560482127591968,1,-0.04784004762768745,1
1773074091814873856,0.6946040391921997,1,-0.009930577129125595,1,0.1682430952787399,1,-0.02762605249881744,1,-0.0009891885565593839,1,-0.04686684161424637,1
1773074091825112320,0.2490302920341492,1,0.0127615612000227,1,0.02743002772331238,1,-0.03670597076416016,1,-0.003515163203701377,1,-0.04698718339204788,1
1773074091835252736,0.3852294981479645,1,0.01776902005076408,1,-0.05817344412207603,1,0.0097345020622015,1,-0.006257849745452404,1,-0.04753509536385536,1
1773074091845296128,0.8872087001800537,1,-0.1319162100553513,1,0.02860461547970772,1,0.04510726034641266,1,-0.007912068627774715,1,-0.04772736877202988,1
1773074091855251456,1.060978293418884,1,-0.2020106613636017,1,0.2292562276124954,1,0.0230737030506134,1,-0.009369736537337303,1,-0.04804377257823944,1
1773074091865113344,0.64962238073349,1,-0.04577727615833282,1,0.2643128931522369,1,-0.0261833518743515,1,-0.007502407766878605,1,-0.04740395769476891,1
1773074091874878464,0.1569731086492538,1,-0.005772356875240803,1,0.09056796878576279,1,-0.02932052314281464,1,-0.00444830022752285,1,-0.04768073558807373,1
1773074091884548352,0.3172986805438995,1,-0.02413390204310417,1,-0.03848187625408173,1,0.01488431729376316,1,-0.002853370737284422,1,-0.04831406474113464,1
1773074091894123264,0.8615771532058716,1,-0.1516257673501968,1,-0.0148982685059309,1,0.03939609974622726,1,-3.922112591681071e-05,1,-0.04743137210607529,1
1773074091903604992,1.059868693351746,1,-0.1870699971914291,1,0.1045663133263588,1,0.01038039848208427,1,0.000724721874576062,1,-0.04759893193840981,1
1773074091912994048,0.7000091671943665,1,-0.01694702543318272,1,0.1290013045072556,1,-0.04010032489895821,1,0.002369446214288473,1,-0.04650553315877914,1
1773074091922443776,0.1820284277200699,1,0.0771876722574234,1,0.03222057595849037,1,-0.04215856269001961,1,0.003269538749009371,1,-0.04547395557165146,1
1773074091933160448,0.2430631518363953,1,0.04675913229584694,1,-0.02390152961015701,1,0.006623792462050915,1,0.000200487847905606,1,-0.04580230638384819,1
1773074091943774208,0.7795215845108032,1,-0.08083739876747131,1,0.01262572687119246,1,0.0363779217004776,1,-0.002597703598439693,1,-0.04600507020950317,1
1773074091954286080,1.061678171157837,1,-0.1062628105282784,1,0.09708394855260849,1,0.01549652684479952,1,-0.005198872648179531,1,-0.04565319418907166,1
1773074091964705024,0.6896151304244995,1,-0.05717908218502998,1,0.09082789719104767,1,-0.03228197619318962,1,-0.004038596525788307,1,-0.04535059258341789,1
1773074091975025408,0.1747694164514542,1,0.1154478788375854,1,-0.01567228883504868,1,-0.03542380779981613,1,-0.002266988856717944,1,-0.04439818486571312,1
1773074091985247232,0.2684025764465332,1,0.04572843760251999,1,-0.08519411832094193,1,0.008973518386483192,1,-0.002018537372350693,1,-0.04413241147994995,1
1773074091995371520,0.8081446886062622,1,-0.1589029878377914,1,-0.04689501971006393,1,0.03644324466586113,1,-0.00179946783464402,1,-0.04510342702269554,1
1773074092005398016,1.097563743591309,1,-0.1788843870162964,1,0.09697417914867401,1,0.01489823311567307,1,-0.0004253794613759965,1,-0.04538365080952644,1
1773074092015327744,0.769262969493866,1,-0.06401069462299347,1,0.1734254360198975,1,-0.03301345929503441,1,0.00273980526253581,1,-0.04495277255773544,1
1773074092025164288,0.1745696216821671,1,0.09849962592124939,1,0.1487767547369003,1,-0.03981072083115578,1,0.002283020643517375,1,-0.04368897527456284,1
1773074092034908416,0.186729297041893,1,0.1090760976076126,1,0.07992586493492126,1,0.002583730965852737,1,-7.362588075920939e-05,1,-0.04327607899904251,1
1773074092044558848,0.7327125072479248,1,-0.1415847390890121,1,-0.0379563644528389,1,0.03363507613539696,1,-0.002305487869307399,1,-0.04318108037114143,1
1773074092054116096,1.110215067863464,1,-0.1684915274381638,1,-0.04015490040183067,1,0.01741560362279415,1,-0.004086780361831188,1,-0.0427367314696312,1
1773074092063580928,0.7756383419036865,1,-0.08144094794988632,1,0.03607137128710747,1,-0.02919867448508739,1,-0.00134086178150028,1,-0.04234228283166885,1
1773074092072954624,0.1431993544101715,1,0.09557856619358063,1,0.09224624931812286,1,-0.04051285609602928,1,-0.00185557862278074,1,-0.04211568832397461,1
1773074092082686976,0.1389621645212173,1,0.1279063522815704,1,0.06924394518136978,1,-0.00143528962507844,1,-0.003454472869634628,1,-0.04157048463821411,1
1773074092093370112,0.7680991888046265,1,-0.07692442089319229,1,-0.01230332069098949,1,0.03573893755674362,1,-0.003945481963455677,1,-0.04114063456654549,1
1773074092103951104,1.147380590438843,1,-0.1180300638079643,1,0.09156768023967743,1,0.02689610980451107,1,-0.0009207386756315827,1,-0.04076975211501122,1
1773074092114435328,0.7812716364860535,1,0.009545285254716873,1,0.246059313416481,1,-0.01611469686031342,1,0.004386063199490309,1,-0.04040508717298508,1
1773074092124823040,0.1581553667783737,1,0.1515351235866547,1,0.2360654324293137,1,-0.03024718910455704,1,0.002207271754741669,1,-0.03937114402651787,1
1773074092135112448,0.1820030957460403,1,0.1302478909492493,1,0.07626132667064667,1,0.002762484829872847,1,-0.001113778213039041,1,-0.03904996812343597,1
1773074092145303296,0.8165640830993652,1,-0.03131839260458946,1,-0.08748989552259445,1,0.0367676243185997,1,-0.002847789553925395,1,-0.03907495364546776,1
1773074092155399168,1.138971447944641,1,-0.1151041910052299,1,0.03455713018774986,1,0.02476466447114944,1,-0.003234764561057091,1,-0.03896159678697586,1
1773074092165396736,0.7427701950073242,1,-0.000565793365240097,1,0.2325635254383087,1,-0.02191469818353653,1,-0.0008775510359555483,1,-0.03835532814264297,1
1773074092175298304,0.150717481970787,1,0.1090778410434723,1,0.1945366114377975,1,-0.03896395862102509,1,-0.005766935646533966,1,-0.03865137323737144,1
1773074092185107712,0.2443267405033112,1,0.1713443249464035,1,0.07527684420347214,1,0.003378397319465876,1,-0.01037256140261889,1,-0.03894032537937164,1
1773074092194823424,0.8866130113601685,1,-0.1067746132612228,1,8.918531239032745e-05,1,0.04218563064932823,1,-0.009851433336734772,1,-0.03880653902888298,1
1773074092204445440,1.092865586280823,1,-0.1090176925063133,1,0.1601061969995499,1,0.02448173053562641,1,-0.007775879930704832,1,-0.0382743813097477,1
1773074092213974272,0.5382924675941467,1,-0.04923728853464127,1,0.3390281200408936,1,-0.01810557395219803,1,-0.004957866389304399,1,-0.03780568018555641,1
1773074092223410944,0.08358877152204514,1,0.06723963469266891,1,0.2186348289251328,1,-0.02393518947064877,1,-0.006560778245329857,1,-0.03752296790480614,1
1773074092232759808,0.3895063400268555,1,0.04956051334738731,1,-0.04064716026186943,1,0.01706156693398952,1,-0.0109311630949378,1,-0.03622499108314514,1
1773074092242930688,0.9146111607551575,1,-0.07765175402164459,1,-0.1121832802891731,1,0.03903855755925179,1,-0.008332405239343643,1,-0.03554685786366463,1
1773074092253584128,0.9039367437362671,1,-0.122689887881279,1,0.08015967160463333,1,0.01154554635286331,1,-0.003610215615481138,1,-0.03479373082518578,1
1773074092264135680,0.3768596351146698,1,-0.007814638316631317,1,0.2228236198425293,1,-0.02926551923155785,1,-0.004492525011301041,1,-0.0333685502409935,1
1773074092274585856,0.140771672129631,1,0.06860207766294479,1,0.06320299953222275,1,-0.02381376922130585,1,-0.007917791604995728,1,-0.0335099995136261,1
1773074092284937216,0.5489012002944946,1,0.05456076189875603,1,-0.1085838004946709,1,0.02380267344415188,1,-0.01127019431442022,1,-0.03285421803593636,1
1773074092295198208,0.9502463340759277,1,-0.03427949920296669,1,0.0316864401102066,1,0.04099020734429359,1,-0.009138893336057663,1,-0.0319506861269474,1
1773074092305360896,0.6924434900283813,1,-0.1219234764575958,1,0.245448499917984,1,0.00258868932723999,1,-0.005430154036730528,1,-0.03151418268680573,1
1773074092315426816,0.187073215842247,1,0.002340845763683319,1,0.1510158777236938,1,-0.02867926098406315,1,-0.006229132413864136,1,-0.03103151172399521,1
1773074092325398784,0.2402569055557251,1,0.1222028955817223,1,-0.1064883172512054,1,-0.007845206186175346,1,-0.006844230461865664,1,-0.03035633265972137,1
1773074092335274496,0.6288652420043945,1,-0.03091111034154892,1,-0.2935662865638733,1,0.02886134386062622,1,-0.00443023256957531,1,-0.03018800914287567,1
1773074092345054720,0.8136478662490845,1,-0.04745988547801971,1,0.001812598668038845,1,0.02389343269169331,1,-0.0004470631829462945,1,-0.02969358488917351,1
1773074092354744320,0.4952588081359863,1,-0.09482012689113617,1,0.204235777258873,1,-0.02219001017510891,1,0.002133969450369477,1,-0.02910873666405678,1
1773074092364342272,0.1314952671527863,1,0.08653753250837326,1,0.08058128505945206,1,-0.0354677177965641,1,0.0008666581707075238,1,-0.02763915993273258,1
1773074092373847808,0.334384560585022,1,0.09759616851806641,1,-0.09175840765237808,1,0.005587899591773748,1,-0.001642269548028708,1,-0.02732770331203938,1
1773074092383261440,0.7646080255508423,1,0.001904930919408798,1,-0.0490773469209671,1,0.03507943078875542,1,0.0001828758686315268,1,-0.02697796374559402,1
1773074092392583936,0.6750121116638184,1,-0.1027720719575882,1,0.1587207615375519,1,0.01225732266902924,1,0.002790735336020589,1,-0.02651790343225002,1
1773074092403320576,0.2725279927253723,1,0.05868725851178169,1,0.1902841776609421,1,-0.02341162413358688,1,0.001021648175083101,1,-0.02546991221606731,1
1773074092413954816,0.1896153837442398,1,0.1019624248147011,1,-0.04978575929999352,1,-0.01953774131834507,1,-0.001722359913401306,1,-0.0247613862156868,1
1773074092424490496,0.4742746353149414,1,0.004090281203389168,1,-0.2030527889728546,1,0.01553714461624622,1,-0.002097738906741142,1,-0.02464449964463711,1
1773074092434925056,0.7248774170875549,1,-0.001228295499458909,1,0.0156271681189537,1,0.02730370871722698,1,0.001523138140328228,1,-0.02350242249667645,1
1773074092445259264,0.5408075451850891,1,0.04324981570243835,1,0.2550573945045471,1,-0.004698817618191242,1,0.00495029054582119,1,-0.02230775728821754,1
1773074092455495680,0.1563680768013,1,0.1122708022594452,1,0.2172309160232544,1,-0.02869785949587822,1,0.00295192445628345,1,-0.02144593000411987,1
1773074092465632768,0.2364638596773148,1,0.1664177179336548,1,1.838058233261108e-05,1,-0.005826933309435844,1,-0.0005134640960022807,1,-0.02054021321237087,1
1773074092475672064,0.6387131214141846,1,-0.02100458368659019,1,-0.1302365660667419,1,0.02432682737708092,1,-0.0005776557954959571,1,-0.0189957432448864,1
1773074092485631744,0.6961719393730164,1,-0.02160442434251308,1,0.05397716909646988,1,0.01897597499191761,1,-0.0002495091175660491,1,-0.01836010254919529,1
1773074092495500032,0.2850406765937805,1,0.02557132765650749,1,0.2556495666503906,1,-0.01453667040914297,1,-0.00115382217336446,1,-0.01786424405872822,1
1773074092505275648,0.1047050133347511,1,0.09771127998828888,1,0.1206565126776695,1,-0.02402681484818459,1,-0.007523757871240377,1,-0.01652241684496403,1
1773074092514958592,0.4022389948368073,1,0.02642617374658585,1,-0.1513087153434753,1,0.001458385260775685,1,-0.01019014231860638,1,-0.01561731845140457,1
1773074092524549632,0.6964837312698364,1,-0.03782223537564278,1,-0.0816936120390892,1,0.02655952610075474,1,-0.006327691953629255,1,-0.01478078030049801,1
1773074092534048000,0.5379937291145325,1,-0.02373720332980156,1,0.2344768941402435,1,0.007730704266577959,1,-0.000348482426488772,1,-0.01433795318007469,1
1773074092543456768,0.1438304483890533,1,0.07032546401023865,1,0.3306705355644226,1,-0.02216346003115177,1,-0.001670571160502732,1,-0.01336609572172165,1
1773074092552925952,0.1694624722003937,1,0.1342749148607254,1,0.1184005588293076,1,-0.01583198085427284,1,-0.003346554702147841,1,-0.01171923615038395,1
1773074092563635200,0.5724441409111023,1,-0.06772185117006302,1,-0.1174298897385597,1,0.01332483906298876,1,-0.001442468259483576,1,-0.01061009056866169,1
1773074092574241024,0.6820350289344788,1,-0.05428168177604675,1,0.03209102153778076,1,0.0191958025097847,1,0.00312096020206809,1,-0.01014155428856611,1
1773074092584748032,0.326564222574234,1,0.03808199614286423,1,0.340273380279541,1,-0.007141859270632267,1,0.002825514413416386,1,-0.009652197360992432,1
1773074092595157504,0.1397948563098907,1,0.1866496056318283,1,0.2638614773750305,1,-0.02218517474830151,1,-0.00175430451054126,1,-0.008896240964531898,1
1773074092605466368,0.4302676022052765,1,0.05131381377577782,1,-0.1022028028964996,1,-0.002384438645094633,1,-0.003441316075623035,1,-0.008478978648781776,1
1773074092615676416,0.7034204602241516,1,0.04169205203652382,1,-0.154938280582428,1,0.02184917964041233,1,-0.002013488439843059,1,-0.007394535932689905,1
1773074092625788160,0.462344765663147,1,0.04053169116377831,1,0.117556057870388,1,0.01564249768853188,1,0.001680673682130873,1,-0.005889666266739368,1
1773074092635802624,0.1171964183449745,1,0.07267770171165466,1,0.2283310145139694,1,-0.01064355205744505,1,-0.003404152113944292,1,-0.006722157821059227,1
1773074092645720576,0.2391113638877869,1,0.1447517275810242,1,-0.0335741899907589,1,-0.01329987682402134,1,-0.008907565847039223,1,-0.006812748964875937,1
1773074092655545088,0.6220678091049194,1,-0.04645534232258797,1,-0.3110188841819763,1,0.008156437426805496,1,-0.006080986466258764,1,-0.006513520143926144,1
1773074092665276416,0.6182823777198792,1,-0.04782197624444962,1,-0.1538507640361786,1,0.01625504158437252,1,0.0006203562952578068,1,-0.005833318922668695,1
1773074092674913024,0.2418438941240311,1,0.1212515234947205,1,0.2096477746963501,1,-0.002734880661591887,1,0.002509943908080459,1,-0.004913720302283764,1
1773074092684456448,0.1064931377768517,1,0.1651806086301804,1,0.1783066987991333,1,-0.01935870759189129,1,0.0005299897165969014,1,-0.005367233883589506,1
1773074092693907456,0.414931058883667,1,-0.02442462928593159,1,-0.1976776421070099,1,-0.007032282184809446,1,-0.0004878494946751744,1,-0.005622242577373981,1
1773074092703312896,0.6041626334190369,1,-0.1067659929394722,1,-0.2520544230937958,1,0.01050001010298729,1,0.004747947212308645,1,-0.004576117265969515,1
1773074092713068544,0.3457390666007996,1,-0.030417300760746,1,0.08692558109760284,1,0.005706650204956532,1,0.005012000445276499,1,-0.003828086657449603,1
1773074092723741184,0.09040265530347824,1,0.08863402903079987,1,0.257485568523407,1,-0.01798920705914497,1,0.0001552549365442246,1,-0.003430608892813325,1
1773074092734312704,0.2293688654899597,1,0.03534939140081406,1,0.01134331151843071,1,-0.02218769490718842,1,-0.006299868226051331,1,-0.003711024532094598,1
1773074092744782592,0.4705280363559723,1,-0.07768462598323822,1,-0.2171782404184341,1,-0.003656775457784534,1,-0.003075456712394953,1,-0.003108224598690867,1
1773074092755153920,0.3680117726325989,1,0.05542962253093719,1,-0.01688260212540627,1,0.01170349679887295,1,0.002264072652906179,1,-0.0005372290033847094,1
1773074092765432320,0.1354010403156281,1,0.04353656992316246,1,0.2731931805610657,1,0.004998250398784876,1,-0.001489983405917883,1,0.001113847945816815,1
1773074092775612416,0.1771755516529083,1,0.01284841820597649,1,0.1103032976388931,1,-0.01282668206840754,1,-0.008147817105054855,1,0.0005629708175547421,1
1773074092785694464,0.3052791953086853,1,0.02827524766325951,1,-0.2043891102075577,1,-0.006575367879122496,1,-0.006929195951670408,1,0.001223476603627205,1
1773074092795680768,0.2121551930904388,1,0.08273068815469742,1,-0.140672355890274,1,0.008936942555010319,1,-0.002912061288952827,1,0.002489922801032662,1
1773074092805570560,0.02532350271940231,1,0.08527152240276337,1,0.146868884563446,1,0.009380623698234558,1,-0.005492838565260172,1,0.003496048040688038,1
1773074092815366144,0.0884149894118309,1,0.04233938083052635,1,0.134271577000618,1,-0.003820723854005337,1,-0.01054152473807335,1,0.003304762998595834,1
1773074092825069824,0.3020239770412445,1,-0.01202793698757887,1,-0.1529375165700912,1,-0.0003111346741206944,1,-0.0119924983009696,1,0.004098173230886459,1
1773074092834680832,0.2945088446140289,1,0.02503153122961521,1,-0.1432008296251297,1,0.006144999526441097,1,-0.008871939964592457,1,0.004020591732114553,1
1773074092844199424,0.01102341338992119,1,0.1380825489759445,1,0.1288001537322998,1,0.001960748108103871,1,-0.006738227792084217,1,0.003813093295320868,1
1773074092853625600,-0.02931550145149231,1,0.07825721800327301,1,0.1410315483808517,1,-0.007085652556270361,1,-0.008168504573404789,1,0.004175351932644844,1
1773074092862960896,0.2215328067541122,1,-0.01699442602694035,1,-0.1194456964731216,1,-0.003672304330393672,1,-0.008647305890917778,1,0.004501207731664181,1
1773074092873257216,0.2485479116439819,1,0.01377867627888918,1,-0.1226079165935516,1,0.005278824828565121,1,-0.003352588508278131,1,0.004483774304389954,1
1773074092883905536,0.02566083520650864,1,0.04496020078659058,1,0.1216768324375153,1,0.003272664500400424,1,-0.003024172969162464,1,0.004891357850283384,1
1773074092894454272,-0.02318795397877693,1,0.01270879432559013,1,0.1015970632433891,1,-0.01158433314412832,1,-0.006332764402031898,1,0.005600905977189541,1
1773074092904902912,0.1270627081394196,1,0.01125329826027155,1,-0.1608123332262039,1,-0.009755947627127171,1,-0.006773669738322496,1,0.006882419344037771,1
1773074092915251200,0.1456688046455383,1,-0.05531089752912521,1,-0.151950940489769,1,0.003535905852913857,1,-0.0009900883305817842,1,0.005589774344116449,1
1773074092925510144,0.07523348927497864,1,0.08964213728904724,1,0.1611640155315399,1,0.0006936882855370641,1,0.003096781205385923,1,0.005407632794231176,1
1773074092935670528,-0.02361669391393661,1,0.1393753439188004,1,0.2894042134284973,1,-0.01555988006293774,1,0.003378798021003604,1,0.006422503851354122,1
1773074092945732608,0.06879841536283493,1,0.1162338629364967,1,0.1432639509439468,1,-0.01250647287815809,1,0.006442631594836712,1,0.006484608631581068,1
1773074092955698944,0.1370502114295959,1,0.04363100230693817,1,0.04725988954305649,1,0.003493683645501733,1,0.01119714975357056,1,0.006160431075841188,1
1773074092965569536,0.03854024037718773,1,0.07921857386827469,1,0.1976457685232162,1,0.01255204249173403,1,0.01018453575670719,1,0.007058654446154833,1
1773074092975344896,0.01794515550136566,1,0.06788033246994019,1,0.2253073006868362,1,0.0009436724940314889,1,0.00263246102258563,1,0.008122773841023445,1
1773074092985029120,0.1497652679681778,1,0.01567893475294113,1,-0.04095277935266495,1,-0.01004966627806425,1,-0.003820207901299,1,0.008808198384940624,1
1773074092994621952,0.1381887644529343,1,0.03000703081488609,1,-0.1613796949386597,1,-0.009753278456628323,1,-0.002260490320622921,1,0.007241128943860531,1
1773074093004121856,-0.07345542311668396,1,0.03559949621558189,1,0.08860571682453156,1,0.002085007261484861,1,-0.0007843423518352211,1,0.007413962855935097,1
1773074093013529856,-0.1396871656179428,1,0.1079965978860855,1,0.286112904548645,1,0.006451702676713467,1,-0.00587844243273139,1,0.009210150688886642,1
1773074093022846976,0.03572831302881241,1,0.02271630614995956,1,0.1892999410629272,1,0.007207096088677645,1,-0.009282276034355164,1,0.009685399010777473,1
1773074093033580032,0.1306692063808441,1,-0.07281005382537842,1,-0.03106334991753101,1,0.002018580446019769,1,-0.008019045926630497,1,0.006957953795790672,1
1773074093044212224,-0.08518995344638824,1,0.04519031196832657,1,-0.04162220656871796,1,-0.0004543026152532548,1,-0.002783876145258546,1,0.008037683553993702,1
1773074093054742272,-0.3616190850734711,1,0.09830164164304733,1,0.07082654535770416,1,0.004167655482888222,1,-0.005253881681710482,1,0.009833462536334991,1
1773074093065171200,-0.3090286552906036,1,-0.09692012518644333,1,0.01633216813206673,1,0.002897981554269791,1,-0.008597644045948982,1,0.008818727917969227,1
1773074093075500032,-0.04770553857088089,1,-0.06645676493644714,1,-0.1677243560552597,1,-0.004182286094874144,1,-0.010480678640306,1,0.008225388824939728,1
1773074093085730048,-0.08703449368476868,1,0.00505025452002883,1,-0.1275790333747864,1,-0.004665011540055275,1,-0.008537492714822292,1,0.009236302226781845,1
1773074093095873280,-0.2353266477584839,1,0.04631833732128143,1,0.06819440424442291,1,-0.005033292807638645,1,-0.005364496726542711,1,0.01005735527724028,1
1773074093105920512,-0.293449729681015,1,-0.02742438763380051,1,0.06374873220920563,1,-0.008965620771050453,1,-0.00300881639122963,1,0.009712912142276764,1
1773074093115871744,-0.266688346862793,1,-0.06001704931259155,1,-0.0009682313539087772,1,-0.0079630296677351,1,-0.001388764358125627,1,0.008668940514326096,1
1773074093125728512,-0.2490196973085403,1,0.05210167914628983,1,0.04414844140410423,1,-0.002275034319609404,1,-0.0006945529603399336,1,0.009899203665554523,1
1773074093135490560,-0.2147448509931564,1,-0.04053175449371338,1,0.07526745647192001,1,-0.002274774946272373,1,-0.001351388753391802,1,0.01061520632356405,1
1773074093145158656,-0.1140568479895592,1,-0.0806242972612381,1,-0.03521555662155151,1,-0.01520723011344671,1,0.002261352958157659,1,0.008696667850017548,1
1773074093154736384,-0.1582071185112,1,0.04762312769889832,1,-0.09113413095474243,1,-0.01781689375638962,1,0.006780108902603388,1,0.008376994170248508,1
1773074093164224256,-0.2919939160346985,1,0.1799955517053604,1,0.07747987657785416,1,-0.005185096058994532,1,0.009656338021159172,1,0.009070277214050293,1
1773074093173622016,-0.2577213943004608,1,0.03318817168474197,1,0.1992980241775513,1,0.0002709740656428039,1,0.008333569392561913,1,0.008405989035964012,1
1773074093183078656,-0.1401468813419342,1,0.01942617818713188,1,0.1088421419262886,1,-0.007593285292387009,1,0.005591933615505695,1,0.007470637559890747,1
1773074093193778944,-0.1934409141540527,1,0.05455053597688675,1,0.01611880399286747,1,-0.007760338950902224,1,0.004862349014729261,1,0.006959627382457256,1
1773074093204376320,-0.247347965836525,1,0.1665567010641098,1,0.02523167617619038,1,0.003131698817014694,1,0.002460463205352426,1,0.007040026597678661,1
1773074093214875136,-0.163985013961792,1,0.04580115899443626,1,0.002547821961343288,1,0.00431055249646306,1,0.0008126642205752432,1,0.006594990845769644,1
1773074093225273856,-0.1476699709892273,1,0.04318728670477867,1,-0.04775279015302658,1,-0.00500252703204751,1,0.0002192198007833213,1,0.004624384921044111,1
1773074093235573504,-0.2163853794336319,1,0.1126317158341408,1,-0.03795523941516876,1,-0.003571146167814732,1,0.0007627362501807511,1,0.005198171827942133,1
1773074093245773824,-0.2317846119403839,1,0.1877161711454391,1,0.06317238509654999,1,0.004978224635124207,1,-0.002022527623921633,1,0.005947664845734835,1
1773074093255875840,-0.2609515786170959,1,-0.05512093752622604,1,0.08090265095233917,1,0.004975054878741503,1,-0.001560998614877462,1,0.003658885136246681,1
1773074093265881600,-0.2225888818502426,1,0.1066506057977676,1,0.04645398259162903,1,0.001277722301892936,1,-0.003013139590620995,1,0.003317906986922026,1
1773074093275792128,-0.2130946964025497,1,0.1043391823768616,1,-0.00324957026168704,1,0.006192733068019152,1,-0.003460463136434555,1,0.005231035873293877,1
1773074093285609984,-0.1738917678594589,1,-0.01148299220949411,1,-0.01222814992070198,1,0.006198205053806305,1,-0.003256336553022265,1,0.004152032546699047,1
1773074093295333120,-0.2239828258752823,1,-0.01581521704792976,1,0.004265855997800827,1,0.0001552419562358409,1,-0.003103769617155194,1,0.00468127429485321,1
1773074093304979456,-0.2359281331300735,1,0.06078025698661804,1,-0.009844964370131493,1,0.001209211070090532,1,-0.005337896291166544,1,0.00626037223264575,1
1773074093314540544,-0.2218203246593475,1,0.003964997828006744,1,-0.02076514437794685,1,0.002373723546043038,1,-0.006740979850292206,1,0.006589411292225122,1
1773074093324010240,-0.2242802679538727,1,0.0004912628792226315,1,0.02319885790348053,1,0.0008262898772954941,1,-0.008526947349309921,1,0.00662218127399683,1
1773074093333389568,-0.2135796844959259,1,-0.0009114313870668411,1,0.008187656290829182,1,0.001626497716642916,1,-0.008123138919472694,1,0.007761166896671057,1
1773074093343270656,-0.1904235929250717,1,-0.05864565819501877,1,-0.01981698349118233,1,0.005096503999084234,1,-0.008034626021981239,1,0.007819849066436291,1
1773074093353940224,-0.1811428517103195,1,-0.05186017975211143,1,0.02312011644244194,1,0.009063549339771271,1,-0.006630915217101574,1,0.00797196663916111,1
1773074093364510208,-0.1786039024591446,1,-0.06266152113676071,1,0.1036911681294441,1,0.004820710979402065,1,-0.005701972171664238,1,0.007519809994846582,1
1773074093374978304,-0.1998987793922424,1,-0.006702818442136049,1,0.107988603413105,1,-0.0004177585069555789,1,-0.004583581350743771,1,0.008216471411287785,1
1773074093385346304,-0.1863173395395279,1,0.003260893281549215,1,0.08375295251607895,1,0.0006134792929515243,1,-0.0005139187560416758,1,0.008773758076131344,1
1773074093395614976,-0.1701285839080811,1,-0.00564512936398387,1,0.09794818609952927,1,0.008249495178461075,1,0.001936753280460835,1,0.008723987266421318,1
1773074093405797120,-0.1568390876054764,1,0.01606506109237671,1,0.1374339461326599,1,0.01055866479873657,1,0.003422121051698923,1,0.009923037141561508,1
1773074093415884032,-0.2196059376001358,1,-0.02437023632228374,1,0.09507463127374649,1,0.004647059366106987,1,0.001551739289425313,1,0.01052876934409142,1
1773074093425873664,-0.2705941498279572,1,-0.01104995515197515,1,0.000453457236289978,1,-0.001811532652936876,1,-0.0007888023974373937,1,0.008589271456003189,1
1773074093435766784,-0.234741598367691,1,0.05007641389966011,1,-0.06544321030378342,1,-0.002507718745619059,1,-0.001258511678315699,1,0.00790801364928484,1
1773074093445565440,-0.1775174587965012,1,0.02726758643984795,1,-0.03646634519100189,1,-0.001149655436165631,1,-0.001063624047674239,1,0.008916116319596767,1
1773074093455269376,-0.1386231184005737,1,0.02080785296857357,1,0.06041374802589417,1,-0.003626591293141246,1,0.0001976178609766066,1,0.007569278590381145,1
1773074093464881408,-0.1498162001371384,1,0.01650921255350113,1,0.1126343309879303,1,-0.004781088791787624,1,0.001940793823450804,1,0.006215857341885567,1
1773074093474402304,-0.1418119966983795,1,0.06079490855336189,1,0.1054486632347107,1,-0.002506289631128311,1,0.001499719335697591,1,0.006132669281214476,1
1773074093483831296,-0.1264564692974091,1,0.02520605362951756,1,0.0501260906457901,1,0.0001859686453826725,1,0.004299341235309839,1,0.005885171703994274,1
1773074093493168896,-0.1463479846715927,1,-0.02811293862760067,1,0.03150427341461182,1,-0.003786172717809677,1,0.00511182053014636,1,0.003923551179468632,1
1773074093503465216,-0.1943390220403671,1,0.06511993706226349,1,0.0205213874578476,1,-0.007673574145883322,1,0.006667814217507839,1,0.003542587161064148,1
1773074093514111744,-0.1588720977306366,1,0.03620722144842148,1,-0.00822155550122261,1,-0.005004474893212318,1,0.006185370497405529,1,0.004371338058263063,1
1773074093524658432,-0.119587704539299,1,-0.03893768042325974,1,0.004683820530772209,1,-0.006510087754577398,1,0.005835441872477531,1,0.003409730037674308,1
1773074093535109632,-0.1280169934034348,1,0.05287764966487885,1,0.02240077964961529,1,-0.008951718918979168,1,0.004483422264456749,1,0.00322043988853693,1
1773074093545462016,-0.1372314095497131,1,0.06148982420563698,1,0.01212409324944019,1,-0.005772314500063658,1,0.001758642960339785,1,0.004144304897636175,1
1773074093555715840,-0.1720809638500214,1,0.003899314207956195,1,-0.04345118999481201,1,-0.004819526337087154,1,0.001357713132165372,1,0.00370389292947948,1
1773074093565873152,-0.1850980073213577,1,0.006174489390105009,1,-0.06359940022230148,1,0.0001901332288980484,1,0.0004056569596286863,1,0.003195605473592877,1
1773074093575934464,-0.1044611781835556,1,0.01074540335685015,1,-0.07439873367547989,1,0.006164215970784426,1,-0.001290358835831285,1,0.003642432857304811,1
1773074093585899520,-0.07755106687545776,1,-0.1003617122769356,1,-0.07213432341814041,1,0.00133553275372833,1,0.0001302903256146237,1,0.003297679824754596,1
1773074093595793920,-0.1485166400671005,1,0.004948679357767105,1,-0.03152665868401527,1,-0.005783265456557274,1,0.001927018165588379,1,0.002781218616291881,1
1773074093605600256,-0.1233956217765808,1,0.02484539896249771,1,-0.01612582430243492,1,-0.003634685650467873,1,0.003765242639929056,1,0.00321493181400001,1
1773074093615313920,-0.05120446905493736,1,-0.06766067445278168,1,-0.008348369970917702,1,-0.00302806799300015,1,0.00693198386579752,1,0.00434856628999114,1
1773074093624935936,-0.08939968794584274,1,-0.04993985593318939,1,0.02601055800914764,1,-0.004079109523445368,1,0.007448000367730856,1,0.00439020898193121,1
1773074093634467584,-0.1196529492735863,1,-0.009623733349144459,1,0.07507283240556717,1,-0.003209295682609081,1,0.00573603855445981,1,0.00469369487836957,1
1773074093643908608,-0.06945596635341644,1,-0.0401495099067688,1,0.00504725519567728,1,-0.006282194517552853,1,0.002704684622585773,1,0.005310007371008396,1
1773074093653262080,-0.02668841555714607,1,-0.04843953251838684,1,-0.08973171561956406,1,-0.008672645315527916,1,-0.0006713119801133871,1,0.005409455858170986,1
1773074093663990272,-0.02318004705011845,1,0.01275203749537468,1,-0.0942266657948494,1,-0.00785533431917429,1,-0.001140591106377542,1,0.005555481184273958,1
1773074093674617088,-0.03151674196124077,1,-0.0456814244389534,1,-0.05191218852996826,1,-0.009191205725073814,1,-0.0009172284626401961,1,0.005783882457762957,1
1773074093685142784,-0.04907343164086342,1,0.02886828221380711,1,0.007500892039388418,1,-0.01261806301772594,1,-0.0001877357863122597,1,0.005291550420224667,1
1773074093695571712,-0.01929129846394062,1,0.006719364784657955,1,0.06528381258249283,1,-0.008315279148519039,1,0.002459750045090914,1,0.005497523583471775,1
1773074093705902080,0.05033206567168236,1,0.0423690527677536,1,0.08754303306341171,1,-0.004834044724702835,1,0.005296864546835423,1,0.005929437000304461,1
1773074093716131840,-0.008467619307339191,1,0.06727145612239838,1,0.1299335211515427,1,-0.005518140736967325,1,0.009268391877412796,1,0.005912753287702799,1
1773074093726265856,-0.01027312502264977,1,0.145518958568573,1,0.1340347230434418,1,-0.002984027145430446,1,0.01074877195060253,1,0.005407786462455988,1
1773074093736302080,0.08494715392589569,1,0.1134069487452507,1,0.02152012474834919,1,-0.004969346337020397,1,0.01351207867264748,1,0.005606253631412983,1
1773074093746241536,0.1211106330156326,1,0.153375044465065,1,-0.01365892589092255,1,-0.00493053812533617,1,0.01467095222324133,1,0.005747278686612844,1
1773074093756085760,0.09222560375928879,1,0.1741170287132263,1,0.05807074159383774,1,-0.00580291636288166,1,0.01517780032008886,1,0.004721255972981453,1
1773074093765837824,0.078621506690979,1,0.2559343278408051,1,0.131236732006073,1,-0.005728240124881268,1,0.01413115859031677,1,0.005612771958112717,1
1773074093775495424,0.09997431933879852,1,0.1706187576055527,1,0.144201323390007,1,-0.004042461048811674,1,0.009120920673012733,1,0.004824288189411163,1
1773074093785060096,0.1881110072135925,1,0.2177724391222,1,0.09652433544397354,1,0.001334433094598353,1,0.008260875009000301,1,0.004311570432037115,1
1773074093794532352,0.2277446985244751,1,0.1716160327196121,1,0.09066668897867203,1,0.00958547554910183,1,0.006404855288565159,1,0.003511094255372882,1
1773074093803913728,0.2134816646575928,1,0.1760439872741699,1,0.1079588681459427,1,0.01464071031659842,1,0.00241612084209919,1,0.002245898358523846,1
1773074093813355264,0.2369996905326843,1,0.1333962082862854,1,0.1038378700613976,1,0.01960310153663158,1,-0.001504349987953901,1,0.001424802816472948,1
1773074093824052992,0.1833635419607162,1,0.03820229694247246,1,0.1223107352852821,1,0.02253546379506588,1,-0.006431460846215487,1,0.0009403300355188549,1
1773074093834647808,0.08085835725069046,1,0.04203135147690773,1,0.1306370794773102,1,0.02441574074327946,1,-0.009232275187969208,1,0.0005146616604179144,1
1773074093845145088,0.1645637005567551,1,0.03699333220720291,1,0.095676489174366,1,0.02432814985513687,1,-0.01006151083856821,1,0.001050983555614948,1
1773074093855542016,0.2737038731575012,1,-0.06953135132789612,1,0.0262873899191618,1,0.01280306559056044,1,-0.002778444439172745,1,0.002129544038325548,1
1773074093865840384,0.2488938122987747,1,-0.05519593879580498,1,0.02317962050437927,1,0.004493732936680317,1,0.004658937454223633,1,0.003323651617392898,1
1773074093876041728,0.2610560655593872,1,0.02645888924598694,1,0.07179663330316544,1,0.006630443967878819,1,0.01203106623142958,1,0.006045411340892315,1
1773074093886144256,0.267785370349884,1,-0.140298455953598,1,0.09882012009620667,1,0.005306034348905087,1,0.01286953035742044,1,0.006019610911607742,1
1773074093896149760,0.2388482987880707,1,-0.003168065100908279,1,0.1207449585199356,1,0.004755144473165274,1,0.009993979707360268,1,0.006172715686261654,1
1773074093906061312,0.2751950025558472,1,0.0006058085709810257,1,0.1123465746641159,1,0.01000662613660097,1,0.006908194161951542,1,0.007499649655073881,1
1773074093915879936,0.3306276202201843,1,-0.1119702756404877,1,0.01539625693112612,1,0.008188405074179173,1,0.002841328736394644,1,0.005843485239893198,1
1773074093925625600,0.3554489314556122,1,-0.01885713264346123,1,-0.02574198693037033,1,0.01113009266555309,1,0.002656890777871013,1,0.006308603566139936,1
1773074093935278336,0.316419243812561,1,-0.1070239171385765,1,0.008201688528060913,1,0.01730239763855934,1,0.001278202631510794,1,0.007626877166330814,1
1773074093944838912,0.2555014491081238,1,-0.09004908800125122,1,0.04840488359332085,1,0.01399810798466206,1,0.0007132690516300499,1,0.006809191312640905,1
1773074093954309120,0.2568513751029968,1,-0.06315811723470688,1,0.05367470532655716,1,0.004330545663833618,1,0.002300436142832041,1,0.006471600383520126,1
1773074093963688704,0.3118867576122284,1,-0.109070248901844,1,-0.03355997428297997,1,-0.006855391431599855,1,0.004995013121515512,1,0.006682367064058781,1
1773074093973568768,0.3316999673843384,1,-0.04254689812660217,1,-0.07922407239675522,1,-0.01115036569535732,1,0.01178741734474897,1,0.007141757756471634,1
1773074093984238080,0.3353707194328308,1,-0.05548080801963806,1,-0.007912262342870235,1,-0.007099066395312548,1,0.01529062446206808,1,0.007387944962829351,1
1773074093994807296,0.4028904139995575,1,-0.1620044708251953,1,0.06282803416252136,1,-0.01308737322688103,1,0.0169505886733532,1,0.00630100117996335,1
1773074094005278976,0.4385975301265717,1,-0.1044422686100006,1,0.05039671063423157,1,-0.02472975477576256,1,0.01486611366271973,1,0.004617442842572927,1
1773074094015656448,0.4093488156795502,1,0.0150984600186348,1,0.04518935829401016,1,-0.02309667319059372,1,0.01264103688299656,1,0.004667381290346384,1
1773074094025934592,0.3659981191158295,1,0.01591885648667812,1,0.06653503328561783,1,-0.01686366647481918,1,0.0128413112834096,1,0.004173537250608206,1
1773074094036115200,0.3827371299266815,1,-0.009446910582482815,1,0.06465480476617813,1,-0.01134408544749022,1,0.01036312617361546,1,0.002572148106992245,1
1773074094046202624,0.4463505744934082,1,0.003804648760706186,1,0.07816482335329056,1,-0.009184706956148148,1,0.009690086357295513,1,0.002575004007667303,1
1773074094056193280,0.423883318901062,1,-0.01390925515443087,1,0.0841386616230011,1,-0.007937368005514145,1,0.007182883098721504,1,0.002733066212385893,1
1773074094066088448,0.437247633934021,1,0.08008217066526413,1,0.08193770796060562,1,-0.006606183014810085,1,0.007833699695765972,1,0.002641454804688692,1
1773074094075894272,0.4515630602836609,1,0.03447123616933823,1,0.06039721518754959,1,-0.01330127287656069,1,0.009625873528420925,1,0.002891539828851819,1
1773074094085606656,0.4147325754165649,1,0.1379128098487854,1,0.03039399720728397,1,-0.01395684294402599,1,0.01079470105469227,1,0.003871396882459521,1
1773074094095252224,0.4833375215530396,1,0.1398831605911255,1,0.02698994055390358,1,-0.0067981225438416,1,0.01430861838161945,1,0.005006374325603247,1
1773074094104808960,0.5509268045425415,1,0.05845538526773453,1,0.06944004446268082,1,-0.004863843321800232,1,0.01444690115749836,1,0.004577556159347296,1
1773074094114273536,0.4644399285316467,1,0.02702596411108971,1,0.1128485575318336,1,-0.007687877863645554,1,0.01273636613041162,1,0.004202370066195726,1
1773074094123648512,0.4436389803886414,1,0.1353502869606018,1,0.1091354414820671,1,-0.003500952618196607,1,0.007413546554744244,1,0.003874068148434162,1
1773074094133950464,0.5026166439056396,1,0.1113353222608566,1,0.03226123005151749,1,0.006287868600338697,1,0.001806894899345934,1,0.003264033468440175,1
1773074094144588800,0.5734414458274841,1,-0.01902161538600922,1,0.0362231619656086,1,0.006001933477818966,1,0.002209153957664967,1,0.002613169606775045,1
1773074094155123712,0.4326855540275574,1,0.1030397340655327,1,0.03077864833176136,1,0.0001875737507361919,1,0.0007993760518729687,1,0.002668369561433792,1
1773074094165555200,0.4320117831230164,1,0.1482249200344086,1,0.01323054730892181,1,0.009180663153529167,1,0.001065831864252687,1,0.004133152309805155,1
1773074094175896576,0.5376929640769958,1,0.02233798801898956,1,-0.01306242402642965,1,0.01342559140175581,1,0.00230066105723381,1,0.004532772582024336,1
1773074094186137600,0.4964381754398346,1,-0.06619177758693695,1,-0.01371623203158379,1,0.01389238517731428,1,0.002597410697489977,1,0.004078870639204979,1
1773074094196282368,0.4695565402507782,1,0.04144460707902908,1,0.04816430807113647,1,0.006677601020783186,1,0.00343302683904767,1,0.003938328474760056,1
1773074094206330112,0.3651652038097382,1,0.03537562489509583,1,0.02038715407252312,1,-0.00199910206720233,1,0.004499283619225025,1,0.00428703473880887,1
1773074094216281088,0.2784773707389832,1,0.1011184677481651,1,0.001788191497325897,1,-0.0002903438289649785,1,0.007158458698540926,1,0.005302698817104101,1
1773074094226136320,0.3025926947593689,1,0.04313720017671585,1,-0.005057950504124165,1,0.008216491900384426,1,0.006845097057521343,1,0.005609958898276091,1
1773074094235897344,0.4048588275909424,1,-0.02722022496163845,1,-0.02555225789546967,1,0.01064185332506895,1,0.004935571923851967,1,0.005418240092694759,1
1773074094245564160,0.3804550170898438,1,0.06020648032426834,1,0.03674852102994919,1,0.003489641007035971,1,0.001881343545392156,1,0.004957820754498243,1
1773074094255136512,0.1754437983036041,1,0.05225778743624687,1,0.1091640964150429,1,0.0005676180589944124,1,-0.001652104780077934,1,0.003944643307477236,1
1773074094264614400,0.1133758276700974,1,0.1190746575593948,1,0.07172106206417084,1,0.003806777764111757,1,-0.003817626740783453,1,0.003651375416666269,1
1773074094274000640,0.135559618473053,1,0.07267248630523682,1,0.005044660530984402,1,0.01313517987728119,1,-0.006791709456592798,1,0.00400838628411293,1
1773074094283293952,0.07285352051258087,1,0.007740496657788754,1,0.02136762998998165,1,0.01590098068118095,1,-0.00998059194535017,1,0.003245402360334992,1
1773074094294020096,-0.009907609783113003,1,0.03564690053462982,1,0.0224273819476366,1,0.007205693051218987,1,-0.01481983438134193,1,0.004194740206003189,1
1773074094304644608,-0.130416601896286,1,-0.01504219882190228,1,-0.05965257436037064,1,-0.001067986479029059,1,-0.02201342955231667,1,0.004355828743427992,1
1773074094315164928,-0.2151285111904144,1,-0.05066552013158798,1,-0.1367577761411667,1,-0.0007055994356051087,1,-0.02550000883638859,1,0.003615689231082797,1
1773074094325581568,-0.218428298830986,1,-0.02390284091234207,1,-0.1481143087148666,1,0.003390667028725147,1,-0.02884315699338913,1,0.004434827249497175,1
1773074094335898112,-0.2999324798583984,1,-0.05143307149410248,1,-0.1185473576188087,1,0.002330912044271827,1,-0.03232642635703087,1,0.005798456259071827,1
1773074094346120704,-0.3920416533946991,1,-0.09888006746768951,1,-0.1192944273352623,1,-0.004305113106966019,1,-0.0341591089963913,1,0.006595136132091284,1
1773074094356245504,-0.44922935962677,1,-0.1462976634502411,1,-0.1788554787635803,1,-0.006518173962831497,1,-0.03549016267061234,1,0.007192117162048817,1
1773074094366271232,-0.4793469309806824,1,-0.1522853374481201,1,-0.2001270651817322,1,-0.003040359355509281,1,-0.03633970022201538,1,0.007071642205119133,1
1773074094376199936,-0.5380241870880127,1,-0.1112599670886993,1,-0.1142458245158195,1,0.000355283118551597,1,-0.03406617417931557,1,0.00832804013043642,1
1773074094386031872,-0.5952953696250916,1,-0.1264443546533585,1,-0.0641716867685318,1,-0.008626806549727917,1,-0.03335873410105705,1,0.009353877045214176,1
1773074094395767040,-0.675931453704834,1,-0.1304868906736374,1,-0.1258953362703323,1,-0.01660108007490635,1,-0.03138186782598495,1,0.00992974266409874,1
1773074094405408512,-0.6939139366149902,1,-0.1127338707447052,1,-0.1769174933433533,1,-0.01577183045446873,1,-0.0257177259773016,1,0.01054822839796543,1
1773074094414955264,-0.646198570728302,1,-0.04442953318357468,1,-0.1778550893068314,1,-0.01526859775185585,1,-0.0220005214214325,1,0.01197125017642975,1
1773074094424409344,-0.6641018390655518,1,-0.01432981807738543,1,-0.1676252782344818,1,-0.01925433427095413,1,-0.01937353238463402,1,0.01303253881633282,1
1773074094433770496,-0.7071164846420288,1,-0.08136065304279327,1,-0.112063392996788,1,-0.02178036794066429,1,-0.01591619104146957,1,0.01201225537806749,1
1773074094443192576,-0.5781208276748657,1,0.007500201463699341,1,-0.06261186301708221,1,-0.02630409970879555,1,-0.01356721296906471,1,0.01214280724525452,1
1773074094453890560,-0.5504685640335083,1,0.1670904904603958,1,-0.06978704780340195,1,-0.02860282175242901,1,-0.01025350578129292,1,0.01399256475269794,1
1773074094464486912,-0.6899013519287109,1,0.08809670805931091,1,-0.01579302176833153,1,-0.02022336237132549,1,-0.004198196809738874,1,0.01288218889385462,1
1773074094474985728,-0.6645785570144653,1,0.1610509902238846,1,0.05807733908295631,1,-0.008224965073168278,1,-0.002159905387088656,1,0.01148744113743305,1
1773074094485384192,-0.5722597241401672,1,0.1155925989151001,1,0.02968421764671803,1,-0.007608262356370687,1,-0.003640586044639349,1,0.01151799317449331,1
1773074094495682048,-0.6091786026954651,1,0.1832743585109711,1,-0.004736613947898149,1,-0.01325880642980337,1,-0.004977921489626169,1,0.01074185408651829,1
1773074094505881344,-0.642817497253418,1,0.2204426229000092,1,-0.02711888775229454,1,-0.01229041814804077,1,-0.005505497567355633,1,0.01046720333397388,1
1773074094515983872,-0.619637668132782,1,0.1276004910469055,1,-0.06317374855279922,1,-0.00830316636711359,1,-0.005784811452031136,1,0.009137672372162342,1
1773074094526002688,-0.6414675116539001,1,0.1783928573131561,1,-0.008664935827255249,1,-0.003526287153363228,1,-0.0044669802300632,1,0.007924801670014858,1
1773074094535933440,-0.6676018834114075,1,0.1738786548376083,1,0.07113593071699142,1,0.003484014887362719,1,-0.007244626060128212,1,0.008181310258805752,1
1773074094545769984,-0.6080339550971985,1,0.07719753682613373,1,0.06333480030298233,1,-0.001841785619035363,1,-0.008266115561127663,1,0.007022076286375523,1
1773074094555512832,-0.5501183867454529,1,0.07871552556753159,1,-0.01376804243773222,1,-0.005946725606918335,1,-0.006094870157539845,1,0.005110846366733313,1
1773074094565163520,-0.5407853126525879,1,0.1641885638237,1,-0.02983297221362591,1,-0.0007037933100946248,1,-0.000701740849763155,1,0.005778866820037365,1
1773074094574721280,-0.6445659995079041,1,0.1383082121610641,1,0.09855575859546661,1,0.007086719386279583,1,0.002482048468664289,1,0.006521909963339567,1
1773074094584188672,-0.6836539506912231,1,0.04825681075453758,1,0.2153602242469788,1,0.007090543396770954,1,0.003954255487769842,1,0.006516531109809875,1
1773074094593568768,-0.6153882741928101,1,0.07775530219078064,1,0.1746384352445602,1,-0.002513840096071362,1,0.004365318920463324,1,0.006933075841516256,1
1773074094603448064,-0.6174386739730835,1,0.08100117743015289,1,0.07678361237049103,1,-0.004998946096748114,1,0.006016257684677839,1,0.007403810508549213,1
1773074094614114048,-0.6629334092140198,1,0.04798773676156998,1,0.06209783256053925,1,-0.0008689252426847816,1,0.009220368228852749,1,0.008152182213962078,1
1773074094624680448,-0.6357139348983765,1,0.08843795955181122,1,0.161642462015152,1,0.001249749679118395,1,0.008930734358727932,1,0.008621438406407833,1
1773074094635145216,-0.6059063673019409,1,0.08817558735609055,1,0.2048832029104233,1,-0.000891071860678494,1,0.007029262837022543,1,0.008372059091925621,1
1773074094645508608,-0.5240498781204224,1,0.1435453444719315,1,0.1748615652322769,1,-0.0005992857040837407,1,0.004233349580317736,1,0.009291005320847034,1
1773074094655773696,-0.4905622601509094,1,0.1084438487887383,1,0.1443036645650864,1,0.003914826549589634,1,0.001461861887946725,1,0.01035646442323923,1
1773074094665939456,-0.5714520812034607,1,0.05917339771986008,1,0.1478212773799896,1,0.01070467196404934,1,0.000695238821208477,1,0.01005322299897671,1
1773074094676027648,-0.571912407875061,1,0.1048631444573402,1,0.1926964223384857,1,0.01711408980190754,1,-0.002315528923645616,1,0.009669802151620388,1
1773074094686019328,-0.5000912547111511,1,0.05846939608454704,1,0.1743935942649841,1,0.01647344417870045,1,-0.006115093361586332,1,0.009975085966289043,1
1773074094695916544,-0.4508154392242432,1,0.001608847174793482,1,0.1058512181043625,1,0.01154131256043911,1,-0.006841668393462896,1,0.009497334249317646,1
1773074094705719040,-0.4255138337612152,1,0.04064594954252243,1,0.08146058022975922,1,0.009429650381207466,1,-0.004747838247567415,1,0.008950538001954556,1
1773074094715427584,-0.4208575487136841,1,0.07953031361103058,1,0.1248508095741272,1,0.01019276212900877,1,-0.00036307965638116,1,0.00922760833054781,1
1773074094725042432,-0.3637381494045258,1,0.03646861761808395,1,0.1773576885461807,1,0.008645340800285339,1,0.00202616723254323,1,0.008641643449664116,1
1773074094734566656,-0.3181973695755005,1,-0.007109693251550198,1,0.1800922155380249,1,0.006217890419065952,1,0.005522376392036676,1,0.008113287389278412,1
1773074094744000000,-0.2247796803712845,1,0.07150734215974808,1,0.1401033401489258,1,0.0049390634521842,1,0.008591197431087494,1,0.007997683249413967,1
1773074094753342208,-0.187861368060112,1,0.05235572531819344,1,0.09607561677694321,1,0.005339754279702902,1,0.01062671560794115,1,0.008330796845257282,1
1773074094763635712,-0.2550990283489227,1,0.0141421165317297,1,0.09483925253152847,1,0.002753911074250937,1,0.01167039107531309,1,0.008074833080172539,1
1773074094774276352,-0.3028028011322021,1,0.005409723613411188,1,0.07672816514968872,1,0.0007955285836942494,1,0.01042046397924423,1,0.007262484170496464,1
1773074094784815360,-0.2591824531555176,1,0.05214200541377068,1,-0.0124280909076333,1,0.0006692156312055886,1,0.007885540835559368,1,0.006956733763217926,1
1773074094795252736,-0.2200731188058853,1,0.0341053381562233,1,-0.03173686563968658,1,0.001218853401951492,1,0.005943826399743557,1,0.007390989456325769,1
1773074094805590784,-0.1675655841827393,1,-0.04103557020425797,1,-0.009130558930337429,1,3.69487825082615e-05,1,0.005195182282477617,1,0.006374303717166185,1
1773074094815837696,-0.1369432359933853,1,0.01980384439229965,1,-0.004759440198540688,1,-0.003422359004616737,1,0.008130753412842751,1,0.006045125890523195,1
1773074094825988352,-0.1913044601678848,1,0.121535025537014,1,0.04300634935498238,1,-0.000134813686599955,1,0.009567956440150738,1,0.007365752477198839,1
1773074094836042240,-0.2072698175907135,1,0.0266901683062315,1,0.06966390460729599,1,0.003323335899040103,1,0.01079536322504282,1,0.007585035637021065,1
1773074094846000384,-0.1946321874856949,1,0.0004119984805583954,1,0.02002175152301788,1,0.0007505120593123138,1,0.01196622662246227,1,0.007406942080706358,1
1773074094855863808,-0.228957325220108,1,0.01250556390732527,1,-0.04491784423589706,1,0.002638597739860415,1,0.01117156632244587,1,0.008195677772164345,1
1773074094865632768,-0.2973545789718628,1,-0.01188365463167429,1,-0.05361870303750038,1,0.0005010072491131723,1,0.01094552874565125,1,0.008514995686709881,1
1773074094875309568,-0.3291381895542145,1,0.01989679597318172,1,-0.04695362597703934,1,-0.003762561827898026,1,0.007601312361657619,1,0.00840764120221138,1
1773074094884895488,-0.3119716346263885,1,-0.03923668339848518,1,-0.1008771508932114,1,-0.006991682108491659,1,0.00671867374330759,1,0.008630285039544106,1
1773074094894389248,-0.2956929802894592,1,0.01246446836739779,1,-0.131587490439415,1,-0.004563085734844208,1,0.005353402346372604,1,0.009655998088419437,1
1773074094903791104,-0.2850360870361328,1,-0.02422041073441505,1,-0.07422430068254471,1,0.001237624208442867,1,0.003521275473758578,1,0.01008453872054815,1
1773074094913102336,-0.2769958972930908,1,-0.0799267441034317,1,-0.04680248722434044,1,-0.00327601283788681,1,0.002676658798009157,1,0.009597454220056534,1
1773074094923830016,-0.3685047328472137,1,0.01190976053476334,1,-0.09080272167921066,1,-0.005488493014127016,1,0.001147228060290217,1,0.009497223421931267,1
1773074094934456320,-0.4445565342903137,1,0.06868922710418701,1,-0.1023661196231842,1,-0.001740271225571632,1,0.002058974467217922,1,0.01015224121510983,1
1773074094944981248,-0.4306708872318268,1,0.04346576705574989,1,-0.1462883502244949,1,0.0008872561156749725,1,0.001378877088427544,1,0.01085362769663334,1
1773074094955408640,-0.344324916601181,1,-0.06339531391859055,1,-0.1968023180961609,1,0.002798871835693717,1,0.001525085419416428,1,0.01132030133157969,1
1773074094965739520,-0.4031890630722046,1,-0.06170405074954033,1,-0.1922317296266556,1,-0.0002358155907131732,1,0.0006004957249388099,1,0.01093421410769224,1
1773074094975971584,-0.5313763618469238,1,0.06867299973964691,1,-0.1155718713998795,1,-0.001395108993165195,1,-0.00326926913112402,1,0.0111187556758523,1
1773074094986105344,-0.511017382144928,1,0.07599665224552155,1,-0.1098426803946495,1,-0.00201709195971489,1,-0.005209356546401978,1,0.0108734518289566,1
1773074094996143104,-0.352500706911087,1,-0.05227968096733093,1,-0.216645359992981,1,-0.002278293017297983,1,-0.004833665210753679,1,0.009768406860530376,1
1773074095006084352,-0.320324718952179,1,-0.0007109232246875763,1,-0.1890518516302109,1,-0.001369588077068329,1,-0.001797312055714428,1,0.009173482656478882,1
1773074095015930368,-0.4763576090335846,1,0.03793276473879814,1,-0.01254184730350971,1,0.001010303152725101,1,-0.0002171879750676453,1,0.009670439176261425,1
1773074095025684992,-0.5121220350265503,1,-0.06173880398273468,1,0.06840912252664566,1,-0.004176751244813204,1,-0.003519905265420675,1,0.00783915352076292,1
1773074095035345664,-0.4226701855659485,1,-0.0005214698612689972,1,-0.04841834679245949,1,-0.009435457177460194,1,-0.004689018707722425,1,0.006746581755578518,1
1773074095044913408,-0.4298549592494965,1,-0.04026926681399345,1,-0.09362225234508514,1,-0.004031914751976728,1,-0.00324300373904407,1,0.007433285471051931,1
1773074095054388480,-0.4447687268257141,1,0.04906786233186722,1,0.006764008663594723,1,-0.002712305635213852,1,-0.00220686593092978,1,0.007920448668301105,1
1773074095063772160,-0.3780222833156586,1,-0.0364801436662674,1,0.03557072952389717,1,-0.006524015683680773,1,-0.0008108593756332994,1,0.007114322856068611,1
1773074095073215488,-0.2875749468803406,1,-0.06419292092323303,1,0.0184357538819313,1,-0.01147155091166496,1,0.0006583310314454138,1,0.006497710011899471,1
1773074095083912192,-0.3412414491176605,1,0.06246978417038918,1,0.04956350475549698,1,-0.008648460730910301,1,0.004630653187632561,1,0.007476467173546553,1
1773074095094506496,-0.3482049405574799,1,0.1047316193580627,1,0.1387993842363358,1,-0.0003670687437988818,1,0.005491300951689482,1,0.007555115502327681,1
1773074095105004544,-0.2343481183052063,1,0.03146590664982796,1,0.1363453716039658,1,-0.002693033311516047,1,0.006434280890971422,1,0.007391692139208317,1
1773074095115402240,-0.1523132771253586,1,0.04981894046068192,1,0.08221237361431122,1,-0.005132562946528196,1,0.008084307424724102,1,0.008086753077805042,1
1773074095125699328,-0.2196083962917328,1,0.06139826402068138,1,0.07746973633766174,1,-0.001937888679094613,1,0.009815274737775326,1,0.00774286687374115,1
1773074095135897600,-0.2324090749025345,1,0.1535005122423172,1,0.1644316911697388,1,0.0009935097768902779,1,0.008797943592071533,1,0.007506431080400944,1
1773074095145999616,-0.1714092940092087,1,0.1049569994211197,1,0.1499530225992203,1,-0.004860940389335155,1,0.007673626765608788,1,0.008151000365614891,1
1773074095156004608,-0.1313240081071854,1,0.07122957706451416,1,0.06911411136388779,1,-0.002750610001385212,1,0.006558589171618223,1,0.008381465449929237,1
1773074095165918464,-0.09603449702262878,1,0.02530849166214466,1,0.07461537420749664,1,0.001247346634045243,1,0.008579934015870094,1,0.007280042394995689,1
1773074095175753216,-0.07611329853534698,1,0.0820833221077919,1,0.1571568548679352,1,0.001343044568784535,1,0.006221092771738768,1,0.007466935086995363,1
1773074095185494784,-0.05561354011297226,1,0.08640344440937042,1,0.1964148581027985,1,-0.005346648395061493,1,0.005475663114339113,1,0.008248422294855118,1
1773074095195142144,-0.01582919806241989,1,0.06698818504810333,1,0.1480329483747482,1,-0.008677228353917599,1,0.008264890871942043,1,0.006931227631866932,1
1773074095204698112,0.04733506590127945,1,0.1590956449508667,1,0.097274050116539,1,-0.005166885443031788,1,0.01312052458524704,1,0.007385801523923874,1
1773074095214161920,-0.006966812070459127,1,0.1838143616914749,1,0.1485807746648788,1,0.001858728937804699,1,0.01607638597488403,1,0.008779588155448437,1
1773074095223534080,-0.02155561558902264,1,0.09864964336156845,1,0.1732292622327805,1,0.004102312028408051,1,0.01508076209574938,1,0.008838030509650707,1
1773074095233410560,0.1003260612487793,1,0.04161848872900009,1,0.06252601742744446,1,-0.003236019518226385,1,0.01108332257717848,1,0.007698822300881147,1
1773074095244077824,0.1218943372368813,1,0.1134242936968803,1,-0.02291190251708031,1,-0.009593186900019646,1,0.007991532795131207,1,0.007550145965069532,1
1773074095254644992,0.05779867246747017,1,0.1082185059785843,1,0.01951932534575462,1,-0.006026727147400379,1,0.006657273974269629,1,0.007272802293300629,1
1773074095265111296,0.1298613548278809,1,0.1158911511301994,1,0.09925331175327301,1,-0.0008235636632889509,1,0.005249455571174622,1,0.007276501040905714,1
1773074095275478016,0.1054657623171806,1,-0.04115292802453041,1,0.108821339905262,1,0.002138559706509113,1,0.001123105874285102,1,0.006110459566116333,1
1773074095285754880,0.1105190068483353,1,0.02139995433390141,1,0.1443195194005966,1,0.008907271549105644,1,-0.001407081726938486,1,0.005633494351059198,1
1773074095295934208,0.129690557718277,1,0.07896364480257034,1,0.1580550819635391,1,0.01098950952291489,1,-0.006879471242427826,1,0.007344312500208616,1
1773074095306016000,0.08096551150083542,1,-0.03049027360975742,1,0.0690339207649231,1,0.005877127405256033,1,-0.006735610775649548,1,0.007053684908896685,1
1773074095316002560,0.03258573636412621,1,-0.01403065491467714,1,-0.05889543890953064,1,-0.0007062800577841699,1,-0.004282083362340927,1,0.005047191400080919,1
1773074095325893120,-0.02135014720261097,1,0.04743709415197372,1,-0.1039008870720863,1,0.004846558440476656,1,-0.003253753529861569,1,0.0062897396273911,1
1773074095335687680,0.06262166053056717,1,0.00766089279204607,1,-0.09069927781820297,1,0.01021905243396759,1,-0.004567635711282492,1,0.007590224500745535,1
1773074095345390848,0.1328500807285309,1,-0.1312430649995804,1,-0.118437334895134,1,0.001049760146997869,1,-0.005953114945441484,1,0.006482135504484177,1
1773074095355003136,0.07496201992034912,1,0.008095785975456238,1,-0.09975353628396988,1,-0.0100122420117259,1,-0.004226652905344963,1,0.005739903077483177,1
1773074095364523008,-0.05742502212524414,1,0.07095608860254288,1,-0.09008324146270752,1,-0.004194716922938824,1,-0.003303295699879527,1,0.00636621005833149,1
1773074095373950720,-7.98441469669342e-05,1,0.05697144940495491,1,-0.08082752674818039,1,0.01359302923083305,1,-0.002530699130147696,1,0.007389882113784552,1
1773074095383287552,0.1128492429852486,1,-0.1160189136862755,1,-0.07736301422119141,1,0.01495399978011847,1,-0.001728409784846008,1,0.006780503317713737,1
1773074095393579008,0.03193087503314018,1,-0.04819650202989578,1,-0.09215724468231201,1,0.0008637740975245833,1,-0.001437051105313003,1,0.005944834090769291,1
1773074095404226816,-0.1139968857169151,1,0.04859916493296623,1,-0.120887354016304,1,-0.00528179295361042,1,-0.002972435904666781,1,0.006767737679183483,1
1773074095414774016,-0.04784231632947922,1,0.01517436094582081,1,-0.2084447294473648,1,0.0005001907120458782,1,-0.003689585719257593,1,0.007772074081003666,1
1773074095425220608,0.09495079517364502,1,-0.1435915231704712,1,-0.2460305541753769,1,0.003926916979253292,1,0.0003536526346579194,1,0.007210217416286469,1
1773074095435567616,0.07767239212989807,1,-0.06703974306583405,1,-0.106892965734005,1,-0.002245326060801744,1,0.00186959479469806,1,0.006598666775971651,1
1773074095445816320,-0.03338606283068657,1,0.02894268557429314,1,0.05058855935931206,1,-0.00776818348094821,1,0.0009226922993548214,1,0.007523137144744396,1
1773074095455965952,0.0241076648235321,1,0.01305351313203573,1,0.001051276922225952,1,-0.004510234110057354,1,0.000578260631300509,1,0.007608088664710522,1
1773074095466028288,0.1323163509368896,1,-0.08351548761129379,1,-0.06957988440990448,1,-0.0005078611429780722,1,0.003792034229263663,1,0.00722856167703867,1
1773074095476007680,0.05199521780014038,1,0.004642372019588947,1,-0.005498830229043961,1,-0.0003357175446581095,1,0.006518898531794548,1,0.008192221634089947,1
1773074095485891328,-0.02930268459022045,1,-0.0152028501033783,1,0.05721897631883621,1,-0.001993614714592695,1,0.006656148936599493,1,0.008868825621902943,1
1773074095495679232,0.08543018996715546,1,-0.03488215059041977,1,0.003938350826501846,1,-0.007531857118010521,1,0.005310889799147844,1,0.008245944976806641,1
1773074095505374208,0.1465590298175812,1,-0.03896116837859154,1,-0.01518219523131847,1,-0.01370092108845711,1,0.009772171266376972,1,0.008616926148533821,1
1773074095514974720,0.08412767946720123,1,0.07038679718971252,1,0.1138046979904175,1,-0.010927046649158,1,0.01218764390796423,1,0.008460670709609985,1
1773074095524482816,0.1276490539312363,1,0.1162557452917099,1,0.2490730434656143,1,-0.002602903638035059,1,0.01345856767147779,1,0.009507124312222004,1
1773074095533901824,0.2717640101909637,1,0.03645230829715729,1,0.2238816171884537,1,-0.003899476723745465,1,0.01417978573590517,1,0.01072094868868589,1
1773074095543379200,0.2140380442142487,1,0.04422680288553238,1,0.1628358960151672,1,-0.00318810110911727,1,0.01333311386406422,1,0.01013309229165316,1
1773074095554104064,0.1722565144300461,1,0.1288772225379944,1,0.1856191605329514,1,-0.003417033702135086,1,0.01158744096755981,1,0.009313997812569141,1
1773074095564727808,0.1998567432165146,1,0.187282606959343,1,0.1284167319536209,1,-0.001915399450808764,1,0.006537019275128841,1,0.01104828622192144,1
1773074095575253248,0.231911763548851,1,0.02067557536065578,1,0.03444646298885345,1,-0.002790087601169944,1,0.003065131604671478,1,0.01086247060447931,1
1773074095585678336,0.249057337641716,1,0.07212091982364655,1,0.04790864139795303,1,-0.001243646489456296,1,0.002075162250548601,1,0.009575004689395428,1
1773074095596001536,0.2700836360454559,1,0.1199761405587196,1,0.1050264835357666,1,0.0004804136115126312,1,-0.0004425639344844967,1,0.009658408351242542,1
1773074095606226432,0.2771370112895966,1,0.07303561270236969,1,0.138043150305748,1,-0.001195561373606324,1,-0.001972611760720611,1,0.009854954667389393,1
1773074095616352768,0.2747185826301575,1,0.03414321690797806,1,0.1026235818862915,1,-0.005534851457923651,1,0.0007900980999693274,1,0.00805091205984354,1
1773074095626381824,0.330618292093277,1,0.0936509296298027,1,0.06862550973892212,1,-0.006503212731331587,1,0.002567159244790673,1,0.007373169995844364,1
1773074095636334592,0.2975549399852753,1,0.1992444545030594,1,0.1012565717101097,1,-0.0009520928142592311,1,0.002546490635722876,1,0.008834687061607838,1
1773074095646199296,0.2992936074733734,1,0.005654722452163696,1,0.1391745358705521,1,0.005134963430464268,1,0.005211998242884874,1,0.009267761372029781,1
1773074095655969024,0.3831848502159119,1,-0.001539269927889109,1,0.1011266559362411,1,-0.001612933585420251,1,0.002713493537157774,1,0.00857107900083065,1
1773074095665644288,0.366297721862793,1,0.0510786697268486,1,0.0003501884639263153,1,-0.00619474658742547,1,0.001566053950227797,1,0.008292371407151222,1
1773074095675227136,0.3620348572731018,1,0.1095200404524803,1,0.01324205659329891,1,-0.002567928517237306,1,0.0007372621912509203,1,0.009100473485887051,1
1773074095684717824,0.365082174539566,1,0.04871869832277298,1,0.02368137612938881,1,-0.0002753259323071688,1,0.001203409163281322,1,0.009596468880772591,1
1773074095694119168,0.3901256322860718,1,-0.0152178043499589,1,0.02092436514794827,1,-0.0005657696747221053,1,0.0008364883251488209,1,0.008501791395246983,1
1773074095703579648,0.3616462051868439,1,0.08131090551614761,1,0.07182592898607254,1,0.0005503512220457196,1,0.0006727727595716715,1,0.008814288303256035,1
1773074095714272512,0.349413275718689,1,0.1197729110717773,1,0.131574422121048,1,0.003366690594702959,1,8.856468048179522e-05,1,0.01004783343523741,1
1773074095724863744,0.4077799022197723,1,0.02560993656516075,1,0.09873571991920471,1,0.0006102130864746869,1,0.0007263778243213892,1,0.009374581277370453,1
1773074095735357184,0.4294518232345581,1,0.0126167181879282,1,0.03364025801420212,1,-0.004989516455680132,1,0.003905218560248613,1,0.009340443648397923,1
1773074095745749504,0.3241693675518036,1,0.1176671087741852,1,0.0313054546713829,1,-0.0004674576339311898,1,0.005876366049051285,1,0.0110322842374444,1
1773074095756041216,0.3152516186237335,1,0.0428924560546875,1,0.08774976432323456,1,0.005386159755289555,1,0.004234713036566973,1,0.01147083938121796,1
1773074095766234880,0.4346372485160828,1,-0.03559070080518723,1,0.05984938889741898,1,-0.004409605637192726,1,0.003788306610658765,1,0.0116020618006587,1
1773074095776329984,0.4353441298007965,1,-0.01309523265808821,1,-0.0174520630389452,1,-0.01494509913027287,1,0.003180335042998195,1,0.01219584699720144,1
1773074095786327552,0.3258874416351318,1,0.05029870197176933,1,0.01371968351304531,1,-0.01418946497142315,1,0.003972668200731277,1,0.01293879095464945,1
1773074095796234240,0.321365088224411,1,0.04664755612611771,1,0.0558699443936348,1,-0.006414052564650774,1,0.00402976106852293,1,0.01407022960484028,1
1773074095806063616,0.4116397798061371,1,-0.07091303169727325,1,0.07995474338531494,1,-0.009218732826411724,1,0.005440028849989176,1,0.01445804722607136,1
1773074095815799296,0.3900186717510223,1,0.02636054903268814,1,0.1001164838671684,1,-0.01883494108915329,1,0.006882763002067804,1,0.0146458288654685,1
1773074095825443072,0.3061027526855469,1,0.1324309706687927,1,0.07875379174947739,1,-0.01290856022387743,1,0.00915145967155695,1,0.01761353947222233,1
1773074095834995200,0.3356967270374298,1,0.02731917798519135,1,0.05543102696537971,1,-0.006735139060765505,1,0.01155849639326334,1,0.01723526045680046,1
1773074095844455424,0.3551969528198242,1,0.0227193646132946,1,0.03444374725222588,1,-0.009798463433980942,1,0.01544429827481508,1,0.01701481267809868,1
1773074095853824256,0.3604013323783875,1,0.2142123878002167,1,0.04831619188189507,1,-0.01120443269610405,1,0.01574606634676456,1,0.01936380565166473,1
1773074095863694080,0.2962905764579773,1,0.1647123396396637,1,0.06423281878232956,1,-0.006963088642805815,1,0.01606410369277,1,0.02117941714823246,1
1773074095874350848,0.3640164732933044,1,0.1350055932998657,1,0.03561249375343323,1,-0.004464303608983755,1,0.01860927790403366,1,0.02034501917660236,1
1773074095884905472,0.3719625473022461,1,0.1256067305803299,1,0.03240513429045677,1,-0.006003875285387039,1,0.01945762149989605,1,0.01994933001697063,1
1773074095895358208,0.2793455123901367,1,0.3052055537700653,1,0.1290575414896011,1,-0.0003364606527611613,1,0.0174644123762846,1,0.02129938267171383,1
1773074095905711360,0.3066825866699219,1,0.2049016058444977,1,0.1077988296747208,1,0.008023180067539215,1,0.01626714691519737,1,0.02197807654738426,1
1773074095915975424,0.4220412969589233,1,0.1235855966806412,1,0.00255608931183815,1,0.002690973225980997,1,0.01416686270385981,1,0.02009911835193634,1
1773074095926141440,0.3281025588512421,1,0.1767114698886871,1,-0.02966340444982052,1,-0.0005370639264583588,1,0.01463540177792311,1,0.02010828629136086,1
1773074095936211968,0.2571415305137634,1,0.2265358418226242,1,-0.01344011537730694,1,0.008802825585007668,1,0.01292355824261904,1,0.02109918370842934,1
1773074095946187008,0.3477777540683746,1,0.1282881796360016,1,-0.04752485826611519,1,0.01162114553153515,1,0.009657504037022591,1,0.02029997855424881,1
1773074095956066816,0.3353851437568665,1,0.09290176630020142,1,-0.07662632316350937,1,0.004155891016125679,1,0.008992059156298637,1,0.01944146491587162,1
1773074095965852416,0.35320845246315,1,0.2177103608846664,1,-0.1012368947267532,1,0.008589200675487518,1,0.007414134219288826,1,0.02083188854157925,1
1773074095975546112,0.4000466167926788,1,0.04248975962400436,1,-0.1390466839075089,1,0.01438242848962545,1,0.008076031692326069,1,0.02143350802361965,1
1773074095985148672,0.3501286804676056,1,0.07542397081851959,1,-0.1010049656033516,1,0.01209742017090321,1,0.01039473805576563,1,0.02026942186057568,1
1773074095994657792,0.3384092450141907,1,0.1763726770877838,1,-0.03669587522745132,1,0.01259821467101574,1,0.00996867474168539,1,0.02160249464213848,1
1773074096004075264,0.4168469309806824,1,0.06851617991924286,1,-0.06810247898101807,1,0.01147800125181675,1,0.009210847318172455,1,0.02271668426692486,1
1773074096013402112,0.4998117685317993,1,0.0308477096259594,1,-0.1085942611098289,1,0.009868097491562366,1,0.009371493943035603,1,0.02298730425536633,1
1773074096023838976,0.4337794780731201,1,0.06088452413678169,1,-0.05529259145259857,1,0.0119187431409955,1,0.009211979806423187,1,0.02358594164252281,1
1773074096034476032,0.4345983862876892,1,0.0774865597486496,1,0.03196602687239647,1,0.01483432855457067,1,0.003677360946312547,1,0.02356457710266113,1
1773074096045011968,0.5123632550239563,1,0.01163064129650593,1,0.0446099229156971,1,0.01187998801469803,1,0.001508236164227128,1,0.02339977957308292,1
1773074096055449600,0.5611637830734253,1,0.001047547906637192,1,0.01766048185527325,1,0.007503249682486057,1,-0.0003514831187203526,1,0.02291756309568882,1
1773074096065786112,0.5589211583137512,1,0.1397844851016998,1,0.0505748987197876,1,0.01441092975437641,1,0.0004798271111212671,1,0.0246108528226614,1
1773074096076023552,0.558870255947113,1,-0.1009625717997551,1,0.1106015667319298,1,0.01661176979541779,1,0.001100154244340956,1,0.02460799366235733,1
1773074096086162176,0.563111424446106,1,-0.03393128141760826,1,0.1427895128726959,1,0.007214535493403673,1,-0.001356926164589822,1,0.02391090430319309,1
1773074096096203776,0.5747318863868713,1,0.03707017004489899,1,0.1224253997206688,1,0.004364720545709133,1,-0.00243627792224288,1,0.02560635283589363,1
1773074096106147584,0.6379064321517944,1,-0.05279909446835518,1,0.06786587834358215,1,0.001731747994199395,1,-0.003447238355875015,1,0.02614733949303627,1
1773074096116016640,0.6875303387641907,1,-0.05272184684872627,1,0.06794925034046173,1,-0.003511492861434817,1,-0.0002154009416699409,1,0.02582322806119919,1
1773074096125793280,0.6450134515762329,1,-0.007703319191932678,1,0.1265687197446823,1,-0.006617130246013403,1,0.001917628804221749,1,0.02568229101598263,1
1773074096135476224,0.6595064997673035,1,0.05410582572221756,1,0.197662889957428,1,-0.003349680686369538,1,0.002287146635353565,1,0.02790428884327412,1
1773074096145067776,0.6817721724510193,1,-0.08308121562004089,1,0.2068779915571213,1,-0.008527385070919991,1,0.00224412907846272,1,0.02747985348105431,1
1773074096154566656,0.6664875149726868,1,-0.03862089663743973,1,0.2314229607582092,1,-0.01299659162759781,1,0.003163223853334785,1,0.0260451827198267,1
1773074096163973632,0.6931383609771729,1,0.115999661386013,1,0.2280123680830002,1,-0.007487847004085779,1,0.003522155806422234,1,0.02742784656584263,1
1773074096173441280,0.7393870949745178,1,0.08068986982107162,1,0.2173726558685303,1,-0.003352190600708127,1,0.003873770125210285,1,0.02907403372228146,1
1773074096184168192,0.6133623719215393,1,0.01092958636581898,1,0.2264899760484695,1,-0.008175566792488098,1,0.002885890658944845,1,0.02714234404265881,1
1773074096194792192,0.6539139151573181,1,0.1248469725251198,1,0.1795126795768738,1,-0.00522263441234827,1,-0.001012570108287036,1,0.02661010809242725,1
1773074096205319424,0.7672371864318848,1,0.009048650041222572,1,0.05871542915701866,1,-0.006655661854892969,1,-0.00314611429348588,1,0.02770060300827026,1
1773074096215746816,0.6387912034988403,1,0.07442209124565125,1,0.0857996940612793,1,-0.01068267691880465,1,-0.003710041521117091,1,0.02625828422605991,1
1773074096226073600,0.5585358142852783,1,0.1299291253089905,1,0.2016914486885071,1,-0.008490903303027153,1,-0.002005222486332059,1,0.02521675266325474,1
1773074096236301824,0.6403788328170776,1,0.08451473712921143,1,0.1500747799873352,1,-0.008803363889455795,1,-0.001587201841175556,1,0.026265699416399,1
1773074096246430464,0.6367209553718567,1,0.0002213558182120323,1,0.08719450980424881,1,-0.007930811494588852,1,0.002630103612318635,1,0.02528594434261322,1
1773074096256461568,0.598549485206604,1,0.03005554527044296,1,0.07143533229827881,1,-0.009953172877430916,1,0.004199177958071232,1,0.02425938099622726,1
1773074096266395904,0.565959095954895,1,0.1371285021305084,1,0.04467354342341423,1,-0.01275572739541531,1,0.003222835483029485,1,0.02570520341396332,1
1773074096276236800,0.496563047170639,1,-0.01542099379003048,1,-0.01982228457927704,1,-0.01922830380499363,1,0.007112245541065931,1,0.02496843785047531,1
1773074096285982464,0.5269649624824524,1,0.05891622602939606,1,-0.09115860611200333,1,-0.0183151438832283,1,0.009491962380707264,1,0.02340099588036537,1
1773074096295633920,0.5530878901481628,1,0.1925986707210541,1,-0.05627007037401199,1,-0.009080679155886173,1,0.01190559472888708,1,0.02415405213832855,1
1773074096305192448,0.4691342711448669,1,0.01932400837540627,1,0.0002845299895852804,1,-0.004612606018781662,1,0.01227989047765732,1,0.02429633960127831,1
1773074096314687232,0.4652145206928253,1,0.1645679026842117,1,0.0002105813473463058,1,-0.01022801920771599,1,0.01141070947051048,1,0.02408978156745434,1
1773074096324093952,0.4710609018802643,1,0.1722734868526459,1,-0.1123654544353485,1,-0.007552153430879116,1,0.009943798184394836,1,0.02411407232284546,1
1773074096333556992,0.4432953894138336,1,0.08123540878295898,1,-0.2032989412546158,1,-0.0003201027284376323,1,0.01152123510837555,1,0.02379531599581242,1
1773074096344243456,0.4463518261909485,1,0.2084836065769196,1,-0.1759712100028992,1,0.009056910872459412,1,0.01040869113057852,1,0.02491554990410805,1
1773074096354826496,0.4066349565982819,1,0.0993950143456459,1,-0.0612264908850193,1,0.01044578664004803,1,0.008018226362764835,1,0.02458323165774345,1
1773074096365310464,0.4627844989299774,1,0.1390272676944733,1,-0.06542377173900604,1,0.005560503341257572,1,0.006681292783468962,1,0.0245010107755661,1
1773074096375698176,0.5115185976028442,1,0.08804576843976974,1,-0.1085590571165085,1,0.002764504635706544,1,0.004880311898887157,1,0.02436648681759834,1
1773074096385984512,0.4609193503856659,1,0.1436657011508942,1,-0.087884820997715,1,0.006159127689898014,1,0.006029851268976927,1,0.02469245344400406,1
1773074096396171776,0.4356732666492462,1,0.1223234385251999,1,-0.05237565934658051,1,0.01527976430952549,1,0.005402981303632259,1,0.02596714161336422,1
1773074096406263040,0.4444010257720947,1,0.01322842109948397,1,0.01857886835932732,1,0.01681530103087425,1,-0.0005318073090165854,1,0.02544851042330265,1
1773074096416257024,0.522760808467865,1,0.01755779981613159,1,0.03244895115494728,1,0.01562989503145218,1,-0.005013902205973864,1,0.0243793036788702,1
1773074096426154496,0.5272586941719055,1,0.05629592388868332,1,0.05436247587203979,1,0.01064105704426765,1,-0.009029261767864227,1,0.02715159952640533,1
1773074096435960832,0.4162431359291077,1,-0.03034976311028004,1,0.03395336866378784,1,0.00238441932015121,1,-0.00903664156794548,1,0.02717557176947594,1
1773074096445672192,0.4942506849765778,1,0.1054990068078041,1,-0.02094350382685661,1,0.001547259977087379,1,-0.004388574976474047,1,0.02679862268269062,1
1773074096455289600,0.5929607152938843,1,-0.004248423501849174,1,0.01312410645186901,1,0.004415262490510941,1,0.0007035120506770909,1,0.02859968319535255,1
1773074096464814336,0.5642553567886353,1,-0.05580562725663185,1,0.1585901528596878,1,-0.001929423306137323,1,0.004230784252285957,1,0.02894686907529831,1
1773074096474246656,0.5702211260795593,1,0.03600850701332092,1,0.2103142738342285,1,-0.00773538276553154,1,0.006555127911269665,1,0.02955575659871101,1
1773074096483608576,0.6016198396682739,1,0.006757508963346481,1,0.1671641618013382,1,-0.009523029439151287,1,0.008818751201033592,1,0.02976579777896404,1
1773074096493636096,0.6377183198928833,1,0.01759325712919235,1,0.1452372819185257,1,-0.006964817643165588,1,0.01082534436136484,1,0.02894809283316135,1
1773074096504291584,0.7078409790992737,1,0.02710696868598461,1,0.1355131566524506,1,-0.004277796018868685,1,0.0133795477449894,1,0.02930068224668503,1
1773074096514848000,0.7085504531860352,1,0.07416922599077225,1,0.145724430680275,1,-0.009439459070563316,1,0.01557551696896553,1,0.03058986179530621,1
1773074096525302784,0.6209542751312256,1,0.06878940016031265,1,0.1581710427999496,1,-0.01061903219670057,1,0.0133379939943552,1,0.02918278425931931,1
1773074096535657472,0.6850579977035522,1,0.0992693156003952,1,0.1353063881397247,1,-0.00898062065243721,1,0.01697423309087753,1,0.02825034223496914,1
1773074096545913856,0.7767879962921143,1,0.05152708292007446,1,0.08915871381759644,1,-0.009686996228992939,1,0.01586115919053555,1,0.02779474481940269,1
1773074096556070912,0.7613932490348816,1,0.09974193572998047,1,0.1250057965517044,1,-0.0102299889549613,1,0.01717411726713181,1,0.02697486989200115,1
1773074096566146304,0.7192811965942383,1,0.1575659513473511,1,0.1987709850072861,1,-0.006763468962162733,1,0.01890459470450878,1,0.02643625065684319,1
1773074096576126208,0.7424402832984924,1,0.01146585121750832,1,0.2161632180213928,1,-0.009125828742980957,1,0.01933830603957176,1,0.02498140744864941,1
1773074096586010880,0.7956992983818054,1,0.1674816906452179,1,0.1796876937150955,1,-0.0146638248115778,1,0.01973041519522667,1,0.02383967861533165,1
1773074096595801600,0.7818257212638855,1,0.07110421359539032,1,0.1814564913511276,1,-0.005508946720510721,1,0.02035264857113361,1,0.0236650388687849,1
1773074096605498880,0.7916272282600403,1,0.02959557622671127,1,0.2375455796718597,1,-0.00507354037836194,1,0.02064171433448792,1,0.02311671711504459,1
1773074096615104256,0.7975791692733765,1,0.1715784519910812,1,0.2540715038776398,1,-0.005724758375436068,1,0.01745119690895081,1,0.02304989099502563,1
1773074096624619264,0.7776980400085449,1,0.06133926659822464,1,0.2445668280124664,1,-0.007467461284250021,1,0.01706899888813496,1,0.02273130975663662,1
1773074096634044672,0.8217242956161499,1,0.1417002975940704,1,0.1717843562364578,1,-0.01118214800953865,1,0.01441008504480124,1,0.02337273024022579,1
1773074096643379456,0.7673181891441345,1,0.09334837645292282,1,0.1283257603645325,1,-0.005416484549641609,1,0.01293129380792379,1,0.02474341727793217,1
1773074096653816832,0.7535771131515503,1,0.08216170966625214,1,0.1427746266126633,1,-0.0009097306756302714,1,0.01143569312989712,1,0.02488087490200996,1
1773074096664451584,0.7911133766174316,1,0.07157208025455475,1,0.1413529366254807,1,-0.001605250290594995,1,0.0064751161262393,1,0.02529512904584408,1
1773074096674982144,0.7978023886680603,1,0.03690342605113983,1,0.06731776148080826,1,-0.005849959794431925,1,0.002128135645762086,1,0.0259875375777483,1
1773074096685409280,0.7230336666107178,1,0.09071196615695953,1,0.006137625314295292,1,-0.005955648142844439,1,0.0006813362706452608,1,0.02659132145345211,1
1773074096695745024,0.6631677746772766,1,0.1052543744444847,1,-0.0107390284538269,1,-0.001753923017531633,1,-0.0007724548922851682,1,0.02670156769454479,1
1773074096705979136,0.6656239032745361,1,0.06551280617713928,1,-0.00709688663482666,1,0.001499004545621574,1,-0.002478489885106683,1,0.02679639495909214,1
1773074096716113408,0.6984884142875671,1,0.001502825645729899,1,0.003737754886969924,1,-0.0011296053417027,1,-0.001655941130593419,1,0.02729527838528156,1
1773074096726150144,0.6877067089080811,1,0.1072958111763,1,-0.03955462947487831,1,-0.003494916949421167,1,-0.002467177342623472,1,0.02784146368503571,1
1773074096736089856,0.6300396323204041,1,0.0984896719455719,1,-0.05135345458984375,1,-0.005521110258996487,1,0.0005884886486455798,1,0.02866755053400993,1
1773074096745931520,0.5983392596244812,1,0.0688919872045517,1,-0.09986896067857742,1,-0.01195114105939865,1,0.002422746503725648,1,0.02831093408167362,1
1773074096755678464,0.6443834900856018,1,0.1668011099100113,1,-0.15253546833992,1,-0.008574157021939754,1,0.004597723949700594,1,0.02963422797620296,1
1773074096765330176,0.6444956064224243,1,0.0629943385720253,1,-0.1118194088339806,1,-0.006710160989314318,1,0.006965572480112314,1,0.02926257625222206,1
1773074096774887936,0.5914552807807922,1,0.147268608212471,1,-0.02593708038330078,1,-0.006257981993257999,1,0.003498686477541924,1,0.02838620543479919,1
1773074096784350976,0.6051908135414124,1,0.112889364361763,1,-0.023328997194767,1,-0.002475150860846043,1,0.0005684345960617065,1,0.0280920248478651,1
1773074096793722368,0.6646479368209839,1,0.08907158672809601,1,-0.08003051578998566,1,-0.0006449971115216613,1,-0.003029513638466597,1,0.02652191929519176,1
1773074096803154432,0.6644402742385864,1,0.1814357340335846,1,-0.08858737349510193,1,0.006891236640512943,1,-0.003916623536497355,1,0.02682846412062645,1
1773074096813873920,0.5915048122406006,1,0.051988385617733,1,-0.06246909871697426,1,0.009880971163511276,1,-0.004364815540611744,1,0.02616461366415024,1
1773074096824493824,0.5691561698913574,1,0.03863299638032913,1,-0.05851565301418304,1,0.009285872802138329,1,-0.005885120015591383,1,0.02403924986720085,1
1773074096835018240,0.6669329404830933,1,0.08830201625823975,1,-0.07975257933139801,1,0.009202086366713047,1,-0.00508693465963006,1,0.0239624660462141,1
1773074096845443840,0.6168944835662842,1,-0.1009506285190582,1,-0.08299285918474197,1,0.002570183016359806,1,-0.004384501837193966,1,0.02307035960257053,1
1773074096855769856,0.5513328909873962,1,0.02343208156526089,1,-0.0211397297680378,1,-0.0006102059269323945,1,-0.0007118565263226628,1,0.02221445553004742,1
1773074096865999360,0.6137888431549072,1,-0.007218631915748119,1,0.02418159693479538,1,0.002326281974092126,1,0.002779473550617695,1,0.02094204165041447,1
1773074096876131584,0.7015207409858704,1,-0.1080497801303864,1,0.06065495312213898,1,-0.003687765914946795,1,0.005694597959518433,1,0.01996096782386303,1
1773074096886179072,0.6447938084602356,1,0.06624466925859451,1,0.1332815587520599,1,-0.008174163289368153,1,0.009380163624882698,1,0.02077973820269108,1
1773074096896131328,0.5914484262466431,1,-0.121135339140892,1,0.1548985242843628,1,-0.006069499533623457,1,0.01068277470767498,1,0.01989398710429668,1
1773074096905988608,0.7067883014678955,1,0.0003586336970329285,1,0.1451864093542099,1,-0.007819083519279957,1,0.01140292640775442,1,0.01843380928039551,1
1773074096915753728,0.7790919542312622,1,0.01841745898127556,1,0.1983032375574112,1,-0.003594796173274517,1,0.0111519256606698,1,0.02050177752971649,1
1773074096925424640,0.7210590243339539,1,-0.0856950581073761,1,0.262795478105545,1,-0.006721144076436758,1,0.01044114399701357,1,0.01978079043328762,1
1773074096935001856,0.7182818055152893,1,0.06874918937683105,1,0.2508583068847656,1,-0.006351128686219454,1,0.007598256692290306,1,0.01975514553487301,1
1773074096944489216,0.7065982818603516,1,-0.005286063067615032,1,0.2228587418794632,1,-0.003961808979511261,1,0.006652393843978643,1,0.01998882740736008,1
1773074096953886720,0.7347640991210938,1,0.03439156711101532,1,0.1669106483459473,1,-0.001224968465976417,1,0.003447596915066242,1,0.02064320258796215,1
1773074096963488512,0.7275519967079163,1,0.08305346220731735,1,0.1629659086465836,1,0.0007494295132346451,1,0.001967723481357098,1,0.02181371301412582,1
1773074096974174464,0.6607405543327332,1,0.01061782985925674,1,0.1422351747751236,1,-0.002508556004613638,1,0.002913782140240073,1,0.02029369026422501,1
1773074096984758272,0.6840190291404724,1,0.1142929643392563,1,0.07035937905311584,1,-0.00304357660934329,1,0.0009679333306849003,1,0.01937407627701759,1
1773074096995240448,0.718144953250885,1,0.08658204972743988,1,0.02624663710594177,1,-0.0007843629573471844,1,0.001830320805311203,1,0.01976800337433815,1
1773074097005629696,0.6904038786888123,1,0.1488080024719238,1,0.005865623243153095,1,0.004240665584802628,1,0.001790350768715143,1,0.01988635398447514,1
1773074097015921664,0.6454180479049683,1,0.1496420800685883,1,0.06780454516410828,1,0.005353481043130159,1,0.004556231200695038,1,0.01855287700891495,1
1773074097026114816,0.6803010702133179,1,0.0690935030579567,1,0.006830454804003239,1,0.0006914419354870915,1,0.00263279234059155,1,0.01566733606159687,1
1773074097036210944,0.7261684536933899,1,0.1020451262593269,1,-0.09793833643198013,1,0.0005942888092249632,1,0.003507819958031178,1,0.01604503393173218,1
1773074097046210048,0.6580747961997986,1,0.2351376563310623,1,-0.06417226046323776,1,0.009984830394387245,1,0.002234506653621793,1,0.01734872348606586,1
1773074097056112896,0.5937812328338623,1,0.02985472232103348,1,0.01860069669783115,1,0.01261388976126909,1,0.001098643755540252,1,0.01338421739637852,1
1773074097065923328,0.6998798251152039,1,0.1544566005468369,1,-0.02143743261694908,1,0.004790512844920158,1,1.733473618514836e-05,1,0.01190072111785412,1
1773074097075642112,0.6920053958892822,1,0.04432009533047676,1,-0.1045884415507317,1,0.003574877744540572,1,-0.001979931024834514,1,0.01246917806565762,1
1773074097085266944,0.6324532032012939,1,0.1200168877840042,1,-0.1101405173540115,1,0.01293401699513197,1,-0.003033043583855033,1,0.01145987585186958,1
1773074097094798592,0.590718150138855,1,0.02751787565648556,1,-0.02036764845252037,1,0.01686131581664085,1,-0.002500778064131737,1,0.009922841563820839,1
1773074097104238336,0.5905023813247681,1,-0.01215535122901201,1,-0.01489038486033678,1,0.008711632341146469,1,-0.006843269802629948,1,0.008722774684429169,1
1773074097113586944,0.6142319440841675,1,0.01645440980792046,1,-0.1152214929461479,1,0.006658670026808977,1,-0.006548820063471794,1,0.008717072196304798,1
1773074097123612160,0.6107190251350403,1,-0.03122108988463879,1,-0.1227212250232697,1,0.01251158956438303,1,-0.005523785017430782,1,0.007741597015410662,1
1773074097134268928,0.5579562187194824,1,-0.02984524890780449,1,-0.06513648480176926,1,0.01464652083814144,1,-0.004047214053571224,1,0.007397722452878952,1
1773074097144823808,0.491247683763504,1,-0.07466581463813782,1,0.04027113318443298,1,0.01206881925463676,1,-0.004965527448803186,1,0.007493764627724886,1
1773074097155277824,0.50586998462677,1,0.00214289641007781,1,0.07959675043821335,1,0.01429364643990993,1,-0.004794108681380749,1,0.007609768770635128,1
1773074097165641472,0.529371976852417,1,-0.1644842028617859,1,0.09885083138942719,1,0.01341614965349436,1,-0.00206923671066761,1,0.007220997475087643,1
1773074097175907840,0.5300175547599792,1,0.006744842045009136,1,0.1521148830652237,1,0.01429671421647072,1,-0.0010563381947577,1,0.007996872067451477,1
1773074097186075392,0.5042036175727844,1,-0.05928850919008255,1,0.2103137522935867,1,0.01517227571457624,1,0.001472289906814694,1,0.008978369645774364,1
1773074097196145408,0.5192306041717529,1,-0.03435822203755379,1,0.245534285902977,1,0.009711182676255703,1,0.004697331227362156,1,0.008710687048733234,1
1773074097206119424,0.4543109536170959,1,-0.01843853108584881,1,0.2618212401866913,1,0.008906648494303226,1,0.007223801221698523,1,0.009889287874102592,1
1773074097215999488,0.4711197912693024,1,-0.02403493411839008,1,0.339596152305603,1,0.01080685015767813,1,0.008589263074100018,1,0.01002837251871824,1
1773074097225785856,0.5315963625907898,1,-0.04468432813882828,1,0.331249862909317,1,0.009954361245036125,1,0.005273248068988323,1,0.009861472062766552,1
1773074097235480832,0.5200509428977966,1,0.001347773708403111,1,0.3294056057929993,1,0.007816712372004986,1,0.001795141957700253,1,0.01041958015412092,1
1773074097245082368,0.3474777638912201,1,0.01271929685026407,1,0.3276948034763336,1,0.01131674740463495,1,-0.002607079921290278,1,0.01053949538618326,1
1773074097254591744,0.3647730052471161,1,0.03050424344837666,1,0.2837294340133667,1,0.02036230452358723,1,-0.0073202233761549,1,0.009704126045107841,1
1773074097264009984,0.4744738340377808,1,-0.1069077402353287,1,0.1774117350578308,1,0.01638797856867313,1,-0.01093354169279337,1,0.008197935298085213,1
1773074097273337856,0.4353333711624146,1,0.05456221476197243,1,0.132025420665741,1,0.01031360123306513,1,-0.01144646294414997,1,0.009402814321219921,1
1773074097283774720,0.263840526342392,1,-0.01530767790973186,1,0.1137694492936134,1,0.006464403122663498,1,-0.009435556828975677,1,0.00858899112790823,1
1773074097294411520,0.3093427419662476,1,0.01204641722142696,1,0.04204313457012177,1,0.002237457549199462,1,-0.005611765664070845,1,0.006789726670831442,1
1773074097304947456,0.3597242832183838,1,-0.05558417364954948,1,-0.04418803006410599,1,-0.004396320320665836,1,0.002529648365452886,1,0.007156731560826302,1
1773074097315386368,0.320710301399231,1,0.1302400380373001,1,-0.01080352067947388,1,0.0005590696237049997,1,0.004398983903229237,1,0.007943055592477322,1
1773074097325729792,0.3064506649971008,1,0.03544183075428009,1,0.03333863243460655,1,0.001106185489334166,1,0.01099599525332451,1,0.006807924713939428,1
1773074097335972864,0.3814055025577545,1,0.04588586464524269,1,-0.02736489288508892,1,-0.01034954935312271,1,0.00915643572807312,1,0.004431955050677061,1
1773074097346119936,0.304429292678833,1,0.1441696733236313,1,-0.1142363846302032,1,-0.01242553349584341,1,0.009357734583318233,1,0.004927395842969418,1
1773074097356170496,0.3606643974781036,1,0.115347683429718,1,-0.1539841741323471,1,0.004050104413181543,1,0.007247469387948513,1,0.004754930734634399,1
1773074097366125824,0.3669901788234711,1,0.01352479308843613,1,-0.1171005740761757,1,0.006435501389205456,1,0.004873980302363634,1,0.002288083778694272,1
1773074097375987456,0.3104560673236847,1,0.1059921607375145,1,0.02447800152003765,1,0.002193012507632375,1,-0.0008515596855431795,1,0.00116515695117414,1
1773074097385757696,0.2872493267059326,1,0.0524480938911438,1,0.004070406779646873,1,-0.001680967630818486,1,-0.004965374246239662,1,0.0009366050944663584,1
1773074097395442432,0.4285353124141693,1,0.1407500803470612,1,-0.09033439308404922,1,0.005461376160383224,1,-0.005257726181298494,1,0.001405432121828198,1
1773074097405051648,0.3707738220691681,1,-0.04614609479904175,1,-0.09275566786527634,1,0.01372901536524296,1,-0.001176274963654578,1,0.001293058856390417,1
