Time,inertial-6286.188861:estLinearAccelX,inertial-6286.188861:estLinearAccelX:valid,inertial-6286.188861:estLinearAccelY,inertial-6286.188861:estLinearAccelY:valid,inertial-6286.188861:estLinearAccelZ,inertial-6286.188861:estLinearAccelZ:valid,inertial-6286.188861:estAngularRateX,inertial-6286.188861:estAngularRateX:valid,inertial-6286.188861:estAngularRateY,inertial-6286.188861:estAngularRateY:valid,inertial-6286.188861:estAngularRateZ,inertial-6286.188861:estAngularRateZ:valid
1773072554680536576,-0.02673604153096676,1,-0.02132638357579708,1,0.01706733927130699,1,0.0003476458368822932,1,-0.0004889803822152317,1,-0.0001923387462738901,1
1773072554690112512,-0.03271480277180672,1,-0.01453082729130983,1,0.01355561148375273,1,-0.00468203891068697,1,0.001128532690927386,1,-0.0002897754311561584,1
1773072554699620352,-0.03087133727967739,1,-0.00789348129183054,1,0.005996474996209145,1,-0.009295547381043434,1,0.00294340867549181,1,-0.0004795403219759464,1
1773072554709048064,-0.03657751902937889,1,-0.02973476238548756,1,-0.0172082744538784,1,-0.0159313902258873,1,0.004586781375110149,1,-0.0003208826528862119,1
1773072554718532864,-0.03686651214957237,1,0.00143398717045784,1,-0.02704121544957161,1,-0.01864405907690525,1,0.005313299596309662,1,-0.0007255148375406861,1
1773072554729240320,-0.02948779240250587,1,0.06858929991722107,1,-0.003272189758718014,1,-0.01219616923481226,1,0.004980912897735834,1,-0.0002242896880488843,1
1773072554739845632,0.007619331125169992,1,0.03578639030456543,1,0.01383273955434561,1,-0.004351208452135324,1,0.003266821382567286,1,0.0001101642701542005,1
1773072554750351360,0.016712611541152,1,-2.513296203687787e-05,1,0.01437946315854788,1,-0.001352357212454081,1,0.001269278931431472,1,0.0003112765843980014,1
1773072554760759808,0.00273983390070498,1,-0.002571405377238989,1,0.001402919297106564,1,-0.0002757154579740018,1,-8.229252125602216e-05,1,0.0006888157222419977,1
1773072554771069696,-0.01956815458834171,1,-0.01595525443553925,1,-0.004537123255431652,1,-0.0005524602020159364,1,-0.0001408926473231986,1,0.0007999430526979268,1
1773072554781282304,-0.02020084485411644,1,-0.02771322429180145,1,0.01995527930557728,1,-0.002082254504784942,1,0.0006192399305291474,1,0.0005263863131403923,1
1773072554791397632,-0.008371883071959019,1,-0.03389041498303413,1,0.06310518831014633,1,-0.003725001588463783,1,0.002092569600790739,1,0.0001899562776088715,1
1773072554801414912,-0.001153438584879041,1,-0.03229068592190742,1,0.0988050177693367,1,-0.006633027922362089,1,0.003386965719982982,1,-0.0001967576099559665,1
1773072554811336448,-0.002868735697120428,1,-0.01136058010160923,1,0.1167445331811905,1,-0.008348218165338039,1,0.004093923605978489,1,-0.000311780022457242,1
1773072554821165056,0.005940289702266455,1,-0.01080859918147326,1,0.1088305562734604,1,-0.008169278502464294,1,0.00426606135442853,1,-0.0007604946149513125,1
1773072554830898432,0.01488018687814474,1,-0.0001064522657543421,1,0.0812024250626564,1,-0.007756602484732866,1,0.002732986817136407,1,-0.0008212825050577521,1
1773072554840537600,0.01929443329572678,1,0.02143333107233047,1,0.03228793665766716,1,-0.00572530273348093,1,0.0009556532604619861,1,-0.0008202067692764103,1
1773072554850087424,0.01126276236027479,1,0.01294398959726095,1,0.001627268269658089,1,-0.001747741247527301,1,-0.0001242415310116485,1,-0.0007532284362241626,1
1773072554859576832,0.003911655396223068,1,0.01076618675142527,1,0.01969944313168526,1,0.001630425802432001,1,-0.001057720859535038,1,-0.0003477216814644635,1
1773072554868974592,-0.001238225027918816,1,-0.008533741347491741,1,0.04875575006008148,1,0.002553030382841825,1,-0.001241417485289276,1,-0.0002927587484009564,1
1773072554878722560,-0.01498155668377876,1,0.02104379236698151,1,0.05140730366110802,1,0.000230842677410692,1,-0.003003332996740937,1,-0.0003829387133009732,1
1773072554889399296,-0.03873286023736,1,0.004679311066865921,1,0.05222734063863754,1,0.002282221568748355,1,-0.002024922519922256,1,-0.0005718191969208419,1
1773072554899973888,-0.04092059284448624,1,-0.01528459507972002,1,0.06759104132652283,1,0.002513518324121833,1,-0.0004498272319324315,1,-0.0008475567447021604,1
1773072554910451712,-0.03346381336450577,1,-0.002547555603086948,1,0.06456593424081802,1,3.820867277681828e-06,1,0.001087437616661191,1,-0.001075233682058752,1
1773072554920830976,-0.0239853523671627,1,0.006395704112946987,1,0.06007818505167961,1,-0.00300089898519218,1,0.001865878934040666,1,-0.001338605768978596,1
1773072554931111168,-0.02398405596613884,1,0.02302845567464828,1,0.02711920067667961,1,-0.006696758791804314,1,0.00116452993825078,1,-0.001460088649764657,1
1773072554941295616,-0.02173940278589725,1,0.0395454466342926,1,-0.004710310138761997,1,-0.005221783649176359,1,0.001119041233323514,1,-0.001193933538161218,1
1773072554951384064,-0.01955531910061836,1,0.03668529912829399,1,0.006620745174586773,1,-0.001344389980658889,1,0.0008577011176384985,1,-0.00122228090185672,1
1773072554961377280,-0.003831919282674789,1,0.02607586607336998,1,0.03368979319930077,1,0.002579430118203163,1,0.0005716147716157138,1,-0.001007485203444958,1
1773072554971290368,0.01334141008555889,1,0.0147362407296896,1,0.03816483169794083,1,0.003168497234582901,1,-0.0001264701713807881,1,-0.0009525557979941368,1
1773072554981109760,0.01855164207518101,1,0.006177518516778946,1,0.02641162276268005,1,0.002488291589543223,1,0.0001215070806210861,1,-0.001014822861179709,1
1773072554990834688,0.000465360120870173,1,0.003152055898681283,1,0.02471422404050827,1,0.002379173180088401,1,0.0006615700549446046,1,-0.001268328749574721,1
1773072555000467968,-0.009110640734434128,1,0.003758240025490522,1,0.01052703335881233,1,0.001560495235025883,1,0.0007922420045360923,1,-0.00118559249676764,1
1773072555010008832,0.008566192351281643,1,0.002388891996815801,1,-0.003608747385442257,1,0.000668371794745326,1,0.001581894000992179,1,-0.0008349639247171581,1
1773072555019457536,0.02968139573931694,1,-0.002221157541498542,1,-0.01104466617107391,1,-0.001337078283540905,1,0.002151943044736981,1,-0.0009103633929044008,1
1773072555028818432,0.0442192517220974,1,8.065017755143344e-05,1,-0.004059894941747189,1,-0.00213259388692677,1,0.001790818874724209,1,-0.0007081075455062091,1
1773072555038972928,0.03580218926072121,1,0.009276697412133217,1,0.01138334721326828,1,-0.002304149093106389,1,0.0008547265315428376,1,-0.0003612998407334089,1
1773072555049618688,0.03394195809960365,1,0.01299403887242079,1,0.0299838725477457,1,-0.001141590415500104,1,7.098284550011158e-05,1,-7.272823859238997e-05,1
1773072555060162048,0.05494812875986099,1,-0.002336568431928754,1,0.04991148412227631,1,-0.0006201996584422886,1,-0.0008022448746487498,1,-3.732535333256237e-06,1
1773072555070607360,0.03073685429990292,1,0.01577009260654449,1,0.05782251060009003,1,0.001062714145518839,1,-0.0005505755543708801,1,7.120583177311346e-05,1
1773072555080956160,0.04371702671051025,1,-0.0006331684999167919,1,0.05185943469405174,1,-0.0002128618652932346,1,-0.001334363943897188,1,-0.0002081494021695107,1
1773072555091205888,0.02864984795451164,1,0.01198613364249468,1,0.03224268183112144,1,-0.0001537037169327959,1,-0.001306498073972762,1,-8.872313628671691e-05,1
1773072555101356288,0.007405868265777826,1,0.005372997373342514,1,0.01649952307343483,1,0.0007231655763462186,1,-0.001640318776480854,1,0.0002235483116237447,1
1773072555111409664,-0.02446520701050758,1,0.01644119061529636,1,0.02210893481969833,1,0.002160054165869951,1,-0.00173872837331146,1,0.0001744198088999838,1
1773072555121365760,-0.0287205558270216,1,0.01418990455567837,1,0.02900535240769386,1,0.004150728229433298,1,-0.002021889900788665,1,0.000404935039114207,1
1773072555131226880,-0.01398344617336988,1,-0.01650208048522472,1,0.04047586023807526,1,0.003666705917567015,1,-0.002470381325110793,1,0.0006443137535825372,1
1773072555140995840,-0.04014359787106514,1,-0.0217605996876955,1,0.06161317229270935,1,0.002725755330175161,1,-0.002266849158331752,1,9.674485045252368e-05,1
1773072555150670080,-0.05595874786376953,1,-0.02623084001243114,1,0.08410615473985672,1,0.0005206164205446839,1,-0.002474871464073658,1,5.542024882743135e-05,1
1773072555160250368,-0.08597029000520706,1,-0.001579959876835346,1,0.06790447980165482,1,-0.001922814408317208,1,-0.002415865892544389,1,-0.0002392957539996132,1
1773072555169737216,-0.06423155963420868,1,-0.02005363814532757,1,0.0443992093205452,1,-0.002042685868218541,1,-0.001685633440501988,1,-0.00057318335166201,1
1773072555179132416,-0.04781567677855492,1,0.007067748811095953,1,0.04167809709906578,1,-0.001912505947984755,1,-0.001264054095372558,1,-0.0004318877472542226,1
1773072555188436480,-0.03469144180417061,1,-0.007298408076167107,1,0.03620840981602669,1,-0.002455231500789523,1,-0.0006194214220158756,1,-0.000556790444534272,1
1773072555199017728,-0.05097385495901108,1,0.0002568450290709734,1,0.02745913714170456,1,-0.002996491501107812,1,-0.001208939589560032,1,-0.0006940884049981833,1
1773072555209649920,-0.05057781189680099,1,0.02697517350316048,1,0.007601626683026552,1,-0.001428921008482575,1,-0.0005620058509521186,1,-0.0002980752906296402,1
1773072555220180992,-0.02717282064259052,1,0.002828260650858283,1,0.01109813991934061,1,0.001466687768697739,1,0.0003214127791579813,1,-0.0003059907467104495,1
1773072555230609408,-0.008811722509562969,1,0.003135100938379765,1,0.01831739023327827,1,0.001985816285014153,1,0.0004719685239251703,1,-0.0003506666980683804,1
1773072555240935168,-0.0002475282526575029,1,0.01585765555500984,1,0.01061923149973154,1,0.001758617931045592,1,0.0002389990550000221,1,-3.607145117712207e-06,1
1773072555251167488,-0.01026658620685339,1,0.02197919227182865,1,0.00809631310403347,1,0.001193253323435783,1,0.0004137084470130503,1,-0.0001503615058027208,1
1773072555261303296,-0.002707979409024119,1,0.02381450682878494,1,0.0104650380089879,1,0.001366938115097582,1,0.0009532475960440934,1,-0.0002176986454287544,1
1773072555271342080,0.01894799806177616,1,0.01882894523441792,1,0.01803947612643242,1,0.001447760732844472,1,0.001876764581538737,1,-0.0004061451181769371,1
1773072555281284096,0.03949221968650818,1,0.006556414533406496,1,0.03145454823970795,1,0.001278381794691086,1,0.002141301287338138,1,-0.0004542688257060945,1
1773072555291130624,0.03612509742379189,1,-0.000810419674962759,1,0.04991590976715088,1,0.001013016095384955,1,0.001766074099577963,1,-0.0004067707050126046,1
1773072555300880384,0.01732262969017029,1,0.006297001149505377,1,0.0668855682015419,1,0.001129862852394581,1,0.001328547834418714,1,-0.0005346889374777675,1
1773072555310536448,0.02186419256031513,1,0.003288835752755404,1,0.07661787420511246,1,0.001284055993892252,1,0.001499609905295074,1,-0.0003156730672344565,1
1773072555320099328,0.03543123975396156,1,-0.008488273248076439,1,0.08362201601266861,1,0.002012386918067932,1,0.00115129048936069,1,-0.0006987747037783265,1
1773072555329569536,0.03449217602610588,1,-0.007129632867872715,1,0.09669705480337143,1,0.001445686910301447,1,0.0004890101263299584,1,-0.0006593346479348838,1
1773072555338946560,0.0230704341083765,1,-0.003692704485729337,1,0.1072524636983871,1,0.0004935105098411441,1,-0.0003721544053405523,1,-0.0003974996798206121,1
1773072555348404736,0.01015414111316204,1,0.006340335588902235,1,0.08906497806310654,1,-3.840853241854347e-05,1,-0.001386693096719682,1,-0.0001975489140022546,1
1773072555359113216,0.01202186942100525,1,0.0118393562734127,1,0.06381714344024658,1,0.002017637249082327,1,-0.002091456903144717,1,2.015427526202984e-06,1
1773072555369719808,0.01010543294250965,1,0.006433017086237669,1,0.05638422071933746,1,0.003461775369942188,1,-0.002314322628080845,1,1.698196865618229e-05,1
1773072555380229632,0.0009081265889108181,1,0.002100762212648988,1,0.04897144064307213,1,0.003040133509784937,1,-0.002657719189301133,1,-0.0002081940474454314,1
1773072555390640128,-0.0136175025254488,1,0.004079263191670179,1,0.02990159019827843,1,0.001109403092414141,1,-0.002394065726548433,1,-0.0004941399674862623,1
1773072555400950272,-0.01959271542727947,1,0.01137443166226149,1,0.003436195896938443,1,-0.001032698433846235,1,-0.001585423131473362,1,-0.0007223974680528045,1
1773072555411162624,-0.01657678931951523,1,0.01048461068421602,1,-0.011355753056705,1,-0.002243953291326761,1,-0.000963530270382762,1,-0.0009556653094477952,1
1773072555421277440,-0.01307973638176918,1,0.008882732130587101,1,-0.01620481349527836,1,-0.002972004236653447,1,-0.0007405081414617598,1,-0.001034289249219,1
1773072555431295232,-0.01567355915904045,1,0.01514414418488741,1,-0.01937369629740715,1,-0.00355577259324491,1,-0.00072002864908427,1,-0.001021105097606778,1
1773072555441220352,-0.01861212961375713,1,0.01185076590627432,1,-0.01873861439526081,1,-0.003097508102655411,1,-0.0004435155424289405,1,-0.0009613684960640967,1
1773072555451051008,-0.02128556370735168,1,0.01348292734473944,1,-0.01436851173639297,1,-0.002985439961776137,1,-0.0001330403320025653,1,-0.001182850450277328,1
1773072555460807936,-0.02914545685052872,1,0.008501889184117317,1,-0.008944530040025711,1,-0.002275689970701933,1,0.0001884685188997537,1,-0.00116771284956485,1
1773072555470471168,-0.0354120098054409,1,0.0002860403619706631,1,-0.002267949748784304,1,-0.001784375635907054,1,0.0005199745064601302,1,-0.001319793169386685,1
1773072555480043008,-0.02732658386230469,1,-0.006739278323948383,1,0.0114124733954668,1,-0.002036023652181029,1,0.000544290232937783,1,-0.001542439102195203,1
1773072555489523456,-0.01794403977692127,1,0.00860314816236496,1,0.01176239736378193,1,-0.002330757211893797,1,0.0004658719117287546,1,-0.001217239885590971,1
1773072555498912512,-0.03549664467573166,1,0.02034729532897472,1,0.01696712709963322,1,-0.001597544876858592,1,0.0009128303499892354,1,-0.0008230712846852839,1
1773072555508653824,-0.04710518568754196,1,0.0157913975417614,1,0.03085680492222309,1,-0.000548084732145071,1,0.001237207092344761,1,-0.0002070531772915274,1
1773072555519330560,-0.02845125459134579,1,0.007372481282800436,1,0.04940755292773247,1,0.0007643529679626226,1,0.001409702119417489,1,-4.120467201573774e-05,1
1773072555529906176,-0.01048752851784229,1,-5.093112122267485e-06,1,0.06792622059583664,1,0.002375161740928888,1,0.001078744069673121,1,0.00020031031453982,1
1773072555540380160,-0.008654195815324783,1,-0.01200693100690842,1,0.08748393505811691,1,0.003491053357720375,1,0.0005631641834042966,1,-0.0001587952428963035,1
1773072555550760192,-0.01475194375962019,1,-0.01381157245486975,1,0.09677514433860779,1,0.004192343447357416,1,-5.481923653860576e-05,1,-0.000297984282951802,1
1773072555561047040,-0.01203483063727617,1,-0.01918471418321133,1,0.08861026912927628,1,0.004598695319145918,1,-0.0002057265228359029,1,-0.0002900183317251503,1
1773072555571235072,-0.006878363899886608,1,-0.02547655999660492,1,0.06984741240739822,1,0.004122075624763966,1,-0.0006277860375121236,1,-0.000622785126324743,1
1773072555581324800,-0.00247096479870379,1,-0.02750875242054462,1,0.04928747937083244,1,0.001865631900727749,1,-0.0002160688163712621,1,-0.0006440608412958682,1
1773072555591319040,-0.00031366923940368,1,-0.03058907575905323,1,0.03733031824231148,1,-0.002358397236093879,1,0.0005840669618919492,1,-0.0009153391001746058,1
1773072555601216768,0.003090131562203169,1,-0.01418668776750565,1,0.03059216402471066,1,-0.006493734661489725,1,0.0009402427822351456,1,-0.0006894184043630958,1
1773072555611019008,0.01620645262300968,1,0.005517222452908754,1,0.03419896215200424,1,-0.008161640726029873,1,0.001460538362152874,1,-0.0005575430695898831,1
1773072555620729856,0.02780420705676079,1,0.0147891603410244,1,0.04644729942083359,1,-0.008549503982067108,1,0.001354908454231918,1,-0.0005132653750479221,1
1773072555630347776,0.03034079447388649,1,0.01695865206420422,1,0.06250897794961929,1,-0.006434605456888676,1,0.0008056719088926911,1,-0.0001681663852650672,1
1773072555639873280,0.02456068061292171,1,0.02839157357811928,1,0.06095873937010765,1,-0.002983649959787726,1,-0.0003498700389172882,1,0.0001426880335202441,1
1773072555649307392,0.0202091746032238,1,0.02147690393030643,1,0.04148600995540619,1,0.001530995592474937,1,-0.001561025739647448,1,0.0003518576268106699,1
1773072555658650624,0.01356737688183784,1,0.01753355003893375,1,0.01622601971030235,1,0.005478494334965944,1,-0.002368950750678778,1,0.000249378674197942,1
1773072555668798976,0.0001132481265813112,1,0.008539567701518536,1,0.0009145897347480059,1,0.00722103426232934,1,-0.002472780412063003,1,0.0001776165154296905,1
1773072555679443968,-0.007279723417013884,1,-0.004994319286197424,1,-0.003027347614988685,1,0.0058932825922966,1,-0.001840650336816907,1,-8.273897401522845e-05,1
1773072555689988608,-0.01289177685976028,1,-0.002069450449198484,1,-0.004199589602649212,1,0.002234029117971659,1,-0.0004164999409113079,1,-0.000197150293388404,1
1773072555700433152,-0.01340351346880198,1,0.0002666720538400114,1,-0.002332129050046206,1,-0.0008002237300388515,1,0.0001866694947239012,1,-0.0003693798207677901,1
1773072555710779904,-0.01141623221337795,1,0.004771216306835413,1,0.008538655936717987,1,-0.00265694665722549,1,0.0008182157180272043,1,-0.0005676266737282276,1
1773072555721027840,-0.008498200215399265,1,0.01145029626786709,1,0.03237064555287361,1,-0.004161272197961807,1,0.00160208554007113,1,-0.001020460389554501,1
1773072555731177472,-0.009554123505949974,1,0.01309412717819214,1,0.05077039822936058,1,-0.005332828499376774,1,0.001561951241455972,1,-0.001000550109893084,1
1773072555741234944,-0.005969015415757895,1,0.01294635329395533,1,0.05526901409029961,1,-0.005890095606446266,1,0.0005832454771734774,1,-0.00106999755371362,1
1773072555751196416,0.00299539091065526,1,0.02974122017621994,1,0.04380562528967857,1,-0.004716764204204082,1,-0.0001023994846036658,1,-0.001097163883969188,1
1773072555761062400,-0.002129896078258753,1,0.0296377819031477,1,0.02814917638897896,1,-0.002076182281598449,1,-0.001299938536249101,1,-0.001046141027472913,1
1773072555770833920,-0.01555061619728804,1,0.02546300739049911,1,0.02436855621635914,1,0.001579667907208204,1,-0.002349738730117679,1,-0.0005051611224189401,1
1773072555780511232,-0.02114195562899113,1,0.01624687574803829,1,0.02115441858768463,1,0.00413150480017066,1,-0.002384585328400135,1,-0.0002286836243001744,1
1773072555790094592,-0.01803426630795002,1,0.007252112962305546,1,0.02002990245819092,1,0.004317936487495899,1,-0.001619952614419162,1,0.000146200240124017,1
1773072555799584256,-0.02254799008369446,1,-0.005910892505198717,1,0.0249032024294138,1,0.003058562520891428,1,-0.0005375490873120725,1,0.0002045565634034574,1
1773072555808982784,-0.02415045350790024,1,-0.006758350413292646,1,0.03302537649869919,1,0.0003340920666232705,1,0.0008809755672700703,1,4.621930202119984e-06,1
1773072555818288128,-0.01831655018031597,1,-0.003706893650814891,1,0.04202922061085701,1,-0.002174350898712873,1,0.001905551878735423,1,-0.0002976246469188482,1
1773072555829021184,-0.01538374647498131,1,0.005944851785898209,1,0.04992591589689255,1,-0.003490814240649343,1,0.002482573036104441,1,-0.0004524571704678237,1
1773072555839653888,-0.01107669714838266,1,0.01451043970882893,1,0.05601084977388382,1,-0.00290977768599987,1,0.002046378795057535,1,-0.0003938428126275539,1
1773072555850187520,-0.009095155633985996,1,0.02498997002840042,1,0.0547497496008873,1,-0.0009630545391701162,1,0.00154487940017134,1,-0.0001275179529329762,1
1773072555860627712,-0.01269444357603788,1,0.02464125864207745,1,0.05476000159978867,1,0.001675717649050057,1,0.0006462183082476258,1,-0.0001024907251121476,1
1773072555870968576,-0.00997554324567318,1,0.01722732372581959,1,0.05568456277251244,1,0.003607537597417831,1,-0.0002957925316877663,1,-3.049044971703552e-05,1
1773072555881211392,-0.00785038061439991,1,0.007165913004428148,1,0.04483558982610703,1,0.004090629518032074,1,-0.0006884537870064378,1,7.334029942285269e-05,1
1773072555891356928,-0.004892159719020128,1,-0.001835861708968878,1,0.03421961888670921,1,0.002943157218396664,1,-0.000672244350425899,1,8.824044198263437e-05,1
1773072555901406976,-0.01952431164681911,1,-0.004008033778518438,1,0.03343246877193451,1,0.001647670404054224,1,-0.0004514035535976291,1,-2.623019099701196e-06,1
1773072555911359744,-0.0277025830000639,1,-0.0004090492730028927,1,0.02764225006103516,1,-0.0002876805083360523,1,0.0003452422679401934,1,6.225466495379806e-05,1
1773072555921236992,-0.007417321670800447,1,0.002662797225639224,1,0.01679707504808903,1,-0.001066951313987374,1,0.0007049712003208697,1,-0.0001368381490465254,1
1773072555931026688,0.009969520382583141,1,-0.002351109869778156,1,0.009686059318482876,1,-0.0008338661282323301,1,0.0005897340597584844,1,-0.0001580069656483829,1
1773072555940722688,0.009000419639050961,1,-0.005726165138185024,1,0.02556070312857628,1,-0.000197400149772875,1,0.0006526398938149214,1,-0.0001460863568354398,1
1773072555950326016,0.003671610960736871,1,-0.00743273226544261,1,0.04064623638987541,1,-0.0004209759645164013,1,0.0004113011818844825,1,-0.0003374385996721685,1
1773072555959836928,0.01084688119590282,1,-0.005740412510931492,1,0.04152746126055717,1,-0.0002375334006501362,1,-0.0002177634742110968,1,-0.0004884835216216743,1
1773072555969256448,0.01554646901786327,1,-0.005336624104529619,1,0.03441335260868073,1,0.0004246525641065091,1,-0.0003000347642228007,1,-0.000288659444777295,1
1773072555978733056,0.01400155853480101,1,-0.01100620348006487,1,0.03309176117181778,1,0.001498855766840279,1,-0.0002493489882908762,1,-0.000368849141523242,1
1773072555989438720,0.01726599596440792,1,-0.01315431483089924,1,0.0412079319357872,1,0.001499890699051321,1,-0.0002595701953396201,1,-0.0003492742544040084,1
1773072556000041728,0.01573731750249863,1,-0.005277851596474648,1,0.04061044752597809,1,0.0003061099268961698,1,-3.32696654368192e-05,1,-0.0002208951336797327,1
1773072556010548736,0.0159873366355896,1,-0.004899755120277405,1,0.04379013925790787,1,-0.0008906168513931334,1,-8.979479025583714e-05,1,-0.0002778119232971221,1
1773072556020955136,0.01541963964700699,1,-0.001549956272356212,1,0.04977962374687195,1,-0.001649254467338324,1,0.0002127939369529486,1,-0.00035499592195265,1
1773072556031260928,0.0111320624127984,1,0.004244857002049685,1,0.05701567605137825,1,-0.001608309801667929,1,7.503308006562293e-05,1,-7.111641752999276e-05,1
1773072556041468928,0.006558746099472046,1,0.004885059781372547,1,0.06081342697143555,1,-0.0009165973751805723,1,-9.647680417401716e-05,1,0.0001499053032603115,1
1773072556051577856,0.00516402954235673,1,0.01568024978041649,1,0.0554957240819931,1,-9.672730811871588e-06,1,-0.0006177201285026968,1,0.0001562087272759527,1
1773072556061591296,0.003044289303943515,1,0.01228541322052479,1,0.04651870578527451,1,0.0008759014308452606,1,-0.0007298119598999619,1,0.000446822406956926,1
1773072556071507712,-0.008150225505232811,1,0.010127117857337,1,0.03134980425238609,1,0.0002572499797679484,1,-0.0009034660761244595,1,0.0004119485383853316,1
1773072556081329152,-0.01805791817605495,1,0.01589551381766796,1,0.01299265120178461,1,-0.000497691216878593,1,-0.0008751529967412353,1,0.0004925907123833895,1
1773072556091065856,-0.02678654715418816,1,0.02047616802155972,1,-0.003449810203164816,1,-0.00123606133274734,1,-0.0008608963107690215,1,0.0004356460412964225,1
1773072556100710912,-0.02909101359546185,1,0.02341779135167599,1,-0.01561479922384024,1,-0.0007867782842367887,1,-0.0003637031186372042,1,0.0003288173174951226,1
1773072556110265088,-0.02196348644793034,1,0.02691184170544147,1,-0.01088850945234299,1,-0.0006867704214528203,1,0.000336553348461166,1,0.0002053595089819282,1
1773072556119728128,-0.0198002215474844,1,0.02727874927222729,1,0.002440028823912144,1,-0.0003256105119362473,1,0.0005940906121395528,1,0.0002280912885908037,1
1773072556129100288,-0.02519066445529461,1,0.02234320901334286,1,0.01703672111034393,1,0.0005742782377637923,1,0.0006613443256355822,1,0.0001378806045977399,1
1773072556138827776,-0.02391569316387177,1,0.01789804734289646,1,0.02733346447348595,1,0.001652966602705419,1,0.0007901007193140686,1,-0.0004252773069310933,1
1773072556149497600,-0.0196016114205122,1,0.01000736653804779,1,0.04001065716147423,1,0.002711299108341336,1,0.0007793370168656111,1,-0.0001375587016809732,1
1773072556160067072,-0.01943060196936131,1,0.003704277100041509,1,0.04798199608922005,1,0.002219608752056956,1,0.0008609617361798882,1,-0.0001670686178840697,1
1773072556170536192,-0.02048621326684952,1,-0.001452480908483267,1,0.05114774405956268,1,0.001388013595715165,1,0.0008836387423798442,1,-0.000207846867851913,1
1773072556180910848,-0.01176639087498188,1,-0.01103951130062342,1,0.04792465642094612,1,0.0003557316376827657,1,0.0008756123716011643,1,-0.0002613443939480931,1
1773072556191187456,0.001603369833901525,1,-0.01452516485005617,1,0.05213139578700066,1,-0.0002582100278232247,1,0.0007990375743247569,1,-4.626972440746613e-05,1
1773072556201366784,0.00587918795645237,1,-0.01839295588433743,1,0.06113273650407791,1,-0.0006692733732052147,1,0.0004049452836625278,1,5.127953772898763e-05,1
1773072556211449600,0.001071948907338083,1,-0.0169216450303793,1,0.07071293145418167,1,-0.0003086405922658741,1,-4.093180905329064e-05,1,2.654981108207721e-05,1
1773072556221435392,0.002399004297330976,1,-0.01808689534664154,1,0.07419209182262421,1,0.0002771187573671341,1,-8.001008973224089e-05,1,9.892003436107188e-05,1
1773072556231324416,0.006694497540593147,1,-0.01855907402932644,1,0.07152823358774185,1,0.001033654203638434,1,-0.0002081354614347219,1,-1.51037129398901e-05,1
1773072556241126912,0.009758912026882172,1,-0.0178998876363039,1,0.06160718947649002,1,0.0006603012443520129,1,-0.000293655350105837,1,2.475422661518678e-05,1
1773072556250853888,0.005991463549435139,1,-0.01460883766412735,1,0.04488284513354301,1,-0.0001661767164478078,1,-0.0001704919268377125,1,0.000109897751826793,1
1773072556260485376,0.002513703424483538,1,-0.005583793390542269,1,0.02734295092523098,1,-0.0008969245245680213,1,-0.0001865484664449468,1,0.0001463068911107257,1
1773072556270023424,-0.001479795551858842,1,0.002473107539117336,1,0.01333151571452618,1,-0.001581749762408435,1,-0.000265105307335034,1,0.0003072169201914221,1
1773072556279469056,-0.001192989060655236,1,0.009385094046592712,1,0.005224674474447966,1,-0.001527324784547091,1,6.523521733470261e-05,1,0.0003115089784841985,1
1773072556288821760,-0.002722207689657807,1,0.01173909567296505,1,0.007642836775630713,1,-0.001342114992439747,1,0.0003153180587105453,1,0.0002550240606069565,1
1773072556299120384,-0.008600613102316856,1,0.01397168170660734,1,0.01708283275365829,1,-0.0009193134028464556,1,7.847767847124487e-05,1,0.000331021350575611,1
1773072556309763840,-0.006663422100245953,1,0.01906684972345829,1,0.02302599139511585,1,-0.0008762329234741628,1,-0.0002355488832108676,1,0.0003220731159672141,1
1773072556320303104,-0.00721075339242816,1,0.01868308894336224,1,0.02394690550863743,1,-0.0003477690042927861,1,-0.0005692282575182617,1,0.0004756251582875848,1
1773072556330738944,-0.0114992018789053,1,0.01520841382443905,1,0.02339844219386578,1,0.0001791718823369592,1,-0.0007192324846982956,1,0.0003189941053278744,1
1773072556341073664,-0.02013317309319973,1,0.01344715990126133,1,0.02401946298778057,1,0.0007181324763223529,1,-0.0009939754381775856,1,0.000213174571399577,1
1773072556351308544,-0.02679070085287094,1,0.01192419230937958,1,0.02254417538642883,1,0.0002412442408967763,1,-0.0009439050918444991,1,0.000124524740385823,1
1773072556361443584,-0.02406196296215057,1,0.01244989968836308,1,0.01697317510843277,1,-0.0005017825751565397,1,-0.0004642573476303369,1,-0.000163248143508099,1
1773072556371487232,-0.0210597962141037,1,0.01316567976027727,1,0.01329421252012253,1,-0.0007133148028515279,1,2.08980891329702e-05,1,-0.0002007331931963563,1
1773072556381453056,-0.02218073792755604,1,0.01216416247189045,1,0.01874383725225925,1,-0.001144855166785419,1,0.0006033219397068024,1,-0.0001074704705388285,1
1773072556391321600,-0.02577265165746212,1,0.01417307741940022,1,0.02780758962035179,1,-0.001076851389370859,1,0.0006333740893751383,1,-0.0003985848452430218,1
1773072556401094144,-0.01775888353586197,1,0.01767736487090588,1,0.03385471925139427,1,-0.0009174114093184471,1,0.001134980469942093,1,-0.0004337285936344415,1
1773072556410771712,-0.01088094431906939,1,0.01992316730320454,1,0.03771839663386345,1,-0.0005076310480944812,1,0.001171555835753679,1,-0.0005518789985217154,1
1773072556420355584,-0.004701253492385149,1,0.0206781905144453,1,0.04310746863484383,1,0.0005012142937630415,1,0.0007894535665400326,1,-0.0002740963245742023,1
1773072556429845760,-0.005163148045539856,1,0.01666494831442833,1,0.04651079699397087,1,0.001135642291046679,1,0.0002970767964143306,1,-0.0003585027880035341,1
1773072556439246080,0.0002532261423766613,1,0.01635163463652134,1,0.04687542468309402,1,0.001549044973216951,1,0.0003050884406547993,1,-0.0002615895355120301,1
1773072556448556544,0.005449168384075165,1,0.008916298858821392,1,0.04566096886992455,1,0.001418886473402381,1,0.0002193213585997,1,-0.00034126709215343,1
1773072556459285248,0.008176933974027634,1,0.005584903061389923,1,0.04802196100354195,1,0.001336347660981119,1,-3.429572825552896e-05,1,-0.0003762031265068799,1
1773072556469912832,0.004120409954339266,1,0.005251846741884947,1,0.04852763935923576,1,0.0009497102000750601,1,0.0003240287769585848,1,-0.0002516749082133174,1
1773072556480436736,0.003165047848597169,1,0.001005809870548546,1,0.05238666757941246,1,0.001006714999675751,1,0.0005467223818413913,1,-0.0002776491455733776,1
1773072556490859776,0.01239626854658127,1,0.00122925266623497,1,0.0517800934612751,1,0.0006073996191844344,1,0.0005030158790759742,1,-0.0001678151747910306,1
1773072556501187840,0.01637567020952702,1,0.003706215880811214,1,0.04917934164404869,1,0.000735100416932255,1,-4.667563189286739e-06,1,5.581996447290294e-05,1
1773072556511427328,0.01377128530293703,1,0.004147574305534363,1,0.04830219224095345,1,0.0003786476154346019,1,-0.0003167899849358946,1,-8.61027292557992e-05,1
1773072556521566976,0.006877698935568333,1,0.006793589796870947,1,0.04526770487427711,1,0.0004685304884333163,1,-0.0002090979978675023,1,0.0001680106506682932,1
1773072556531607296,0.003670470556244254,1,0.008739674463868141,1,0.03919526189565659,1,0.001135441125370562,1,-0.001000542659312487,1,0.0002123389713233337,1
1773072556541550336,-0.001199312508106232,1,0.00831303745508194,1,0.03087650611996651,1,0.001282760873436928,1,-0.001018065493553877,1,-0.0001192888521472923,1
1773072556551395840,-0.004957786295562983,1,0.002046840963885188,1,0.02668843418359756,1,0.001283325720578432,1,-0.0007612035260535777,1,4.467945836950094e-05,1
1773072556561145856,-0.007727732416242361,1,0.001319122035056353,1,0.02712050266563892,1,0.001281535951420665,1,-0.0009775435319170356,1,0.0001342735486105084,1
1773072556570801920,-0.008804037235677242,1,0.0002113597874995321,1,0.02363978326320648,1,0.0004387633816804737,1,-0.001042305608280003,1,-4.549631557893008e-05,1
1773072556580363008,-0.01107739377766848,1,0.001563308062031865,1,0.02162609063088894,1,0.0002396509080426767,1,-0.0009444871102459729,1,0.0001558552321512252,1
1773072556589830912,-0.013160465285182,1,-0.002406928222626448,1,0.02274330332875252,1,0.0005676918081007898,1,-0.0007917226757854223,1,0.0001588681479915977,1
1773072556599206400,-0.01215868536382914,1,-0.004911397118121386,1,0.02924869582056999,1,0.0002239636669401079,1,-0.0001672758371569216,1,-0.0002100388373946771,1
1773072556608640768,-0.007497564423829317,1,-0.006131262984126806,1,0.03384649381041527,1,-0.0002775643661152571,1,0.0002998125564772636,1,-0.0002998575801029801,1
1773072556619342336,-0.00803727749735117,1,-0.00508669950067997,1,0.04100334644317627,1,-0.0005240209866315126,1,-1.676880856393836e-05,1,0.0002113841183017939,1
1773072556629944576,-0.005210133269429207,1,-0.005032720044255257,1,0.04346408322453499,1,-0.0009709114674478769,1,-8.36106191854924e-05,1,0.000115001093945466,1
1773072556640445440,-0.003075310261920094,1,-0.00448954850435257,1,0.04156700149178505,1,-0.0001926414552144706,1,-0.0002251496189273894,1,0.0003630908904597163,1
1773072556650843904,-0.003761150175705552,1,-0.007918458431959152,1,0.0422336757183075,1,0.0003397272957954556,1,-0.0003246174892410636,1,0.0003510101232677698,1
1773072556661141504,-0.005048668477684259,1,-0.005886835977435112,1,0.04078299924731255,1,0.0006906816852279007,1,-0.0005519255064427853,1,0.0001723341993056238,1
1773072556671338752,-0.008831210434436798,1,-0.002074896357953548,1,0.03453601524233818,1,0.0003822079452220351,1,-0.000527002674061805,1,0.0001542638929095119,1
1773072556681435392,-0.01619583554565907,1,-0.001096727210097015,1,0.02804647572338581,1,-0.0002974018279928714,1,-0.000257735897321254,1,0.0001558979565743357,1
1773072556691436288,-0.01758347637951374,1,0.0007361707394011319,1,0.02284855768084526,1,-0.0006936188437975943,1,2.549364035075996e-05,1,6.252405000850558e-05,1
1773072556701340160,-0.01855523325502872,1,-0.0009007006301544607,1,0.02178643830120564,1,-0.001577481394633651,1,0.0002271538251079619,1,-0.0001060577196767554,1
1773072556711148032,-0.01208450552076101,1,0.0008229867089539766,1,0.02411213889718056,1,-0.001840490847826004,1,0.0004168844316154718,1,5.868358857696876e-05,1
1773072556720859392,-0.01110692881047726,1,0.00294124917127192,1,0.03102734498679638,1,-0.00185022410005331,1,0.0003701778769027442,1,-0.0001406226510880515,1
1773072556730481920,-0.01357053965330124,1,0.004040878731757402,1,0.03884630650281906,1,-0.001910174381919205,1,0.0003435495891608298,1,-0.0004179268144071102,1
1773072556740059648,-0.009503988549113274,1,0.004953126888722181,1,0.04383924975991249,1,-0.001599531387910247,1,0.0005431468598544598,1,-0.0002719569602049887,1
1773072556749547264,-0.009058451279997826,1,0.006164939142763615,1,0.04591764882206917,1,-0.001229577581398189,1,0.0008121912833303213,1,-0.0005711705889552832,1
1773072556758942208,-0.01243113167583942,1,0.006655067671090364,1,0.04928689822554588,1,-0.001237147371284664,1,0.0004377749282866716,1,-0.0003602491342462599,1
1773072556768833024,-0.008639832027256489,1,0.007628261111676693,1,0.04715905711054802,1,-0.001435279031284153,1,-0.0001048069971147925,1,-0.0004682141589000821,1
1773072556779504384,-0.006535794585943222,1,0.01224057096987963,1,0.04082569107413292,1,-0.001359588699415326,1,-0.0004834514111280441,1,-0.0002623816253617406,1
1773072556790073856,-0.008885213173925877,1,0.01287148892879486,1,0.03975583985447884,1,-0.001176609075628221,1,-0.0004636711382772774,1,-0.0003597660106606781,1
1773072556800541952,-0.006923039443790913,1,0.01650741882622242,1,0.04659640416502953,1,-0.0009762282716110349,1,-0.0002952785871457309,1,-0.0003908105718437582,1
1773072556810916864,-0.004507644567638636,1,0.02151183784008026,1,0.04461647942662239,1,-0.0008636889397166669,1,-7.780886517139152e-05,1,-0.0003992329293396324,1
1773072556821201152,0.0008970219641923904,1,0.01900853589177132,1,0.04436891153454781,1,0.0003295089118182659,1,-4.094652467756532e-06,1,-2.713069989113137e-06,1
1773072556831388672,0.0001771679671946913,1,0.01531090866774321,1,0.04841197282075882,1,0.001239803270436823,1,-5.763652006862685e-05,1,-0.0001020651761791669,1
1773072556841483520,0.004529681522399187,1,0.0163057204335928,1,0.04915861040353775,1,0.001634924323298037,1,-2.610813317005523e-05,1,-0.0003571201232261956,1
1773072556851483648,0.009518145583570004,1,0.0140518993139267,1,0.04179173707962036,1,0.001329584745690227,1,-0.0003262954414822161,1,-0.0002785520337056369,1
1773072556861388800,0.0119079789146781,1,0.009695956483483315,1,0.03234109282493591,1,0.0009077976574189961,1,-0.0002238237502751872,1,-0.0002663948107510805,1
1773072556871199744,0.009504097513854504,1,0.006782673299312592,1,0.02781839109957218,1,1.516423799330369e-05,1,-9.964655328076333e-05,1,-0.0001562001270940527,1
1773072556880923136,0.009134872816503048,1,0.004064416512846947,1,0.02316050976514816,1,-0.0008790349820628762,1,-0.0002608967770356685,1,-0.0003301159886177629,1
1773072556890553600,0.01122915279120207,1,0.008478555828332901,1,0.01525137200951576,1,-0.001440972439013422,1,-0.0004079155332874507,1,-0.0003790489572566003,1
1773072556900091136,0.01217313203960657,1,0.01069943327456713,1,0.009245025925338268,1,-0.001045528682880104,1,-0.0005256336880847812,1,-0.0002682999765966088,1
1773072556909536000,0.006843879353255033,1,0.01508305221796036,1,0.00650305300951004,1,0.000220099464058876,1,-0.000852467434015125,1,-0.0002058139361906797,1
1773072556918888192,-0.0003285573911853135,1,0.009401935152709484,1,0.008201370015740395,1,0.001008295570500195,1,-0.001149891642853618,1,0.0001110993180191144,1
1773072556929184768,-0.004998846910893917,1,0.01375432126224041,1,0.005529844202101231,1,0.001293510780669749,1,-0.0008859227527864277,1,0.0004094401374459267,1
1773072556939823872,-0.01027995534241199,1,0.01862154901027679,1,0.002217347733676434,1,0.001335031003691256,1,-0.0008323956280946732,1,0.000466681201942265,1
1773072556950361856,-0.01266798283904791,1,0.01492378395050764,1,0.0003899862058460712,1,0.001506201107986271,1,-0.0006072729011066258,1,0.000590462819673121,1
1773072556960796672,-0.01720761880278587,1,0.01595615781843662,1,0.005433910060673952,1,0.001691340701654553,1,-0.0005137850530445576,1,0.0004025804228149354,1
1773072556971130112,-0.02077975124120712,1,0.01271708868443966,1,0.01596389338374138,1,0.001577525865286589,1,-1.831940608099103e-05,1,0.0003723348490893841,1
1773072556981364992,-0.0238309521228075,1,0.01124815456569195,1,0.03256387263536453,1,0.000894227356184274,1,0.000440571951912716,1,0.0001726702466839924,1
1773072556991498752,-0.02568872645497322,1,0.009544647298753262,1,0.04367304965853691,1,0.0006692279712297022,1,0.0001545738196000457,1,0.0001720510044833645,1
1773072557001532160,-0.02187609113752842,1,0.008471298962831497,1,0.05234448239207268,1,0.0005778869381174445,1,0.0001530627341708168,1,0.0002353449381189421,1
1773072557011478016,-0.02278045006096363,1,0.009165466763079166,1,0.05844440311193466,1,0.0005781190120615065,1,-6.083690823288634e-05,1,0.0001706697221379727,1
1773072557021329664,-0.02237599715590477,1,0.004103043116629124,1,0.06606888771057129,1,0.0008431761525571346,1,-0.000546626397408545,1,0.0003656802582554519,1
1773072557031085568,-0.01572831720113754,1,-0.002004473470151424,1,0.06393972784280777,1,0.001032986911013722,1,-0.0007379223243333399,1,0.0002299252228112891,1
1773072557040746496,-0.009685542434453964,1,-0.004984835628420115,1,0.06020793318748474,1,0.001204741653054953,1,-0.0006360121187753975,1,7.691906648688018e-05,1
1773072557050313472,-0.007942352443933487,1,-0.01044574193656445,1,0.05952039733529091,1,0.001449872390367091,1,-0.0004044742381665856,1,-1.202046405524015e-06,1
1773072557059787008,-0.00943096075206995,1,-0.01485372986644506,1,0.06455984711647034,1,0.0009831495117396116,1,-0.0002906096051447093,1,0.0001098135107895359,1
1773072557069169664,-0.004557568114250898,1,-0.01720892637968063,1,0.06792238354682922,1,0.0002989343192894012,1,0.0001061107395798899,1,0.0001647610333748162,1
1773072557078460672,0.001372864004224539,1,-0.01847674883902073,1,0.0707932785153389,1,0.0005161971203051507,1,0.0003229116555303335,1,7.763232861179858e-05,1
1773072557089190400,0.006861623842269182,1,-0.01827912591397762,1,0.07266903668642044,1,0.0004694218514487147,1,0.0007151278550736606,1,-0.0001164156419690698,1
1773072557099816704,0.01060953736305237,1,-0.0161649826914072,1,0.06714825332164764,1,0.0003077453875448555,1,0.001086604665033519,1,0.0001283492892980576,1
1773072557110339840,0.01118815317749977,1,-0.009445500560104847,1,0.05730236694216728,1,0.0003066664794459939,1,0.0007218553218990564,1,-8.579301356803626e-05,1
1773072557120760064,0.01021332573145628,1,-0.006786070298403502,1,0.04782181605696678,1,0.0002990086504723877,1,0.0007264154264703393,1,7.133733743103221e-05,1
1773072557131085312,0.006703008897602558,1,-0.005349969491362572,1,0.03681813925504684,1,0.0003659592475742102,1,0.0003193405573256314,1,-0.000128504354506731,1
1773072557141312512,0.009450417943298817,1,-0.00653514638543129,1,0.02672768197953701,1,-0.0002197993453592062,1,6.956565630389377e-05,1,-0.0002942322171293199,1
1773072557151439872,0.009520819410681725,1,-0.01141700521111488,1,0.02165655791759491,1,-0.000702567514963448,1,-8.442228136118501e-05,1,-0.0003092723782174289,1
1773072557161467904,0.004625408910214901,1,-0.01525481324642897,1,0.02125945873558521,1,-0.00115995213855058,1,0.00016237489762716,1,0.0002664560452103615,1
1773072557171398912,-0.001747751608490944,1,-0.009628721512854099,1,0.02087672241032124,1,-0.002249701879918575,1,8.373767195735127e-05,1,0.0001297263224842027,1
1773072557181231872,-0.00712523004040122,1,-0.002161905169487,1,0.01862882077693939,1,-0.003073605708777905,1,0.0001892402215162292,1,2.754206070676446e-05,1
1773072557190970368,-0.01020387094467878,1,0.009273338131606579,1,0.01412391476333141,1,-0.003584325546398759,1,0.0003441873122937977,1,-0.0001853516150731593,1
1773072557200613632,-0.01235293224453926,1,0.01575279794633389,1,0.006194933317601681,1,-0.003047242294996977,1,0.0001344724005321041,1,-0.0001333373656962067,1
1773072557210163200,-0.01363560277968645,1,0.02350639365613461,1,-7.718720007687807e-05,1,-0.001996309729292989,1,0.0001367084769299254,1,-3.199553611921147e-05,1
1773072557219618816,-0.01582086272537708,1,0.02866603806614876,1,-0.00593773927539587,1,-0.0009166871896013618,1,9.637486073188484e-06,1,-0.0002103865845128894,1
1773072557228982016,-0.01743987947702408,1,0.02878849767148495,1,-0.008715681731700897,1,0.0004694341914728284,1,0.0003308961458969861,1,-0.0003646767581813037,1
1773072557238405888,-0.01918949000537395,1,0.0230668094009161,1,-0.002583635505288839,1,0.001323679578490555,1,0.0005974050145596266,1,-0.0002927947789430618,1
1773072557249107200,-0.016398835927248,1,0.02191903255879879,1,0.01026701647788286,1,0.001683277543634176,1,0.0002714413567446172,1,-0.0003273734473623335,1
1773072557259707392,-0.01663382910192013,1,0.01821902766823769,1,0.02515682019293308,1,0.0009921244345605373,1,0.0003321688272990286,1,-0.0001152914919657633,1
1773072557270209024,-0.01588952168822289,1,0.01169698499143124,1,0.03676581010222435,1,0.0002642684557940811,1,0.0004837862798012793,1,-0.0001189912727568299,1
1773072557280611072,-0.01271823514252901,1,0.005189451389014721,1,0.04746759682893753,1,-0.000636870798189193,1,0.0002622743195388466,1,-0.0002350572613067925,1
1773072557290916864,-0.00875953771173954,1,0.001840875716879964,1,0.05353864282369614,1,-0.001397270360030234,1,0.0004615033976733685,1,-0.0005204563494771719,1
1773072557301123840,-0.003125249873846769,1,0.002299814485013485,1,0.05078043043613434,1,-0.001855528680607677,1,0.0006360539118759334,1,-0.0004081475490238518,1
1773072557311235072,-0.005210224539041519,1,0.001603061915375292,1,0.04714220762252808,1,-0.001604641787707806,1,0.0004705954343080521,1,-0.000115324066428002,1
1773072557321250304,-0.003074266947805882,1,0.005880181677639484,1,0.0455113910138607,1,-0.0003990709665231407,1,0.0002254044229630381,1,8.296203304780647e-06,1
1773072557331174912,-0.001801455742679536,1,0.002839102409780025,1,0.05012490972876549,1,0.0003337085654493421,1,1.211294147651643e-06,1,7.694239320699126e-05,1
1773072557341005312,0.005202596075832844,1,0.00532497139647603,1,0.05268298834562302,1,0.000715815753210336,1,-0.0002387911081314087,1,9.8694275948219e-05,1
1773072557350740992,0.003729337127879262,1,0.005527666304260492,1,0.05665270611643791,1,0.0002287437964696437,1,0.0001937545166583732,1,5.88602342759259e-05,1
1773072557360383232,0.001996510662138462,1,0.009932474233210087,1,0.05528980121016502,1,-0.0001641187263885513,1,0.0001836800511227921,1,7.104944961611181e-05,1
1773072557369932800,0.003850134322419763,1,0.01409994810819626,1,0.05155827477574348,1,-0.000480214599519968,1,0.0004482352815102786,1,5.526311360881664e-05,1
1773072557379389952,0.006506694946438074,1,0.0183930080384016,1,0.04757219180464745,1,-0.0003801846760325134,1,0.0005649504601024091,1,0.0001836988958530128,1
1773072557388758016,0.009799489751458168,1,0.01885361410677433,1,0.0423763170838356,1,-0.0002057352103292942,1,0.0005230878014117479,1,0.000159424525918439,1
1773072557398636800,0.007858731783926487,1,0.01821679808199406,1,0.04401032254099846,1,0.0005628635408356786,1,0.0001763881300576031,1,0.0003766195441130549,1
1773072557409306368,0.006875575520098209,1,0.01529768761247396,1,0.04056799411773682,1,0.000651584705337882,1,-0.000363705592462793,1,0.0003530295507516712,1
1773072557419875584,0.00388180511072278,1,0.009226597845554352,1,0.03701123967766762,1,0.00132592860609293,1,-0.0004542045353446156,1,0.0003036544949281961,1
1773072557430348800,-0.002378381788730621,1,0.004289441276341677,1,0.03763410076498985,1,0.001684935763478279,1,-0.0006246366538107395,1,0.0003934407141059637,1
1773072557440721664,-0.00409258808940649,1,-0.004570357967168093,1,0.03525230661034584,1,0.001162594300694764,1,-0.0008024859707802534,1,0.0003488590009510517,1
1773072557450994432,-0.003117511747404933,1,-0.007664110511541367,1,0.02940521389245987,1,0.0005504197324626148,1,-0.0007472148281522095,1,0.0003275708295404911,1
1773072557461169408,-0.006617230828851461,1,-0.008372591808438301,1,0.01948400773108006,1,-0.0001492856681579724,1,-0.0009824708104133606,1,0.000242320544202812,1
1773072557471246336,-0.008638416416943073,1,-0.007304324302822351,1,0.01127761788666248,1,-8.696835720911622e-06,1,-0.001300363685004413,1,9.558691817801446e-05,1
1773072557481224960,-0.01023414451628923,1,-0.006211661268025637,1,0.008257737383246422,1,0.0004803729243576527,1,-0.0006634416058659554,1,0.000241584304603748,1
1773072557491121664,-0.01336030568927526,1,-0.004938479512929916,1,0.007268553134053946,1,0.0009020651341415942,1,-0.0006021130830049515,1,0.0001854909642133862,1
1773072557500937216,-0.01621554605662823,1,-0.005560348276048899,1,0.0075532216578722,1,0.00129736412782222,1,-0.0008207151549868286,1,0.0001466186804464087,1
1773072557510657280,-0.0192635040730238,1,-0.006375223398208618,1,0.01390508282929659,1,0.0011537877144292,1,-0.0001801381877157837,1,9.100011811824515e-05,1
1773072557520283136,-0.01811022870242596,1,-0.004316615406423807,1,0.02276236563920975,1,0.0004556216008495539,1,-0.0001518119242973626,1,0.0002024860586971045,1
1773072557529815552,-0.01411291211843491,1,-0.004828637931495905,1,0.03155666962265968,1,-3.690530138555914e-05,1,3.768513488466851e-05,1,-8.33391968626529e-05,1
1773072557539254016,-0.01042942609637976,1,-0.006025807932019234,1,0.03978162258863449,1,-0.0006431833608075976,1,8.836217602947727e-05,1,-0.0003555275616236031,1
1773072557548600576,-0.01017900370061398,1,-0.009251476265490055,1,0.04518367350101471,1,-0.0009978417074307799,1,8.660885214339942e-05,1,-0.0002174629335058853,1
1773072557558897920,-0.009404012933373451,1,-0.006677440367639065,1,0.04987442865967751,1,-0.0006860751891508698,1,-3.516707511153072e-05,1,-0.0003325325669720769,1
1773072557569540864,-0.01278784871101379,1,-0.007187274750322104,1,0.05291258543729782,1,-0.0004755847912747413,1,0.0003956571745220572,1,-0.0002161901211366057,1
1773072557580083968,-0.0119013749063015,1,-0.003139116335660219,1,0.05137989297509193,1,-0.0007939140778034925,1,0.0004394545394461602,1,-0.0004470643762033433,1
1773072557590527744,-0.01126181147992611,1,-0.001476851059123874,1,0.04967167228460312,1,-0.0001304664328927174,1,0.0007543747196905315,1,-0.0003266129642724991,1
1773072557600877568,-0.01094888709485531,1,0.0007193086785264313,1,0.04529646784067154,1,-0.0003211461880709976,1,0.0002150579239241779,1,-0.0002754647575784475,1
1773072557611134976,-0.008728341199457645,1,0.004419280216097832,1,0.04286185652017593,1,-0.0003207617264706641,1,0.0001555096241645515,1,-0.0003714293416123837,1
1773072557621296384,-0.01166560500860214,1,0.008411026559770107,1,0.04114190489053726,1,-1.345542659692001e-05,1,0.0003756085061468184,1,-0.0002579638385213912,1
1773072557631361024,-0.009871325455605984,1,0.007832330651581287,1,0.04370813816785812,1,0.0001106056733988225,1,0.0006685503176413476,1,-0.0001669497432885692,1
1773072557641332736,-0.008629588410258293,1,0.008466845378279686,1,0.04175123944878578,1,-0.0003444520116318017,1,0.0006539705209434032,1,-3.870942600769922e-05,1
1773072557651209472,-0.008525187149643898,1,0.01036441512405872,1,0.04147516936063766,1,-0.00103465118445456,1,0.0009537130245007575,1,-3.212426963727921e-05,1
1773072557660993536,-0.005513296462595463,1,0.01237295661121607,1,0.03940356150269508,1,-0.001847023493610322,1,0.00143056339584291,1,5.318622424965724e-05,1
1773072557670696448,-0.001311660744249821,1,0.01673034392297268,1,0.03763705492019653,1,-0.002332519507035613,1,0.001186999608762562,1,-0.000109083775896579,1
1773072557680329216,0.001360041787847877,1,0.01836618036031723,1,0.0355190746486187,1,-0.002434954047203064,1,0.001213250448927283,1,-0.0001751897216308862,1
1773072557689870080,0.002210959093645215,1,0.01908820495009422,1,0.03399689123034477,1,-0.001852143090218306,1,0.0008175513939931989,1,-0.000259771040873602,1
1773072557699318016,0.003244976978749037,1,0.01961388438940048,1,0.03109917603433132,1,-0.0009396750829182565,1,0.0003397901309654117,1,-0.0002640672610141337,1
1773072557708675584,0.006743859499692917,1,0.01548102777451277,1,0.0321509875357151,1,-0.0001877491886261851,1,8.52565499371849e-05,1,-0.0002642013714648783,1
1773072557719402240,0.006540872156620026,1,0.01455779280513525,1,0.03111869655549526,1,0.0003098295419476926,1,-0.0004847350064665079,1,1.834647082432639e-05,1
1773072557730028032,0.003331881714984775,1,0.01192209403961897,1,0.02653959579765797,1,0.00103060610126704,1,-0.0008769518462941051,1,-0.0001402651832904667,1
1773072557740554752,-0.0009761230903677642,1,0.009495812468230724,1,0.02325080335140228,1,0.00109140551649034,1,-0.0006226605037227273,1,-0.0001966349955182523,1
1773072557750980864,0.001928235171362758,1,0.007996264845132828,1,0.02114233933389187,1,0.00107053155079484,1,-7.84159274189733e-05,1,-6.108464731369168e-05,1
1773072557761306624,0.004182568285614252,1,0.007312251720577478,1,0.01630335487425327,1,0.0009416168322786689,1,-0.0002141403238056228,1,-6.021269291522913e-05,1
1773072557771532544,-0.0004723984748125076,1,0.002888999413698912,1,0.01597224175930023,1,0.0009286254644393921,1,-0.0002853182377293706,1,8.441528916591778e-05,1
1773072557781658624,-0.002820380497723818,1,0.001234709401614964,1,0.01805747114121914,1,0.0004320433363318443,1,-0.0004682679718825966,1,0.0001328595535596833,1
1773072557791686144,-0.003510109381750226,1,-0.0003153309517074376,1,0.02968880906701088,1,0.0006334350910037756,1,-0.000723562145140022,1,0.000119791497127153,1
1773072557801619712,-0.002738379407674074,1,-0.004046418704092503,1,0.03607776761054993,1,0.0006439454155042768,1,-0.0004924291861243546,1,7.111130253178999e-05,1
1773072557811484928,-0.003624466713517904,1,-0.005165135953575373,1,0.03813665360212326,1,0.0003542127087712288,1,-0.0006681769154965878,1,-6.409577326849103e-05,1
1773072557821258240,-0.008612683042883873,1,-0.0008512666681781411,1,0.04064441472291946,1,0.0002550215576775372,1,-0.0004648138419725001,1,9.812510688789189e-05,1
1773072557830938112,-0.01418883632868528,1,-0.001572334906086326,1,0.04035083577036858,1,0.0003630210412666202,1,-0.0004275272658560425,1,-6.318563828244805e-05,1
1773072557840524544,-0.01219379808753729,1,-0.004063574131578207,1,0.0373351126909256,1,0.000420544994994998,1,-0.0004869603726547211,1,9.429166675545275e-05,1
1773072557850017536,-0.01084058918058872,1,0.002041083062067628,1,0.03480585291981697,1,0.0004551524762064219,1,-0.0003394762170501053,1,0.0002217826258856803,1
1773072557859417344,-0.01319555845111609,1,0.004234479740262032,1,0.03513207659125328,1,0.0008337611798197031,1,-0.0003922328469343483,1,0.0002361642254982144,1
1773072557868876032,-0.01649660989642143,1,0.004409212153404951,1,0.03861945867538452,1,0.0009078631992451847,1,-0.000481818278785795,1,-2.516863969503902e-05,1
1773072557879573504,-0.01360652036964893,1,0.003025420475751162,1,0.04172202572226524,1,0.001184499938972294,1,-0.0003535337164066732,1,0.0001046461547957733,1
1773072557890170880,-0.01248644664883614,1,-0.0002483032585587353,1,0.04401152580976486,1,0.001371286693029106,1,-0.0004502554947976023,1,0.0001391708647133783,1
1773072557900667392,-0.01213167142122984,1,0.001344032934866846,1,0.04747295752167702,1,0.001004064921289682,1,-1.836674346122891e-05,1,0.000194442123756744,1
1773072557911063808,-0.01059972029179335,1,0.002189721213653684,1,0.04757843539118767,1,0.0004657644894905388,1,0.0002204862685175613,1,0.0001427762326784432,1
1773072557921361152,-0.01036228984594345,1,0.004065764602273703,1,0.04503943398594856,1,-0.0002612053649500012,1,0.0003322531119920313,1,0.0001921067450894043,1
1773072557931559680,-0.00822251383215189,1,0.005157469771802425,1,0.04008964076638222,1,-0.0006032456876710057,1,0.0003487887443043292,1,-6.362806016113609e-05,1
1773072557941664768,-0.005954421125352383,1,0.01031843014061451,1,0.03624654188752174,1,-0.0005240537575446069,1,0.0002412683388683945,1,3.353029023855925e-05,1
1773072557951673088,-0.006425283849239349,1,0.01137435622513294,1,0.03529132902622223,1,-9.906108607538044e-05,1,-5.602596502285451e-05,1,-0.0001568520383443683,1
1773072557961585152,-0.006173320580273867,1,0.008535133674740791,1,0.03532898798584938,1,0.0007114169420674443,1,-0.0002383604878559709,1,-7.138574437703937e-05,1
1773072557971403264,-0.002500924281775951,1,0.005716700106859207,1,0.03543117269873619,1,0.0009004806634038687,1,-0.0003638180787675083,1,-8.72449018061161e-05,1
1773072557981126144,-0.004259472712874413,1,0.002189995255321264,1,0.03836079314351082,1,0.001362129114568233,1,-0.0004860058252234012,1,-0.0002329453127458692,1
1773072557990755072,-0.004038841463625431,1,-0.0006763310520909727,1,0.03514745086431503,1,0.001182050094939768,1,-0.0004716353141702712,1,-0.0003151160199195147,1
1773072558000293376,-0.0008783558150753379,1,-0.002644055057317019,1,0.0347052700817585,1,0.0006639861385338008,1,-0.0004592652549035847,1,-0.0002987926709465683,1
1773072558009740544,0.001742974855005741,1,-0.002626235596835613,1,0.03159024938941002,1,0.000531519646756351,1,0.0001535548071842641,1,-7.227734749903902e-05,1
1773072558019107840,0.002382539212703705,1,-0.002948537934571505,1,0.02756584249436855,1,-1.066611730493605e-06,1,0.0005545733729377389,1,-0.0001437186583643779,1
1773072558028979712,0.002530687721446157,1,-0.002334426855668426,1,0.02494501322507858,1,-0.0001744845940265805,1,0.000445951649453491,1,-7.143228140193969e-05,1
1773072558039646976,0.00194462132640183,1,0.0009582825587131083,1,0.02198973298072815,1,-0.000112226975033991,1,0.0004975377814844251,1,-8.98148282431066e-05,1
1773072558050214144,0.004418257623910904,1,0.0006807271856814623,1,0.02090167626738548,1,-2.573741221567616e-05,1,0.0008063631248660386,1,-0.0001056885375874117,1
1773072558060681984,0.004597522784024477,1,-0.0004780146409757435,1,0.02531725913286209,1,-0.0001627795718377456,1,0.0006551531841978431,1,3.820403071586043e-05,1
1773072558071046912,0.001526209525763988,1,-0.0005366240511648357,1,0.03073857724666595,1,-0.0003751224721781909,1,0.0005219833110459149,1,0.0001226648309966549,1
1773072558081310720,-0.004221663810312748,1,0.0002732735883910209,1,0.03612791374325752,1,-0.0008452725596725941,1,0.0002939713594969362,1,0.0001255612150998786,1
1773072558091475712,-0.00643823528662324,1,0.003149141324684024,1,0.03463602811098099,1,-0.0007543633109889925,1,0.0005214328411966562,1,-4.083787280251272e-05,1
1773072558101543424,-0.00737848412245512,1,0.008845733478665352,1,0.03632007911801338,1,-0.000813312188256532,1,0.0003612918371800333,1,6.823471267125569e-06,1
1773072558111514624,-0.008859946392476559,1,0.01000224426388741,1,0.03675795719027519,1,-0.0008872246253304183,1,0.0003166345122735947,1,0.0001166842994280159,1
1773072558121407744,-0.007884643971920013,1,0.01193034835159779,1,0.03804825246334076,1,-0.001252646557986736,1,0.0004807347140740603,1,8.46710754558444e-05,1
1773072558131211264,-0.005915545392781496,1,0.01259136758744717,1,0.03611902147531509,1,-0.00102021882776171,1,0.0004828540259040892,1,6.101480903453194e-05,1
1773072558140922112,-0.003311160020530224,1,0.01223758887499571,1,0.04091879352927208,1,-0.0002495152875781059,1,8.78643841133453e-05,1,0.0001373128761770204,1
1773072558150542848,-0.006135242059826851,1,0.009930850006639957,1,0.04817400872707367,1,0.0006816131644882262,1,-0.000107134626887273,1,0.0001176492805825546,1
1773072558160074496,-0.0100047355517745,1,0.007181297987699509,1,0.05482986196875572,1,0.001399179571308196,1,-0.0003662575327325612,1,0.000331830931827426,1
1773072558169515264,-0.01296776533126831,1,0.002903624670580029,1,0.05185476318001747,1,0.001646026270464063,1,-0.0003676251799333841,1,0.0004634328361134976,1
1773072558178867712,-0.0128577807918191,1,0.001326938276179135,1,0.04327002912759781,1,0.001133208745159209,1,-7.250105409184471e-05,1,0.0003523082123138011,1
1773072558189165824,-0.01044871564954519,1,-0.0005985532188788056,1,0.03706283867359161,1,0.0001014010558719747,1,-0.0001075420586857945,1,0.0002325573441339657,1
1773072558199805952,-0.009290312416851521,1,0.00130268617067486,1,0.03007956780493259,1,-0.0004721241712104529,1,6.833432416897267e-05,1,9.714764746604487e-05,1
1773072558210344192,-0.008409787900745869,1,0.00337311951443553,1,0.02535361051559448,1,-0.001129476586356759,1,0.0002495181979611516,1,-0.0002121752040693536,1
1773072558220786176,-0.005381924565881491,1,0.004411733709275723,1,0.02851203642785549,1,-0.0009378690156154335,1,0.0004007812822237611,1,-0.0004059864731971174,1
1773072558231128064,-0.005202186293900013,1,0.003045936115086079,1,0.03330472111701965,1,-0.0004028076073154807,1,-0.0002091760106850415,1,-0.0002076951204799116,1
1773072558241371392,-0.003830143949016929,1,0.001401540357619524,1,0.04037493094801903,1,0.0004093293682672083,1,-0.0003618356713559479,1,-1.141068059951067e-05,1
1773072558251517440,-0.001366824028082192,1,0.0006914885016158223,1,0.04421315714716911,1,0.0008231521351262927,1,-0.0002664669300429523,1,0.0003072795807383955,1
1773072558261564928,-0.001530932146124542,1,-0.002587279304862022,1,0.04286018759012222,1,0.0007413006969727576,1,-0.0001692603109404445,1,8.787086699157953e-05,1
1773072558271515392,-0.001063281437382102,1,-0.001268344698473811,1,0.03784424439072609,1,0.0005318474140949547,1,-0.0003314043278805912,1,1.118902764574159e-05,1
1773072558281374464,-0.005894217174500227,1,-0.0002314938465133309,1,0.03122019581496716,1,0.0006064758636057377,1,-0.0004966998239979148,1,-9.140425390796736e-06,1
1773072558291139072,-0.01075402088463306,1,-0.001971284626051784,1,0.02566535584628582,1,0.0003509277012199163,1,-0.0004871864221058786,1,-0.0001146478316513821,1
1773072558300832256,-0.009163026697933674,1,0.0001725061447359622,1,0.02285313978791237,1,0.000192498293472454,1,3.256418494856916e-05,1,-3.249785004300065e-05,1
1773072558310434560,-0.005720755085349083,1,0.001779848127625883,1,0.02229750715196133,1,3.792393545154482e-05,1,1.928664278239012e-05,1,-0.0001076853804988787,1
1773072558319945216,-0.002490606624633074,1,0.00494642136618495,1,0.02790619619190693,1,-0.0001927951525431126,1,0.0001660442358115688,1,1.405462990078377e-05,1
1773072558329366784,-0.004604550078511238,1,0.005325428210198879,1,0.0332677848637104,1,-0.0005444184644147754,1,0.0001990796008612961,1,4.568354415823705e-05,1
1773072558338698496,-0.0007224267465062439,1,0.005348168313503265,1,0.03846088424324989,1,-0.0003478203725535423,1,0.0002959640987683088,1,6.69414148433134e-05,1
1773072558349423616,0.004071300383657217,1,0.004794328939169645,1,0.0375697910785675,1,-0.0001971869642147794,1,0.0001461621141061187,1,-5.846904969075695e-05,1
1773072558360048640,0.0007942754891701043,1,0.006590632721781731,1,0.0343855693936348,1,0.0004349065129645169,1,-0.0002534687810111791,1,9.757991938386112e-05,1
1773072558370571008,-0.003291154047474265,1,0.005114909261465073,1,0.03267870843410492,1,0.0007481590728275478,1,-2.665123611222953e-05,1,-3.550162000465207e-05,1
1773072558380992256,-0.003908028360456228,1,0.003049234393984079,1,0.03176706656813622,1,0.0007888821419328451,1,-0.0001247348700417206,1,0.0001706166221993044,1
1773072558391320832,-0.001967138145118952,1,0.00345806241966784,1,0.02869720757007599,1,0.0004921092186123133,1,8.38356718304567e-05,1,-0.0001323534233961254,1
1773072558401553920,-0.002642616396769881,1,0.004392729140818119,1,0.02803522907197475,1,6.906018825247884e-05,1,0.000276232894975692,1,-0.0002111021749442443,1
1773072558411688192,-0.004227158613502979,1,0.005998652894049883,1,0.02996054105460644,1,-0.0003645705583039671,1,0.0007099629146978259,1,-8.035101927816868e-05,1
1773072558421725952,-0.0046222941018641,1,0.006389829330146313,1,0.03600631654262543,1,-0.0006130577530711889,1,0.0005215724231675267,1,-6.404137093340978e-05,1
1773072558431668224,-0.002728159772232175,1,0.008924314752221107,1,0.03829366713762283,1,-0.0005273522110655904,1,0.0004240457201376557,1,-0.0002082022547256202,1
1773072558441514240,-0.003301216522231698,1,0.008586866781115532,1,0.04357802122831345,1,-0.0003527977969497442,1,0.0006287233554758132,1,-0.0001011634667520411,1
1773072558451266048,-0.006276708096265793,1,0.005793963093310595,1,0.04567210748791695,1,-0.000171422609128058,1,0.0005790623254142702,1,-3.888088758685626e-05,1
1773072558460926720,-0.006947530899196863,1,0.00534441415220499,1,0.04525052756071091,1,7.577491487609223e-05,1,0.0002169539220631123,1,0.000146003789268434,1
1773072558470494720,-0.007438029162585735,1,0.005219446960836649,1,0.04294131696224213,1,0.0002892129414249212,1,-0.0001563408877700567,1,5.846084604854695e-05,1
1773072558479970816,-0.006361258216202259,1,0.005934237036854029,1,0.04204978421330452,1,0.000229729397688061,1,-0.0004898360930383205,1,0.0001979028747882694,1
1773072558489355776,-0.009274690411984921,1,0.005672415718436241,1,0.04106752201914787,1,-0.0003301488177385181,1,-0.0002917309175245464,1,0.0002011148171732202,1
1773072558498800384,-0.01024087984114885,1,0.006430385634303093,1,0.03882522508502007,1,-0.0001463135849917307,1,-0.0004206817829981446,1,0.000357207260094583,1
1773072558509495296,-0.008475156500935555,1,0.008647364564239979,1,0.0358327254652977,1,-0.0001815879950299859,1,-0.0008947795140556991,1,0.0001886847603600472,1
1773072558520087296,-0.006676905322819948,1,0.008324373513460159,1,0.03668559342622757,1,0.0004106958513148129,1,-0.0003980330948252231,1,0.0002033829077845439,1
1773072558530585088,-0.01040109898895025,1,0.007924391888082027,1,0.03824222087860107,1,0.0006672920426353812,1,-0.0002483321004547179,1,8.573407831136137e-05,1
1773072558540984064,-0.0131918340921402,1,0.006785736419260502,1,0.03999865800142288,1,0.000531418772879988,1,-0.0003389601188246161,1,3.69114350178279e-05,1
1773072558551282176,-0.01176752801984549,1,0.006800110917538404,1,0.03621364012360573,1,-1.14717404358089e-05,1,-0.0002040172257693484,1,-6.044920155545697e-05,1
1773072558561482496,-0.0081765316426754,1,0.004404394887387753,1,0.03126837685704231,1,0.0002703041827771813,1,-1.078937566489913e-05,1,-0.0002871358301490545,1
1773072558571585280,-0.004026953596621752,1,0.00365299079567194,1,0.02922883629798889,1,-1.286280166823417e-06,1,0.0001512854505563155,1,-0.0003425787144806236,1
1773072558581591296,-0.004158128518611193,1,0.005656440742313862,1,0.02910006046295166,1,-0.0001607410231372342,1,0.0001736254780553281,1,-0.0003090307873208076,1
1773072558591504384,-0.002902306616306305,1,0.004410029854625463,1,0.03008312545716763,1,0.0001525479747215286,1,0.0002320035127922893,1,-0.0002882307744584978,1
1773072558601323264,-0.001737067010253668,1,0.004449310246855021,1,0.0319245308637619,1,-5.54939906578511e-05,1,0.0003403644950594753,1,2.953019065898843e-05,1
1773072558611053312,-0.001920251874253154,1,0.005133630707859993,1,0.03258509188890457,1,0.0005054168286733329,1,0.0005346830585040152,1,2.175726513087284e-05,1
1773072558620712192,-0.001732458360493183,1,0.003299675183370709,1,0.03754903376102448,1,0.0007121926173567772,1,0.0001443467917852104,1,-0.0001089963043341413,1
1773072558630277888,-0.002274411264806986,1,0.001315981615334749,1,0.03723918274044991,1,0.0008009984157979488,1,-4.207658639643341e-05,1,2.487631718395278e-05,1
1773072558639752704,-0.003318040631711483,1,0.002846157876774669,1,0.03734751790761948,1,0.000608330185059458,1,-0.0001165182839031331,1,1.590509782545269e-05,1
1773072558649138176,-0.002172278938814998,1,0.002374628791585565,1,0.03464167565107346,1,0.0005540698184631765,1,-6.594667502213269e-05,1,-0.0002295514568686485,1
1773072558659019264,-0.001946210861206055,1,0.003536624601110816,1,0.03440894186496735,1,0.000463677424704656,1,-3.095460124313831e-05,1,-0.0001266958861378953,1
1773072558669681920,-0.002578404033556581,1,0.004445779602974653,1,0.03482205420732498,1,0.0006597365136258304,1,-0.0001501322549302131,1,-9.529637463856488e-05,1
1773072558680241920,-0.003509390167891979,1,0.001776258926838636,1,0.03255799040198326,1,0.0005170333315618336,1,-0.0002639469457790256,1,0.0001109823424485512,1
1773072558690699008,-0.005641300696879625,1,0.001035995199345052,1,0.03056256100535393,1,0.0005689862882718444,1,-0.0003811062488239259,1,6.953663978492841e-05,1
1773072558701052928,-0.005338543094694614,1,0.0003933288098778576,1,0.03215829282999039,1,0.0005178340943530202,1,-0.0002488383324816823,1,7.646281301276758e-05,1
1773072558711308288,-0.007524447049945593,1,-0.001046168734319508,1,0.03339871019124985,1,0.0004410172696225345,1,-0.0006427489570342004,1,-0.000133694033138454,1
1773072558721464320,-0.009537887759506702,1,-0.001274317968636751,1,0.03614554181694984,1,0.0004097805649507791,1,-0.0006043127505108714,1,1.447578324587084e-05,1
1773072558731547136,-0.006336880847811699,1,-0.002269876189529896,1,0.04103359207510948,1,8.527785394107923e-05,1,-0.0004742333549074829,1,0.0002217234141426161,1
1773072558741532928,-0.006136252544820309,1,-0.002719060052186251,1,0.04303549975156784,1,-0.0003351309278514236,1,-0.0004840207693632692,1,0.000272647914243862,1
1773072558751424000,-0.006916055921465158,1,-0.002655393211171031,1,0.04153480753302574,1,-0.0009403120493516326,1,-9.52888440224342e-05,1,0.000131651817355305,1
1773072558761221120,-0.004911929834634066,1,-0.003919713199138641,1,0.03621368110179901,1,-0.0007536282064393163,1,-0.0002661808102857322,1,-0.0001419567561242729,1
1773072558770925568,-0.00180563994217664,1,-0.005065697245299816,1,0.02813666872680187,1,-0.0008013297338038683,1,-9.257518104277551e-05,1,-0.000374252995243296,1
1773072558780537344,-0.004419635981321335,1,0.006919979583472013,1,0.03072578832507133,1,-0.0002185835910495371,1,-0.0001997422077693045,1,-0.0002047827874775976,1
1773072558790061056,-0.01017778180539608,1,0.007502754684537649,1,0.03092892467975616,1,-0.0003633610031101853,1,-0.0001989664451684803,1,4.49469116574619e-05,1
1773072558799495168,-0.006322850473225117,1,-9.415051317773759e-05,1,0.02974970638751984,1,0.0002857611689250916,1,0.0002415561757516116,1,-0.000335920718498528,1
1773072558808838656,-0.006812476087361574,1,0.008138884790241718,1,0.03672131896018982,1,-5.406626951298676e-05,1,5.534544470719993e-06,1,-8.818079368211329e-05,1
1773072558819130880,-0.006806192919611931,1,0.001659335102885962,1,0.03901630267500877,1,-0.0005681833135895431,1,-0.0001052124134730548,1,-3.514266791171394e-05,1
1773072558829767680,-0.006632219068706036,1,0.0115167461335659,1,0.04669647291302681,1,-0.0009384447475895286,1,-0.0002552936784923077,1,-2.956363823614083e-05,1
1773072558840299776,-0.005913371220231056,1,0.005670361220836639,1,0.04918180778622627,1,-0.0006265106494538486,1,-0.0002664858184289187,1,8.410182635998353e-05,1
1773072558850728960,-0.001087365439161658,1,0.0122204702347517,1,0.04486719146370888,1,0.0004328488721512258,1,-0.0002712644927669317,1,-8.484702266287059e-05,1
1773072558861059328,-0.01088178902864456,1,0.01453556772321463,1,0.04139070585370064,1,0.0007910248823463917,1,-0.0006078022415749729,1,5.446891009341925e-06,1
1773072558871291648,-0.01096191164106131,1,0.00387461856007576,1,0.03923005238175392,1,0.001008218270726502,1,-0.0003201700164936483,1,5.121974027133547e-05,1
1773072558881424128,-0.01238577999174595,1,0.005045420024544001,1,0.03522869572043419,1,0.0003928009537048638,1,-0.000132310640765354,1,0.0001624147116672248,1
1773072558891457792,-0.006106133107095957,1,0.00798324029892683,1,0.02538511529564857,1,-0.0004580479289870709,1,0.0003963816561736166,1,0.0001642066927161068,1
1773072558901393152,-0.002264179056510329,1,0.007268979679793119,1,0.01966798864305019,1,-0.0004311365191824734,1,0.0003130961558781564,1,0.0003255081246607006,1
1773072558911232000,0.001071511302143335,1,0.005821683444082737,1,0.0208856500685215,1,0.0002139766729669645,1,0.0003995161387138069,1,0.0001906153338495642,1
1773072558920974336,-0.0005025793798267841,1,0.01074538286775351,1,0.02347909286618233,1,0.0007426562369801104,1,-0.0001453390286769718,1,0.0001038352202158421,1
1773072558930622976,-0.004479720257222652,1,0.008475715294480324,1,0.02763963304460049,1,0.001128578442148864,1,-0.0006805587327107787,1,-1.779596641426906e-05,1
1773072558940176640,-0.004684858955442905,1,0.004763682838529348,1,0.0329681858420372,1,0.001416739542037249,1,-0.0006652799202129245,1,-0.0001962643436854705,1
1773072558949636608,-0.002807428129017353,1,0.001063163275830448,1,0.03992312774062157,1,0.001176732243038714,1,-0.0002861210377886891,1,-0.0002613117103464901,1
1773072558959004416,-0.0003292262554168701,1,0.0004360317252576351,1,0.0479823537170887,1,0.001160489628091455,1,0.0001474455348215997,1,-0.0001811866968637332,1
1773072558968434688,-0.001001901691779494,1,0.004165107384324074,1,0.04956395551562309,1,3.07706359308213e-05,1,0.0002461135445628315,1,-0.0002007416333071887,1
1773072558979162112,-0.001650278456509113,1,0.006147250067442656,1,0.03684297576546669,1,-0.0002264602080686018,1,-3.512051262077875e-05,1,8.768936822889373e-05,1
1773072558989784576,-0.0004327011993154883,1,0.008843180723488331,1,0.02267890237271786,1,-0.0001895011228043586,1,-0.0001133269106503576,1,1.63144213729538e-05,1
1773072559000305920,-0.004094777628779411,1,0.01081533916294575,1,0.02147894352674484,1,0.0008629839867353439,1,-0.0004298342682886869,1,0.0004867517272941768,1
1773072559010725888,-0.002813528524711728,1,0.005575737915933132,1,0.028676588088274,1,0.001180804683826864,1,-0.0007944002863951027,1,0.0002949825138784945,1
1773072559021045504,-0.00230113510042429,1,0.002160758711397648,1,0.03843175619840622,1,0.001241629826836288,1,-0.0007923656376078725,1,0.0004169864696450531,1
1773072559031267072,-0.0003059521259274334,1,0.0006797974929213524,1,0.04702453687787056,1,0.001524412189610302,1,-0.0009894847171381116,1,0.0003446000919211656,1
1773072559041390080,-0.0009222631342709064,1,-8.030008757486939e-05,1,0.05310649797320366,1,0.001644958159886301,1,-0.0009929188527166843,1,0.0004440895281732082,1
1773072559051415808,-0.007511935196816921,1,-0.0040415208786726,1,0.0533832386136055,1,0.001571723027154803,1,-0.0008182166493497789,1,0.0003407748590689152,1
1773072559061358848,-0.01147537678480148,1,-0.003946959506720304,1,0.04436596482992172,1,0.001183969317935407,1,-0.0004089952853973955,1,0.0001699209969956428,1
1773072559071207424,-0.01282934937626123,1,-0.004800543654710054,1,0.02729559689760208,1,0.0001740563893690705,1,-0.0003299823147244751,1,-7.988739525899291e-06,1
1773072559080961280,-0.01212285459041595,1,-0.003321031806990504,1,0.01302078738808632,1,-0.0007467857794836164,1,-6.888568168506026e-05,1,2.227148070232943e-05,1
1773072559090622208,-0.009608561173081398,1,-0.001485294662415981,1,0.01039718557149172,1,-0.001269152970053256,1,0.0002675170253496617,1,6.585913070011884e-05,1
1773072559100188672,-0.007410717196762562,1,0.0006157276802696288,1,0.01797871477901936,1,-0.001572148641571403,1,0.0001398655294906348,1,0.0001623372518224642,1
1773072559109661440,-0.01006983127444983,1,0.002900788560509682,1,0.03281407058238983,1,-0.001326804747804999,1,-0.0002144595346180722,1,0.0001936120970640332,1
1773072559119042816,-0.007679149508476257,1,0.00279492000117898,1,0.0460076816380024,1,0.0001269380445592105,1,-0.0002761061186902225,1,1.07921332528349e-05,1
1773072559128484608,-0.007737304084002972,1,0.004124983679503202,1,0.05544149130582809,1,0.00104718841612339,1,-7.004270446486771e-05,1,-0.0001603985583642498,1
1773072559139183104,-0.009827513247728348,1,-0.0005233495030552149,1,0.05753811448812485,1,0.00160421070177108,1,-0.0004852911806665361,1,-6.863138696644455e-05,1
1773072559149778688,-0.01015057321637869,1,0.0009524452034384012,1,0.05122114717960358,1,0.001493196003139019,1,9.283747203880921e-06,1,0.0004070548457093537,1
1773072559160274176,-0.01113557163625956,1,0.003808070905506611,1,0.04139380902051926,1,0.0007760653970763087,1,0.0002319874911336228,1,2.193505497416481e-05,1
1773072559170667776,-0.008370065130293369,1,0.002795669483020902,1,0.03133013099431992,1,-7.889556582085788e-05,1,2.88211685983697e-05,1,0.0001809929090086371,1
1773072559180960512,-0.005161266773939133,1,0.007047190330922604,1,0.02725043334066868,1,-0.0006764458958059549,1,0.0001591426989762112,1,0.0002310484414920211,1
1773072559191152896,-0.00709989620372653,1,0.008311711251735687,1,0.03200875222682953,1,-0.0002727352839428931,1,2.174282781197689e-05,1,9.505664638709277e-05,1
1773072559201246464,-0.009331128560006618,1,0.01019136235117912,1,0.03700821846723557,1,0.0003823052393272519,1,1.988502481253818e-05,1,0.0002205627533840016,1
1773072559211249920,-0.00654319254681468,1,0.007539356127381325,1,0.04011831060051918,1,0.001394032617099583,1,-0.0004324561450630426,1,0.0001835774455685169,1
1773072559221157888,-0.003573300549760461,1,0.002618513768538833,1,0.0408262126147747,1,0.001411421806551516,1,-3.527828448568471e-05,1,0.0001441181666450575,1
1773072559230969600,-0.003973433747887611,1,-0.004087981767952442,1,0.03691920265555382,1,0.0009651228901930153,1,0.0001159845996880904,1,-9.686467092251405e-05,1
1773072559240686336,-0.009598750621080399,1,-0.004040651489049196,1,0.02388647198677063,1,-8.446366700809449e-05,1,2.470200706738979e-05,1,-0.0001046189136104658,1
1773072559250308352,-0.01074882689863443,1,-0.007781357504427433,1,0.01414497382938862,1,-0.001354538253508508,1,0.0007165537681430578,1,-0.0001098172288038768,1
1773072559259836928,-0.008084102533757687,1,-0.009438253007829189,1,0.009482871741056442,1,-0.002175835426896811,1,0.0008224258199334145,1,3.319263487355784e-05,1
1773072559269273600,-0.003381780115887523,1,-0.005515274591743946,1,0.01472369767725468,1,-0.002527327043935657,1,0.0007450571283698082,1,-0.0001917374029289931,1
1773072559278619392,-0.002590745920315385,1,-0.003297541290521622,1,0.02194568142294884,1,-0.002696010051295161,1,0.0002267919335281476,1,-0.0001054817330441438,1
1773072559288475392,-0.002532531507313251,1,-0.00200590630993247,1,0.03678253665566444,1,-0.002002020366489887,1,0.0001745884801493958,1,1.933552630362101e-05,1
1773072559299135232,-0.002270248951390386,1,0.003735743928700686,1,0.04424893110990524,1,-0.001226486638188362,1,0.0002671402180567384,1,0.000112185109173879,1
1773072559309695488,-0.002086871536448598,1,0.008328869007527828,1,0.04735032841563225,1,0.0003763148270081729,1,1.566214996273629e-05,1,-0.0001300175790674984,1
1773072559320152576,-0.0007817429723218083,1,0.01222203113138676,1,0.04918049648404121,1,0.001106660580262542,1,-6.418760312953964e-05,1,0.0002867237490136176,1
1773072559330507008,0.0003944802738260478,1,0.005721052642911673,1,0.04130323976278305,1,0.001644317759200931,1,-0.0001305776386288926,1,0.0003932507825084031,1
1773072559340760576,-0.003900049487128854,1,0.009288635104894638,1,0.03796614706516266,1,0.001998820109292865,1,-0.000328307825839147,1,0.000436685950262472,1
1773072559350913792,-0.008008229546248913,1,0.0030237827450037,1,0.03625677153468132,1,0.001999570289626718,1,-0.0003873012610711157,1,0.0002617639838717878,1
1773072559360968704,-0.01184079516679049,1,0.002792900428175926,1,0.03976116701960564,1,0.001374684507027268,1,-1.76529647433199e-05,1,6.072813630453311e-05,1
1773072559370925312,-0.0110359312966466,1,0.006324577145278454,1,0.03926030546426773,1,0.0004585139104165137,1,0.0001593981869518757,1,0.0001154844430857338,1
1773072559380786688,-0.01245816331356764,1,0.006321953609585762,1,0.04356759786605835,1,-0.0001644177100388333,1,0.0005757338949479163,1,0.0001554748741909862,1
1773072559390550528,-0.01203107461333275,1,0.006332068704068661,1,0.04330431297421455,1,-0.0004636898811440915,1,0.0008187857456505299,1,4.041886859340593e-05,1
1773072559400219136,-0.01026773080229759,1,0.008289650082588196,1,0.04141373932361603,1,-0.000784020172432065,1,0.0006782683194614947,1,-0.0002012558106798679,1
1773072559409792512,-0.009932389482855797,1,0.009667634963989258,1,0.03864618390798569,1,-0.001614664332009852,1,0.0006048128707334399,1,-0.0005510967457666993,1
1773072559419271936,-0.01059830561280251,1,0.008482185192406178,1,0.03241505846381187,1,-0.001281527569517493,1,0.0005104723386466503,1,-0.0003134126891382039,1
1773072559428659968,-0.008949493989348412,1,0.007624073885381222,1,0.02732843346893787,1,-0.0005316302995197475,1,0.0007518850034102798,1,-0.0002304703230038285,1
1773072559437974784,-0.007942348718643188,1,0.004048728384077549,1,0.0269310399889946,1,-1.256551331607625e-05,1,0.0008885348215699196,1,0.0001580527750775218,1
1773072559448417536,-0.004890063777565956,1,0.002908261958509684,1,0.03414865210652351,1,3.059167283936404e-05,1,0.001021376345306635,1,-0.0001485196989960968,1
1773072559459064576,-7.379625458270311e-06,1,0.0003362068382557482,1,0.03896687552332878,1,-0.0003337576636113226,1,0.001201171078719199,1,-0.0001011691347230226,1
1773072559469607936,0.004776688292622566,1,-0.001775231212377548,1,0.04491456225514412,1,-0.0001240350538864732,1,0.001031812629662454,1,-3.04724853776861e-05,1
1773072559480047872,0.00742076663300395,1,-0.001458530547097325,1,0.05225491151213646,1,-0.0004868522228207439,1,0.001108383410610259,1,-9.716623753774911e-05,1
1773072559490388992,0.007237358018755913,1,-0.00103039457462728,1,0.05264750868082047,1,-0.001052313135005534,1,0.0006136430311016738,1,0.0004684675950556993,1
1773072559500635648,0.006499518174678087,1,0.003613905981183052,1,0.04673901572823524,1,-0.001274792477488518,1,0.0002190394443459809,1,0.0001953207392944023,1
1773072559510785280,0.002419063821434975,1,0.006362825632095337,1,0.03894329443573952,1,-0.001077281893230975,1,-1.937964225362521e-05,1,-6.473225221270695e-05,1
1773072559520837632,-0.0005244810599833727,1,0.007802259642630816,1,0.02847862243652344,1,-0.0004343478358350694,1,-0.0002386682608630508,1,-4.043985973112285e-05,1
1773072559530795264,-0.004014978185296059,1,0.01452763937413692,1,0.01644714176654816,1,0.0001230924681294709,1,-0.0006612566648982465,1,-0.0001476182951591909,1
1773072559540656896,-0.002559115644544363,1,0.01454645954072475,1,0.01196990441530943,1,0.0008732698624953628,1,-0.0007579465163871646,1,-0.0001002408680506051,1
1773072559550430464,-0.001282731303945184,1,0.01506367884576321,1,0.01314906310290098,1,0.001450205920264125,1,-0.0007555477786809206,1,-0.0001555734779685736,1
1773072559560114688,-0.0007506354595534503,1,0.01393996924161911,1,0.0161224901676178,1,0.001794906100258231,1,-0.0007424165378324687,1,7.305704639293253e-05,1
1773072559569707520,0.000309981289319694,1,0.008898723870515823,1,0.02338612079620361,1,0.002292628632858396,1,-0.0004406922962516546,1,0.0002383192477282137,1
1773072559579209216,-0.001514944131486118,1,0.002491347258910537,1,0.03473135828971863,1,0.002546069212257862,1,-0.0002742150099948049,1,0.0001164645145763643,1
1773072559588621312,-0.003907083533704281,1,-0.0008729722467251122,1,0.04223429411649704,1,0.002046277513727546,1,-0.0002315004967385903,1,5.606053036899539e-06,1
1773072559598092800,-0.00584405567497015,1,-0.0008027293952181935,1,0.03799409419298172,1,0.001025557634420693,1,0.0001925468968693167,1,0.0001341727038379759,1
1773072559608823296,-0.0069320909678936,1,0.002060044789686799,1,0.02759439311921597,1,0.0006274658371694386,1,0.000284381618257612,1,-8.599989087088034e-05,1
1773072559619453440,-0.01022513210773468,1,0.003246082458645105,1,0.02485872432589531,1,0.0009507223148830235,1,0.0003414127859286964,1,7.028018444543704e-05,1
1773072559629982720,-0.0129894632846117,1,0.004665501415729523,1,0.0249798446893692,1,0.0008797900518402457,1,0.0002856795908883214,1,-6.359798862831667e-05,1
1773072559640410880,-0.01436719577759504,1,0.006778375711292028,1,0.02687269076704979,1,0.0007962536765262485,1,0.0003616416943259537,1,-1.114067163143773e-05,1
1773072559650739968,-0.01531585212796926,1,0.007495098747313023,1,0.03043486177921295,1,0.0009219903731718659,1,-1.236728166986722e-05,1,-0.0003391255158931017,1
1773072559660970752,-0.01383038610219955,1,0.00461803050711751,1,0.04337466508150101,1,0.001404629903845489,1,-0.0001271608780371025,1,-0.0003006151819135994,1
1773072559671104768,-0.01415015570819378,1,0.0003824268060270697,1,0.05430169776082039,1,0.0005738063482567668,1,-0.0002872329787351191,1,-0.0002110894420184195,1
1773072559681157120,-0.01621720939874649,1,-0.002048957394436002,1,0.06179426610469818,1,-0.0007329438230954111,1,-0.0002074060321319848,1,-9.19000303838402e-05,1
1773072559691116544,-0.01459044124931097,1,-0.002936438424512744,1,0.0672995001077652,1,-0.002518326975405216,1,2.015212521655485e-05,1,-0.0003830573405139148,1
1773072559700980480,-0.01133348140865564,1,-0.001182344742119312,1,0.06751742213964462,1,-0.003354849060997367,1,0.0005030771717429161,1,-0.0002461191033944488,1
1773072559710751744,-0.00797653291374445,1,0.003147658426314592,1,0.05730975791811943,1,-0.003717340063303709,1,0.0008444807608611882,1,-0.0001864887308329344,1
1773072559720429824,0.002064262283965945,1,0.009158926084637642,1,0.04508404061198235,1,-0.002607237780466676,1,0.0007732489029876888,1,1.5032405826787e-05,1
1773072559730015488,0.001625112490728498,1,0.01602473482489586,1,0.03950442373752594,1,-0.001079013338312507,1,0.0005231427494436502,1,0.0001529344008304179,1
1773072559739511552,-0.003679461777210236,1,0.02017924562096596,1,0.03685088083148003,1,0.001186404726468027,1,0.0001600232935743406,1,0.0002776699257083237,1
1773072559748919296,-0.004159783013164997,1,0.01648931205272675,1,0.031573835760355,1,0.003845096100121737,1,-0.0005437037907540798,1,0.0006360651459544897,1
1773072559758384384,-0.002011195290833712,1,0.005634003318846226,1,0.02868769876658916,1,0.005397257395088673,1,-0.001072931219823658,1,0.000729016144759953,1
1773072559769076736,-0.003201986895874143,1,-0.006901321932673454,1,0.02952957153320312,1,0.006019637919962406,1,-0.00135626329574734,1,0.0007470404380001128,1
1773072559779666688,-0.009496270678937435,1,-0.01717169582843781,1,0.03202351555228233,1,0.004799527581781149,1,-0.001613764557987452,1,0.000669895438477397,1
1773072559790158080,-0.01242237910628319,1,-0.02091603726148605,1,0.03116147220134735,1,0.002222660696133971,1,-0.0008708419045433402,1,0.0003195804310962558,1
1773072559800551168,-0.0131272878497839,1,-0.02204502746462822,1,0.03067755326628685,1,-0.0006520400638692081,1,-6.478735303971916e-05,1,0.0001383623748552054,1
1773072559810844928,-0.01156965363770723,1,-0.01556686870753765,1,0.02535480633378029,1,-0.004011793993413448,1,0.001111125340685248,1,-0.0002709586988203228,1
1773072559821039872,-0.007325596641749144,1,-0.00648182351142168,1,0.01624766550958157,1,-0.005628086626529694,1,0.001679291483014822,1,-0.0004258116241544485,1
1773072559831137280,-0.001341934432275593,1,0.002221173839643598,1,0.01481167040765285,1,-0.005591478198766708,1,0.001836300827562809,1,-0.0005531083443202078,1
1773072559841137408,0.004135936964303255,1,0.01124043110758066,1,0.01699001528322697,1,-0.004301520530134439,1,0.001548951840959489,1,-0.0003453677345532924,1
1773072559851042816,0.003042339812964201,1,0.01544920448213816,1,0.02064059115946293,1,-0.001171310781501234,1,0.0005248078959994018,1,-8.17845284473151e-05,1
1773072559860855808,0.004048383329063654,1,0.01738476008176804,1,0.03313792869448662,1,0.002102020429447293,1,-0.0008014955674298108,1,0.0002202384930569679,1
1773072559870580224,0.005538003984838724,1,0.007329634390771389,1,0.04728498309850693,1,0.004602424334734678,1,-0.001209857873618603,1,0.0003834438102785498,1
1773072559880226048,0.005267377942800522,1,-0.004349201917648315,1,0.05957004427909851,1,0.005140294786542654,1,-0.001522277947515249,1,0.0004494950990192592,1
1773072559889779712,-0.0005830186419188976,1,-0.01048081833869219,1,0.05995646491646767,1,0.003606484970077872,1,-0.001508530462160707,1,0.0004360114398878068,1
1773072559899242752,-0.009586775675415993,1,-0.009277492761611938,1,0.05118650943040848,1,0.001414276426658034,1,-0.0006636232719756663,1,0.0002669053501449525,1
1773072559908616960,-0.01265780627727509,1,-0.008357303217053413,1,0.03964422270655632,1,-0.00120479566976428,1,0.0001885611854959279,1,0.0002807604905683547,1
1773072559918638080,-0.008829864673316479,1,-0.003605463542044163,1,0.02817697636783123,1,-0.003183972556143999,1,0.0008174551767297089,1,-0.0001244191807927564,1
1773072559929298432,-0.005329130683094263,1,0.005450490396469831,1,0.01845441572368145,1,-0.003959011752158403,1,0.0009108381345868111,1,-6.93303627485875e-06,1
1773072559939859200,-0.005559358280152082,1,0.01231256499886513,1,0.01544785778969526,1,-0.003861405421048403,1,0.0009994581341743469,1,-2.848445001291111e-05,1
1773072559950320128,-0.0006236056215129793,1,0.01914604380726814,1,0.02177483588457108,1,-0.002512321341782808,1,0.0002565563772805035,1,-0.0001059291025740094,1
1773072559960681984,0.0003177680482622236,1,0.01742967963218689,1,0.03198154270648956,1,-0.0004648733884096146,1,-0.0007339666481129825,1,9.074709669221193e-05,1
1773072559970946304,-0.001625882228836417,1,0.01100787147879601,1,0.04551810026168823,1,0.001646594959311187,1,-0.001561809796839952,1,-4.109412475372665e-05,1
1773072559981112832,-0.008554160594940186,1,0.004777162801474333,1,0.05416087806224823,1,0.002587959403172135,1,-0.001259110402315855,1,0.0001593220513314009,1
1773072559991185664,-0.01436966098845005,1,-0.002833771519362926,1,0.0568719282746315,1,0.001815920346416533,1,-0.0006669680005870759,1,9.310125460615382e-05,1
1773072560001162496,-0.01849798299372196,1,-0.003720699343830347,1,0.04955295473337173,1,0.0001913203159347177,1,0.0001263204612769186,1,-0.0002545705356169492,1
1773072560011042816,-0.01779975183308125,1,-0.002021029125899076,1,0.03711681813001633,1,-0.001586176105774939,1,0.0009561880142427981,1,-0.0004183721030130982,1
1773072560020828928,-0.02001930959522724,1,0.004665058106184006,1,0.03094698674976826,1,-0.003236951073631644,1,0.001427036826498806,1,-0.0002221042814198881,1
1773072560030520832,-0.01813808456063271,1,0.01148150488734245,1,0.02669570036232471,1,-0.003526856657117605,1,0.001439437386579812,1,-0.0001024796874844469,1
1773072560040119040,-0.01419203262776136,1,0.01693690754473209,1,0.03058524616062641,1,-0.00255843042396009,1,0.001412724377587438,1,1.734777470119298e-05,1
1773072560049627136,-0.01034372486174107,1,0.0197941493242979,1,0.04017423838376999,1,-0.000594031997025013,1,0.0005820952937938273,1,-9.259509533876553e-05,1
1773072560059043840,-0.01071744505316019,1,0.01470382884144783,1,0.05066988617181778,1,0.001163601293228567,1,-0.0002079318510368466,1,-0.0001324685727013275,1
1773072560068369664,-0.01095725782215595,1,0.00917837955057621,1,0.0576750822365284,1,0.002351606264710426,1,-0.0007831277907826006,1,0.0001097407512133941,1
1773072560078810368,-0.009639609605073929,1,0.001858584582805634,1,0.05393090844154358,1,0.002892674412578344,1,-0.0008812787709757686,1,0.0001632663188502192,1
1773072560089449728,-0.008662059903144836,1,-0.006182231940329075,1,0.04328423738479614,1,0.002259252360090613,1,-0.0006972937262617052,1,0.000103035919892136,1
1773072560099987968,-0.005561447236686945,1,-0.008028198964893818,1,0.03290879726409912,1,0.0008138041011989117,1,-0.000159089860972017,1,-0.0001235829840879887,1
1773072560110431488,-0.001276793307624757,1,-0.002561534754931927,1,0.02169091627001762,1,-0.0006344233406707644,1,0.0002009089512284845,1,-0.0001438259205315262,1
1773072560120774912,-0.002179055474698544,1,-0.003295511240139604,1,0.01440493203699589,1,-0.001668821787461638,1,0.0005529660847969353,1,0.0001703850575722754,1
1773072560131018752,-4.80433227494359e-05,1,0.003724610898643732,1,0.01335711032152176,1,-0.001958688255399466,1,0.0007664179429411888,1,-3.370335616637021e-05,1
1773072560141164288,0.009541984647512436,1,0.007545264437794685,1,0.01410380378365517,1,-0.001889201579615474,1,0.0007868859684094787,1,-0.000173700405866839,1
1773072560151211264,0.0170007050037384,1,0.005716472398489714,1,0.02142614312469959,1,-0.001277156872674823,1,0.0006298983353190124,1,-3.576597737264819e-05,1
1773072560161160448,0.01503260992467403,1,0.007507541216909885,1,0.03309506177902222,1,-0.0003375242522452027,1,0.0002160786534659564,1,-7.352194370469078e-05,1
1773072560171016192,0.009056055918335915,1,0.007842607796192169,1,0.04158854857087135,1,0.0004995324416086078,1,-1.344686097581871e-05,1,-1.50207615661202e-05,1
1773072560180775424,0.01062226761132479,1,0.007306843064725399,1,0.03690136596560478,1,0.0008704611100256443,1,4.576686478685588e-05,1,6.712146569043398e-05,1
1773072560190439424,0.01317409239709377,1,0.007174124009907246,1,0.02734419144690037,1,0.001173433847725391,1,5.509604670805857e-05,1,0.0001847324456321076,1
1773072560200009472,0.006545793730765581,1,0.003267315216362476,1,0.02010218799114227,1,0.001350313425064087,1,7.163763075368479e-05,1,0.0001496172335464507,1
1773072560209485312,0.003721371293067932,1,0.003339697839692235,1,0.01818930730223656,1,0.0008860008674673736,1,0.0002876577491406351,1,1.936879561981186e-05,1
1773072560218868480,0.005661397241055965,1,0.002754334360361099,1,0.02156981639564037,1,-0.0002041300758719444,1,0.0001997428043978289,1,7.686216849833727e-05,1
1773072560228314880,0.003789776703342795,1,0.002431107219308615,1,0.02806416153907776,1,-0.0007704122690483928,1,0.0004471970023587346,1,-2.63452729996061e-05,1
1773072560239036672,0.005168911535292864,1,0.005678344052284956,1,0.03695150464773178,1,-0.0004252506769262254,1,-3.14068965963088e-05,1,2.998141280841082e-05,1
1773072560249654528,-0.001356585067696869,1,0.005598302930593491,1,0.0482679046690464,1,0.0006505140918307006,1,-0.0006392164505086839,1,-0.0002914589713327587,1
1773072560260168448,-0.00740402564406395,1,0.001283438177779317,1,0.05423754826188087,1,0.001327172620221972,1,-0.00060815125470981,1,-0.0001296570262638852,1
1773072560270584064,-0.0135312732309103,1,-0.00112533534411341,1,0.0531817190349102,1,0.00162783486302942,1,-0.0006644194945693016,1,-3.999514956376515e-05,1
1773072560280903424,-0.0136857908219099,1,-0.003117048647254705,1,0.04781640321016312,1,0.001169133465737104,1,-0.000606225396040827,1,-6.960940663702786e-05,1
1773072560291123712,-0.01716896146535873,1,-0.005631740670651197,1,0.03915814310312271,1,0.0001235450617969036,1,-0.0005409197183325887,1,-3.263814505771734e-05,1
1773072560301244928,-0.02077091112732887,1,-0.004575769416987896,1,0.03757089376449585,1,-0.0007970760925672948,1,-0.0002794415049720556,1,0.0001425980299245566,1
1773072560311268864,-0.02258332073688507,1,-0.002201461000367999,1,0.04076196998357773,1,-0.001239266246557236,1,-0.0003673294850159436,1,0.0001564047706779093,1
1773072560321193472,-0.02550693228840828,1,-0.001732853823341429,1,0.04491491615772247,1,-0.001364649855531752,1,-0.0003871080698445439,1,0.0004032490833196789,1
1773072560331022080,-0.02406826242804527,1,0.0006496237474493682,1,0.05018644407391548,1,-0.0004235308733768761,1,-0.000233218539506197,1,0.0004189841274637729,1
1773072560340756736,-0.02489424683153629,1,-0.002676510717719793,1,0.05214101821184158,1,0.0004372067051008344,1,-0.0002452351618558168,1,0.000410159002058208,1
1773072560350395904,-0.02246777527034283,1,-0.003873949171975255,1,0.05076009780168533,1,0.0008626667549833655,1,-0.0002351150615140796,1,0.0001428068935638294,1
1773072560359940864,-0.02230457402765751,1,-0.003055940382182598,1,0.04467960819602013,1,0.0003945022472180426,1,2.108570697600953e-05,1,-0.0001112676327466033,1
1773072560369393152,-0.02425113506615162,1,-0.002876921789720654,1,0.03962872922420502,1,-8.257375156972557e-05,1,-6.323253910522908e-05,1,1.633732972550206e-05,1
1773072560378751744,-0.02318483218550682,1,-0.001490007736720145,1,0.03307004272937775,1,-0.001076097600162029,1,0.0001541819365229458,1,-9.494188998360187e-05,1
1773072560388324096,-0.01883725449442863,1,-0.0005753734149038792,1,0.02497212961316109,1,-0.001622945768758655,1,0.0005445316783152521,1,-4.253453153069131e-05,1
1773072560399015936,-0.01100479252636433,1,0.002762178657576442,1,0.02594945393502712,1,-0.002045906847342849,1,0.000730806787032634,1,-0.0001811479160096496,1
1773072560409607168,-0.005451271776109934,1,0.005874035879969597,1,0.03013561479747295,1,-0.002332821721211076,1,0.0011815105099231,1,-0.0001808209926821291,1
1773072560420098048,-0.001871192129328847,1,0.01090700831264257,1,0.035262331366539,1,-0.00255898735485971,1,0.001180790364742279,1,-0.000433725246693939,1
1773072560430494976,0.005171141587197781,1,0.01115606166422367,1,0.03764452412724495,1,-0.00198920932598412,1,0.001020899973809719,1,-0.0003170506679452956,1
1773072560440792064,0.008542835712432861,1,0.01846636831760406,1,0.03497195616364479,1,-0.0005232718540355563,1,0.0005273128626868129,1,-0.0001075814361684024,1
1773072560450990592,0.00267135864123702,1,0.01629643142223358,1,0.03280936554074287,1,0.001189103117212653,1,0.0003607123799156398,1,-0.0001207073219120502,1
1773072560461093376,0.001100386842153966,1,0.01295716408640146,1,0.03192668780684471,1,0.001838779426179826,1,0.0001856804301496595,1,-6.406474858522415e-05,1
1773072560471098624,0.007015817798674107,1,0.00948646292090416,1,0.0263426024466753,1,0.001205582753755152,1,7.35291832825169e-05,1,-0.0001356806897092611,1
1773072560481007360,0.006834033876657486,1,0.005420470144599676,1,0.01779240928590298,1,0.0008385240216739476,1,-7.159271626733243e-05,1,-0.0002304323425050825,1
1773072560490821888,0.001461725798435509,1,0.009148750454187393,1,0.01901236549019814,1,0.0002946006134152412,1,-6.734146609232994e-06,1,-0.0001912517618620768,1
1773072560500544000,0.002711862092837691,1,0.008941920474171638,1,0.02465645782649517,1,4.438470932655036e-05,1,0.0001911229046527296,1,-0.0001603651035111398,1
1773072560510171904,0.008876122534275055,1,0.009528577327728271,1,0.03359116613864899,1,-0.0005375976907089353,1,0.0003282212128397077,1,-5.879109085071832e-05,1
1773072560519706880,0.01268595550209284,1,0.009378325194120407,1,0.03964027762413025,1,-0.0004278459236957133,1,0.0003054011613130569,1,-0.0001300558215007186,1
1773072560529174528,0.00811629556119442,1,0.009259537793695927,1,0.0463598258793354,1,-0.0002223608462372795,1,0.0005400268128141761,1,-6.723941623931751e-05,1
1773072560538554368,0.004352130927145481,1,0.007582500576972961,1,0.04474275559186935,1,-0.0004386666405480355,1,0.0001499162171967328,1,3.612550062825903e-05,1
1773072560548579840,0.005479609593749046,1,0.007962773554027081,1,0.03950995206832886,1,0.0003795901138801128,1,-0.0001479922066209838,1,-0.0002164355537388474,1
1773072560559239936,0.00338418735191226,1,0.002564916387200356,1,0.03498980030417442,1,0.001003095880150795,1,-0.0007107426063157618,1,-5.254606367088854e-05,1
1773072560569799680,-0.001311165047809482,1,-0.0006576928426511586,1,0.03330611810088158,1,0.000805329589638859,1,-0.0009038930875249207,1,-1.640190021134913e-06,1
1773072560580257280,-0.005620533600449562,1,-0.0002415674389339983,1,0.03363152220845222,1,0.0003999745822511613,1,-0.0007634072680957615,1,8.768456609686837e-05,1
1773072560590612736,-0.005718113388866186,1,0.001443379558622837,1,0.03123701736330986,1,-6.16201214143075e-05,1,-0.000742887263186276,1,5.865249113412574e-05,1
1773072560600868096,-0.00495905289426446,1,-0.0007993479375727475,1,0.03278468549251556,1,-0.0005469529423862696,1,-0.0003610037092585117,1,0.000275595870334655,1
1773072560611023360,-0.008139966055750847,1,0.001362184179015458,1,0.04053742811083794,1,-0.0005687050870619714,1,-9.207634866470471e-05,1,0.0004107163986191154,1
1773072560621078784,-0.007731236051768064,1,0.003154658479616046,1,0.04543224722146988,1,-0.0004164037527516484,1,-7.98638939158991e-05,1,0.0002268003299832344,1
1773072560631037952,-0.008729224093258381,1,0.003435505554080009,1,0.04558883979916573,1,4.830085526918992e-05,1,-2.790460712276399e-05,1,0.0001605643046787009,1
1773072560640899072,-0.01285940781235695,1,0.005216302815824747,1,0.04173224046826363,1,0.0009205734822899103,1,9.698258509160951e-06,1,7.761562301311642e-05,1
1773072560650686720,-0.01526390854269266,1,0.003992618527263403,1,0.03991556912660599,1,0.001613056403584778,1,-0.0006346203736029565,1,0.0004179638635832816,1
1773072560660383232,-0.01655434817075729,1,0.004377623554319143,1,0.03710956126451492,1,0.001723975641652942,1,-0.0005331285647116601,1,0.0002429985324852169,1
1773072560669984512,-0.02097399160265923,1,0.003180806059390306,1,0.03333999589085579,1,0.001787489163689315,1,-0.0005221833707764745,1,-3.547484084265307e-05,1
1773072560679493120,-0.02099023945629597,1,0.00247910781763494,1,0.03021328151226044,1,0.0008621403248980641,1,-0.0007000347832217813,1,0.0002602984313853085,1
1773072560688909312,-0.01703018322587013,1,-0.0009288382134400308,1,0.03164393454790115,1,0.00081589724868536,1,-0.0001398828171659261,1,-0.0001817548036342487,1
1773072560698233856,-0.01532119419425726,1,0.0006392711075022817,1,0.0338762104511261,1,-8.731409616302699e-05,1,0.0002154651592718437,1,-8.158445416484028e-05,1
1773072560708676096,-0.01416385266929865,1,0.001266337698325515,1,0.03619815036654472,1,-0.0004740217991638929,1,0.0003598335315473378,1,-0.0003493757976684719,1
1773072560719322368,-0.01089730579406023,1,3.324094359413721e-05,1,0.03960878029465675,1,-0.0007359521114267409,1,0.000507386343088001,1,-0.0002204098709626123,1
1773072560729871616,-0.008592304773628712,1,0.001538410084322095,1,0.03589662164449692,1,-0.0005585862090811133,1,0.0001791594841051847,1,-0.0001473896118113771,1
1773072560740322560,-0.006310632918030024,1,0.001893119420856237,1,0.03145425766706467,1,-0.0001250271452590823,1,3.162179200444371e-05,1,-0.0004069342976436019,1
1773072560750674688,-0.003582884324714541,1,0.0009011159418150783,1,0.02537309564650059,1,8.055591024458408e-06,1,7.345781341427937e-05,1,-0.0002605452318675816,1
1773072560760926720,-0.003823634004220366,1,-0.001221528393216431,1,0.02660804241895676,1,0.0004738503484986722,1,0.0003616501926444471,1,-0.0002508059842512012,1
1773072560771079424,-0.004801756702363491,1,-0.001304790494032204,1,0.02940637245774269,1,0.0001945962285390124,1,1.857404276961461e-05,1,-0.0001470464922022074,1
1773072560781131776,-0.001839984906837344,1,-0.000841975212097168,1,0.03449718281626701,1,0.0003952464321628213,1,4.571818863041699e-06,1,0.0001783903280738741,1
1773072560791088384,0.002562213689088821,1,-0.001562454970553517,1,0.04124884679913521,1,0.0001852858404163271,1,-1.382920891046524e-05,1,-0.0001561951648909599,1
1773072560800950528,0.006523619871586561,1,0.002562123350799084,1,0.04509785398840904,1,0.0001332437241217121,1,8.230707317125052e-05,1,-3.065034616156481e-05,1
1773072560810715904,0.005582361482083797,1,0.001441855798475444,1,0.04486420750617981,1,-0.0002253020211355761,1,0.0001633953070268035,1,-1.64168141054688e-05,1
1773072560820385792,0.002814017003402114,1,0.003415172453969717,1,0.04270683974027634,1,-0.0002510434424038976,1,0.0005454872152768075,1,3.210516297258437e-07,1
1773072560829961728,0.002352265641093254,1,0.006766628939658403,1,0.03525876998901367,1,-0.0005393801257014275,1,0.0004482180229388177,1,-0.0001779343438101932,1
1773072560839444736,0.003149029333144426,1,0.003453830722719431,1,0.02807930111885071,1,-0.0001874698209576309,1,0.0004011362616438419,1,-0.0001694585371296853,1
1773072560848862208,0.001044978620484471,1,0.003020759671926498,1,0.02724039182066917,1,-9.509955998510122e-05,1,0.0002354224416194484,1,-6.957925506867468e-06,1
1773072560858346240,0.00227619893848896,1,0.00439760833978653,1,0.03272242471575737,1,-0.000143223544000648,1,-0.0003318891976960003,1,7.700598507653922e-05,1
1773072560869069312,0.002778127323836088,1,-0.0006165470695123076,1,0.03704702854156494,1,-0.0007259254343807697,1,-0.0002019393577938899,1,8.148661436280236e-05,1
1773072560879691264,-0.002344695851206779,1,-0.004200683441013098,1,0.04436767101287842,1,-0.0009479763684794307,1,-0.0003668162389658391,1,0.0002219470770796761,1
1773072560890209536,-0.003767400747165084,1,0.002830498153343797,1,0.04545684903860092,1,-0.001153411460109055,1,-0.0002392556925769895,1,-0.0001170106406789273,1
1773072560900624384,-0.001240530284121633,1,0.001890784362331033,1,0.04151057824492455,1,-0.001174524426460266,1,-0.0002390341251157224,1,2.212341496488079e-05,1
1773072560910941696,-0.005811982322484255,1,0.005564190447330475,1,0.03653877228498459,1,-0.001054825726896524,1,-0.0003048537764698267,1,-0.0001164597561000846,1
1773072560921160448,-0.009887817315757275,1,0.01100636273622513,1,0.02948420308530331,1,-0.0007285915780812502,1,0.0002942968276329339,1,-0.0001011390268104151,1
1773072560931277824,-0.01011491194367409,1,0.009116112254559994,1,0.02128247357904911,1,0.0001016573514789343,1,0.000219860376091674,1,-0.0002036572259385139,1
1773072560941296896,-0.01065704226493835,1,0.007955038920044899,1,0.0221064779907465,1,0.0006517635774798691,1,-2.431045140838251e-05,1,-0.0001420026819687337,1
1773072560951218432,-0.01146323047578335,1,0.009585876017808914,1,0.03014602139592171,1,0.0009761229739524424,1,-0.0004608834278769791,1,-0.0001772809191606939,1
1773072560961041920,-0.01036870945245028,1,0.00529680447652936,1,0.03980742022395134,1,0.0004942006780765951,1,-0.0007857313612475991,1,-2.784975367831066e-05,1
1773072560970770176,-0.01261905953288078,1,0.002299179788678885,1,0.04496540129184723,1,0.0003682024253066629,1,-0.0009595435112714767,1,-4.49668186774943e-06,1
1773072560980403968,-0.01317574083805084,1,0.003245104569941759,1,0.04781470447778702,1,0.0002114942617481574,1,-0.0007524939137510955,1,4.071137664141133e-05,1
1773072560989944064,-0.0119573213160038,1,0.003085876815021038,1,0.04592083021998405,1,0.0001968769938685,1,-0.0005558654083870351,1,-0.0002876533544622362,1
1773072560999390720,-0.01242708694189787,1,0.004041433334350586,1,0.03841862082481384,1,-0.0002268464013468474,1,-0.0005225859931670129,1,-0.0005235414719209075,1
1773072561008745984,-0.01471730042248964,1,0.007658801507204771,1,0.0302266851067543,1,-0.0004176785005256534,1,-2.952215800178237e-05,1,-0.0006640212959609926,1
1773072561018314496,-0.009092764928936958,1,0.008501334115862846,1,0.02328827045857906,1,-0.0007306738989427686,1,0.0003276892239227891,1,-0.000552455720026046,1
1773072561029008384,-0.002587936585769057,1,0.007772939279675484,1,0.0239370334893465,1,-0.0007616627844981849,1,0.0002690294350031763,1,-0.0001973097678273916,1
1773072561039600128,0.002407534280791879,1,0.00964038074016571,1,0.02909149415791035,1,8.479284588247538e-05,1,0.0004676622629631311,1,-0.0001784832566045225,1
1773072561050092800,0.00541987968608737,1,0.007157698273658752,1,0.03894666954874992,1,0.0005225614877417684,1,0.0007523032836616039,1,-3.085382195422426e-05,1
1773072561060487424,0.004627640824764967,1,0.007598970551043749,1,0.0480261817574501,1,0.0007666276069357991,1,0.0006977029261179268,1,0.0001944602699950337,1
1773072561070781184,0.006049925927072763,1,0.004282412119209766,1,0.05346212536096573,1,0.0008694490534253418,1,0.0003338806563988328,1,0.0001258406409760937,1
1773072561080975360,0.002187072532251477,1,0.0002105845487676561,1,0.0525716058909893,1,0.001110767363570631,1,0.0001919885980896652,1,0.0002923940774053335,1
1773072561091073280,-0.0006735164206475019,1,-0.003184027737006545,1,0.04397948086261749,1,0.000680970202665776,1,-6.192306318553165e-05,1,0.0003301067044958472,1
1773072561101072896,-0.003624761942774057,1,-0.0002490108599886298,1,0.02917156741023064,1,0.0004379500751383603,1,-0.0001265785249415785,1,0.0003752141783479601,1
1773072561110976000,-0.0064365454018116,1,0.001210544141940773,1,0.0207847636193037,1,0.0002047005837084725,1,-7.630735490238294e-05,1,0.0001807539374567568,1
1773072561120795648,-0.009625666774809361,1,0.002267137169837952,1,0.0197891928255558,1,-6.953826232347637e-05,1,0.000340240920195356,1,0.0003351746418047696,1
1773072561130522112,-0.008468633517622948,1,0.003983147908002138,1,0.02269797585904598,1,5.22759510204196e-05,1,0.0001626403100090101,1,0.0002397533098701388,1
1773072561140154880,-0.00694443192332983,1,0.0003809434711001813,1,0.03353084251284599,1,-0.0004461543285287917,1,0.0001074305400834419,1,0.0002467131125740707,1
1773072561149695744,-0.008143350481987,1,-0.00346196279861033,1,0.04830275848507881,1,-0.001364549272693694,1,-5.213583790464327e-06,1,0.0002047633897745982,1
1773072561159144960,-0.00715430686250329,1,-0.005099775269627571,1,0.05863787233829498,1,-0.00150017230771482,1,-5.72100470890291e-05,1,0.0002451230539008975,1
1773072561168502784,-0.006580711808055639,1,-0.002532238140702248,1,0.0627424493432045,1,-0.001450845622457564,1,-0.0001087132914108224,1,0.000213404739042744,1
1773072561178515456,-0.01011239644140005,1,-0.0006695794872939587,1,0.06358692795038223,1,-0.001191183575429022,1,-0.0001489848509663716,1,-5.710818368243054e-05,1
1773072561189175552,-0.01069075614213943,1,0.002097809221595526,1,0.05700449645519257,1,-0.0004566697753034532,1,-0.00045782994129695,1,-0.0002824318944476545,1
1773072561199734272,-0.01201421767473221,1,0.002467595972120762,1,0.04802839457988739,1,-2.631681854836643e-05,1,-0.0004931032308377326,1,-0.0001963415124919266,1
1773072561210190336,-0.01323881465941668,1,0.003408162388950586,1,0.03806909918785095,1,0.0004883551737293601,1,-0.0007532581803388894,1,-0.0001754148106556386,1
1773072561220555520,-0.01419610250741243,1,0.002570172771811485,1,0.02936157956719398,1,0.0006783605786040425,1,-0.0005119194975122809,1,-0.0001170837713289075,1
1773072561230823424,-0.01448667887598276,1,0.002863143803551793,1,0.02963749691843987,1,0.0006206989637576044,1,-0.0002724969235714525,1,-0.0001017386821331456,1
1773072561240993792,-0.010884796269238,1,0.00136734894476831,1,0.03295253217220306,1,0.0005778802442364395,1,0.0005994276725687087,1,-0.0002040956896962598,1
1773072561251069952,-0.00876642856746912,1,0.003102542599663138,1,0.03546290099620819,1,0.0001693988597253338,1,0.0004558417422231287,1,-0.0003723310655914247,1
1773072561261049600,-0.007952621206641197,1,0.007058051414787769,1,0.03458339720964432,1,0.0002536296669859439,1,0.0005070697516202927,1,-0.0002740784548223019,1
1773072561270934528,-0.004523648880422115,1,0.008829254657030106,1,0.03002537414431572,1,-0.0002115935058100149,1,0.0003656975750345737,1,-0.0002619638980831951,1
1773072561280735232,-0.00270152254961431,1,0.00892999954521656,1,0.019366554915905,1,-0.0001336451678071171,1,0.0005057643866166472,1,-8.201517630368471e-05,1
1773072561290464768,-0.00252143107354641,1,0.009296993725001812,1,0.01475269626826048,1,5.964370211586356e-05,1,0.0001759499282343313,1,-0.0004413668066263199,1
1773072561300101632,0.0007545714033767581,1,0.009979823604226112,1,0.01087068952620029,1,0.0002891143376473337,1,0.0003797686367761344,1,-0.0001971930614672601,1
1773072561309646080,0.0038449268322438,1,0.01059923134744167,1,0.01243557874113321,1,0.0002226464421255514,1,0.0002110628265654668,1,-5.927120946580544e-05,1
1773072561319100160,0.002686378546059132,1,0.009857917204499245,1,0.01540076918900013,1,0.0001649762416491285,1,0.0001415812002960593,1,-0.0002292690478498116,1
1773072561328462848,0.002182192169129848,1,0.007857604883611202,1,0.02187747694551945,1,0.0005321042845025659,1,0.0005107580800540745,1,-0.0002725112135522068,1
1773072561338908416,0.003004100872203708,1,0.00529630808159709,1,0.0304702389985323,1,0.0002840555971488357,1,0.0004634469805750996,1,-0.0002309919073013589,1
1773072561349546752,0.007885627448558807,1,0.008381851017475128,1,0.0394347719848156,1,-0.0003685498377308249,1,0.0001619645772734657,1,-9.267352288588881e-05,1
1773072561360083968,0.00619267113506794,1,0.008562697097659111,1,0.04525643959641457,1,-0.0006208664854057133,1,6.468574429163709e-05,1,-0.0001956117193913087,1
1773072561370524416,0.001134312944486737,1,0.01122539583593607,1,0.04831887036561966,1,-0.00043895049020648,1,0.0004815501160919666,1,-8.286846423288807e-05,1
1773072561380865536,0.005418460816144943,1,0.01206229720264673,1,0.04666370898485184,1,9.315775241702795e-05,1,3.221756196580827e-05,1,-3.96423383790534e-05,1
1773072561391112448,0.008240377530455589,1,0.01119008008390665,1,0.04033307358622551,1,0.0008346879039891064,1,-0.0003490360977593809,1,0.0001935902400873601,1
1773072561401262080,0.005183452274650335,1,0.004956461489200592,1,0.04217610880732536,1,0.001575844478793442,1,-0.0006447343621402979,1,0.0002076575183309615,1
1773072561411315712,-0.0001286858459934592,1,0.003182988613843918,1,0.04468728974461555,1,0.001189093221910298,1,-0.0006351105403155088,1,0.0003113878192380071,1
1773072561421274368,0.002815999323502183,1,-0.00139918434433639,1,0.04319345206022263,1,0.001280821627005935,1,-0.0007047101389616728,1,0.0002862048568204045,1
1773072561431138048,0.002509618643671274,1,-0.00651159230619669,1,0.04261047765612602,1,0.001314779277890921,1,-0.0005168992793187499,1,8.745970262680203e-05,1
1773072561440907008,-0.001974327955394983,1,-0.01029141433537006,1,0.04921518638730049,1,0.001452461234293878,1,-0.0004231484781485051,1,0.0001009776024147868,1
1773072561450583552,-0.007246536202728748,1,-0.01489493902772665,1,0.05720356106758118,1,0.0007658335380256176,1,-0.0006511614774353802,1,7.359924347838387e-05,1
1773072561460169472,-0.01025025919079781,1,-0.01383089926093817,1,0.05252028256654739,1,-5.256848817225546e-05,1,-0.0007749137585051358,1,-0.0001479060301790014,1
1773072561469663232,-0.01263567991554737,1,-0.01219810452312231,1,0.03913098201155663,1,0.0001160594401881099,1,-0.0009932732209563255,1,-8.18780463305302e-05,1
1773072561479065600,-0.0125554408878088,1,-0.01647980883717537,1,0.03311419114470482,1,6.522908370243385e-05,1,-0.001187390182167292,1,-0.0003358311078045517,1
1773072561488528128,-0.01779655180871487,1,-0.01492338255047798,1,0.03052477724850178,1,-8.562659786548465e-05,1,-0.0009218314662575722,1,-0.0002151703520212322,1
1773072561499246080,-0.02441354840993881,1,-0.01100824493914843,1,0.02319878898561001,1,-0.0005069932667538524,1,-0.0006452125962823629,1,-0.0002774995809886605,1
1773072561509862400,-0.02489126846194267,1,-0.01209462434053421,1,0.01950195617973804,1,-0.0001874397130450234,1,-0.0001832968846429139,1,-3.32865965901874e-05,1
1773072561520378112,-0.02386228181421757,1,-0.01124376244843006,1,0.01886963285505772,1,-9.504237823421136e-05,1,0.0002833203761838377,1,-8.971036731963977e-05,1
1773072561530794496,-0.02250982075929642,1,-0.009713280014693737,1,0.02598783746361732,1,-0.0003748485469259322,1,0.0005170098156668246,1,-0.000125575897982344,1
1773072561541115136,-0.02062882669270039,1,-0.008003579452633858,1,0.03106898814439774,1,-0.0009842986473813653,1,0.0006954792770557106,1,-0.000238912005443126,1
1773072561551340288,-0.01812676526606083,1,-0.0006289746961556375,1,0.03446811065077782,1,-0.00140455411747098,1,0.00113195541780442,1,-0.0003139433392789215,1
1773072561561467648,-0.0167338028550148,1,-0.001738089369609952,1,0.0382419228553772,1,-0.001504130894318223,1,0.0007662524003535509,1,-0.0003213088784832507,1
1773072561571498752,-0.01183785405009985,1,0.004766518250107765,1,0.04159429669380188,1,-0.001205939217470586,1,0.0009333219495601952,1,-0.0003284297708887607,1
1773072561581433600,-0.008613703772425652,1,0.006056951824575663,1,0.04215048626065254,1,-0.000916116579901427,1,0.0003440446744207293,1,-0.0003132112906314433,1
1773072561591272704,-0.008338171988725662,1,0.007212757132947445,1,0.03908409923315048,1,-0.0005234952550381422,1,0.0004277259868104011,1,-0.0003334802750032395,1
1773072561601022464,-0.00578395975753665,1,0.01070808712393045,1,0.03940246254205704,1,-0.0003048382932320237,1,0.0005083371652290225,1,-0.000184574382728897,1
1773072561610683392,-0.003816898446530104,1,0.01093642693012953,1,0.04202288389205933,1,-0.0004558756481856108,1,0.0008594233077019453,1,-0.0001416145969415084,1
1773072561620252928,-0.002743478864431381,1,0.01141654886305332,1,0.04321806505322456,1,-0.001102734939195216,1,0.0004695221432484686,1,-0.0003778735117521137,1
1773072561629731584,-0.001034496235661209,1,0.01611999422311783,1,0.04608122631907463,1,-0.00141566339880228,1,0.0009310826426371932,1,-0.000267233612248674,1
1773072561639121152,0.003780629020184278,1,0.01626677997410297,1,0.04911249503493309,1,-0.001965479925274849,1,0.0009349898900836706,1,-0.0002591291267890483,1
1773072561648717312,0.006481950636953115,1,0.02274033240973949,1,0.04905794933438301,1,-0.002103936159983277,1,0.0008894720813259482,1,-0.0003606111567933112,1
1773072561659404032,0.005861802026629448,1,0.02275395765900612,1,0.04755673184990883,1,-0.002435204572975636,1,0.0007367937942035496,1,-0.0001826843654271215,1
1773072561669987584,0.0009719275403767824,1,0.03338851034641266,1,0.04007828235626221,1,-0.002038138918578625,1,-1.359533598588314e-05,1,2.892642805818468e-05,1
1773072561680469760,0.002748341066762805,1,0.02679400704801083,1,0.0410427451133728,1,-0.0003597193863242865,1,-0.0004292612429708242,1,6.469651270890608e-05,1
1773072561690853632,0.003077448345720768,1,0.03346158191561699,1,0.03563018515706062,1,0.0005261360784061253,1,-0.0005302400677464902,1,3.046690835617483e-05,1
1773072561701138176,0.0005657246802002192,1,0.02962619997560978,1,0.01920533366501331,1,0.001182448817417026,1,-0.0004754168621730059,1,0.0002140896976925433,1
1773072561711323392,-0.01163904927670956,1,0.02559733018279076,1,0.01772909797728062,1,0.001655217143706977,1,-0.0005652287509292364,1,-2.270501863677055e-05,1
1773072561721411328,-0.005956703331321478,1,0.02226881682872772,1,0.01558986958116293,1,0.001253045629709959,1,-0.0004219450638629496,1,-0.0001958754291990772,1
1773072561731402240,0.004090058617293835,1,0.01235156506299973,1,0.02413173019886017,1,0.0007210916373878717,1,-0.0005206909845583141,1,-0.0003083078481722623,1
1773072561741296640,0.0001755810808390379,1,0.01467334106564522,1,0.0285014770925045,1,0.0004292007652111351,1,-0.0003431377990636975,1,-0.0005674716667272151,1
1773072561751105536,-0.01646123267710209,1,0.01208320818841457,1,0.03343430534005165,1,0.0008849109872244298,1,-0.0001204987347591668,1,-0.0002986978797707707,1
1773072561760821248,-0.006069638300687075,1,0.003827366512268782,1,0.0324428603053093,1,0.001373506151139736,1,-0.0002690760011319071,1,-0.0001267883199034259,1
1773072561770444032,0.007113642990589142,1,-0.004520599264651537,1,0.02416192181408405,1,0.002648169407621026,1,-0.0003344826982356608,1,0.0001078828936442733,1
1773072561779975168,0.00762669276446104,1,-0.01761738210916519,1,0.02812900766730309,1,0.004016508813947439,1,-0.0007120796944946051,1,0.000186259247129783,1
1773072561789414656,-0.004959363956004381,1,-0.02530041895806789,1,0.03385322168469429,1,0.00388764007948339,1,-0.0006872290978208184,1,0.0001099712826544419,1
1773072561798763008,-0.01333254016935825,1,-0.03311934694647789,1,0.03285150602459908,1,0.003074657171964645,1,-0.0009516695863567293,1,9.268623398384079e-05,1
1773072561808770560,-0.00695535633713007,1,-0.03356463089585304,1,0.03042995370924473,1,0.002631095936521888,1,-0.0007191484328359365,1,4.47947604698129e-05,1
1773072561819430144,-0.0001916887704282999,1,-0.03977308794856071,1,0.04036098718643188,1,0.001662240596488118,1,0.0001297040143981576,1,0.000337524339556694,1
1773072561829989888,0.002965398132801056,1,-0.03995758295059204,1,0.05266239866614342,1,0.0007111364393495023,1,0.000178517060703598,1,0.0003860785509459674,1
1773072561840448768,-0.002939569996669888,1,-0.03363893926143646,1,0.05383958294987679,1,-0.0005325861857272685,1,1.887801408884116e-05,1,0.0004493188171181828,1
1773072561850807552,-0.006970794405788183,1,-0.02768035605549812,1,0.05247633531689644,1,-0.0004161531687714159,1,-8.097022509900853e-05,1,0.0005915945512242615,1
1773072561861077248,-0.00997408851981163,1,-0.0232718251645565,1,0.056406419724226,1,-4.945049295201898e-05,1,-0.0001639441034058109,1,0.0002906888257712126,1
1773072561871248896,-0.00962240993976593,1,-0.01821943186223507,1,0.05278782173991203,1,2.652537295944057e-05,1,-0.0003740416141226888,1,0.0001953671308001503,1
1773072561881323520,-0.01500576455146074,1,-0.0140081224963069,1,0.04738105461001396,1,-0.0004115964402444661,1,-0.0008133926894515753,1,-8.153288945322856e-05,1
1773072561891301120,-0.02384244464337826,1,-0.007166889496147633,1,0.03757357969880104,1,-0.0007958689820952713,1,-0.000749952276237309,1,-0.0003130024997517467,1
1773072561901182464,-0.02483185939490795,1,-0.002159662544727325,1,0.03383385017514229,1,-0.0008814642205834389,1,-0.0001448072725906968,1,-0.0002284536167280748,1
1773072561910967808,-0.02449560537934303,1,-0.0006439208518713713,1,0.03444821387529373,1,-0.001075582345947623,1,3.111632031504996e-05,1,-0.0001326489145867527,1
1773072561920658688,-0.02483956143260002,1,0.005963842384517193,1,0.03306808695197105,1,-0.001392222242429852,1,0.0001519868383184075,1,-0.0004909450653940439,1
1773072561930255360,-0.02919976972043514,1,0.01081980392336845,1,0.03611162304878235,1,-0.001895946683362126,1,0.0004537719942163676,1,-0.0005268976092338562,1
1773072561939758848,-0.02608536183834076,1,0.01467700302600861,1,0.03733406215906143,1,-0.002773157088086009,1,0.0006308049196377397,1,-0.0004320132429711521,1
1773072561949170176,-0.02135221846401691,1,0.01920631900429726,1,0.03418876975774765,1,-0.00308582466095686,1,0.0006803687429055572,1,-0.0003596217720769346,1
1773072561958488064,-0.02011364884674549,1,0.0271981880068779,1,0.03375135362148285,1,-0.002465720754116774,1,0.0008215509005822241,1,-0.0003394728701096028,1
1773072561968923136,-0.0202642735093832,1,0.03114028647542,1,0.03494077920913696,1,-0.001899488735944033,1,0.0009912794921547174,1,-0.0002805754775181413,1
1773072561979558400,-0.01163365133106709,1,0.03682749345898628,1,0.03212544694542885,1,-0.00125069753266871,1,0.0006724814302287996,1,-0.0004181191907264292,1
1773072561990094336,-0.002746605779975653,1,0.04107745736837387,1,0.02516376785933971,1,-0.0007454471196979284,1,0.0009055939735844731,1,-0.000180865012225695,1
1773072562000530176,-0.005493315868079662,1,0.03861881420016289,1,0.0210613701492548,1,0.0007214889628812671,1,0.0009035568800754845,1,-0.0001155818317783996,1
1773072562010864640,-0.008764584548771381,1,0.03435713797807693,1,0.02586954645812511,1,0.001567808096297085,1,0.0007432927959598601,1,-2.405887062195688e-05,1
1773072562021099520,-0.0001974957995116711,1,0.02485127374529839,1,0.02766330167651176,1,0.001695682993158698,1,0.0006695236079394817,1,-2.614001277834177e-05,1
1773072562031232768,0.00878649577498436,1,0.01924179680645466,1,0.03654062002897263,1,0.00144590949639678,1,0.00116367731243372,1,-4.362528125056997e-05,1
1773072562041268224,0.0115362498909235,1,0.01531328912824392,1,0.044737808406353,1,0.001010936452075839,1,0.001123573048971593,1,-0.0001220396006829105,1
1773072562051207680,0.01276578474789858,1,0.01170686073601246,1,0.05272791907191277,1,-0.000393442518543452,1,0.001144249341450632,1,9.921197488438338e-06,1
1773072562061051392,0.01453496981412172,1,0.009535252116620541,1,0.05043752864003181,1,-0.001312036532908678,1,0.0009253611206077039,1,-9.140218753600493e-05,1
1773072562070825728,0.01894797757267952,1,0.01451968122273684,1,0.04142655059695244,1,-0.0007876455783843994,1,0.0004587400471791625,1,-7.415840809699148e-05,1
1773072562080504832,0.01431563310325146,1,0.009144257754087448,1,0.0352289117872715,1,0.0006289348821155727,1,8.070541662164032e-05,1,3.054083936149254e-05,1
1773072562090089984,0.007813790813088417,1,0.001857619849033654,1,0.03524953499436378,1,0.00169568823184818,1,-0.0002667622175067663,1,-6.707417196594179e-05,1
1773072562099581952,0.005101622082293034,1,0.0006028105271980166,1,0.02925225347280502,1,0.002521452493965626,1,-0.0007236715173348784,1,0.0001145908172475174,1
