FILE_INFO
ListSeparator=,
DecimalSeparator=.

SESSION_INFO
TimeZone,UTC
TimeZoneOffset,0
DateTimeFormat,MM/DD/YY h:mm:ss.nnnnnnnnn
StartTime,01/01/70 00:00:00.000000000
TimeFormat,Relative

DEVICE_INFO
Address,*

CHANNEL_INFO
Channel,Type,SampleRate,Equation,Coefficients,Unit,UnitSymbol,WhereApplied,WhenApplied
inertial-6286.188861:timeInfo_deltaTime_ahrsImu,Timeseries,200Hz,,,,,,
inertial-6286.188861:scaledAccelY,Timeseries,200Hz,,,,,,
inertial-6286.188861:scaledAccelX,Timeseries,200Hz,,,,,,
inertial-6286.188861:scaledAccelZ,Timeseries,200Hz,,,,,,
inertial-6286.188861:deltaVelX,Timeseries,200Hz,,,,,,
inertial-6286.188861:deltaVelY,Timeseries,200Hz,,,,,,
inertial-6286.188861:deltaVelZ,Timeseries,200Hz,,,,,,
inertial-6286.188861:deltaThetaX,Timeseries,200Hz,,,,,,
inertial-6286.188861:deltaThetaY,Timeseries,200Hz,,,,,,
inertial-6286.188861:deltaThetaZ,Timeseries,200Hz,,,,,,
inertial-6286.188861:estLinearAccelX,Timeseries,200Hz,,,,,,
inertial-6286.188861:estLinearAccelX:valid,ValidFlag,200Hz,,,,,,
inertial-6286.188861:estLinearAccelY,Timeseries,200Hz,,,,,,
inertial-6286.188861:estLinearAccelY:valid,ValidFlag,200Hz,,,,,,
inertial-6286.188861:estLinearAccelZ,Timeseries,200Hz,,,,,,
inertial-6286.188861:estLinearAccelZ:valid,ValidFlag,200Hz,,,,,,

DATA_START
Time,inertial-6286.188861:timeInfo_deltaTime_ahrsImu,inertial-6286.188861:scaledAccelY,inertial-6286.188861:scaledAccelX,inertial-6286.188861:scaledAccelZ,inertial-6286.188861:deltaVelX,inertial-6286.188861:deltaVelY,inertial-6286.188861:deltaVelZ,inertial-6286.188861:deltaThetaX,inertial-6286.188861:deltaThetaY,inertial-6286.188861:deltaThetaZ,inertial-6286.188861:estLinearAccelX,inertial-6286.188861:estLinearAccelX:valid,inertial-6286.188861:estLinearAccelY,inertial-6286.188861:estLinearAccelY:valid,inertial-6286.188861:estLinearAccelZ,inertial-6286.188861:estLinearAccelZ:valid
0.000000000,0.005,-0.01077427435666323,-0.02071221359074116,-0.9956027269363403,-0.0001019794945023023,-5.244941348792054e-05,-0.004981395788490772,5.012736437493004e-06,2.129977701770258e-06,5.570349230765714e-07,,,,,,
0.001141248,,,,,,,,,,,-0.007056898437440395,1,-0.009412168525159359,1,0.04069406911730766,1
0.005089024,0.005,-0.01103196851909161,-0.02069956995546818,-0.9953150153160095,-0.0001032442160067149,-5.688048986485228e-05,-0.004974398761987686,-6.292627290349628e-07,3.698816897212964e-07,2.377675400566659e-06,,,,,,
0.006156288,,,,,,,,,,,-0.006948135327547789,1,-0.01192520186305046,1,0.04351573437452316,1
0.010154752,0.005,-0.0112217552959919,-0.02062657848000526,-0.9954822659492493,-0.0001027128018904477,-5.717389285564423e-05,-0.004978450015187263,-1.396729203406721e-06,-8.53368476327887e-07,3.122426278423518e-06,,,,,,
0.011166464,,,,,,,,,,,-0.006235281936824322,1,-0.01377613563090563,1,0.04187525436282158,1
0.015196672,0.005,-0.01097273081541061,-0.02065166458487511,-0.995438277721405,-0.0001038312038872391,-5.324782250681892e-05,-0.00497720018029213,2.061231953121023e-06,5.000878786631802e-07,9.180968163491343e-07,,,,,,
0.016172033,,,,,,,,,,,-0.006490872707217932,1,-0.01132708787918091,1,0.04230707883834839,1
0.020214785,0.005,-0.01087864115834236,-0.02085593901574612,-0.9952268600463867,-0.0001056986075127497,-5.337761831469834e-05,-0.004974867682904005,-2.965400426546694e-06,1.437452738173306e-06,1.243188876287604e-06,,,,,,
0.021172993,,,,,,,,,,,-0.008505379781126976,1,-0.01040664687752724,1,0.04438041150569916,1
0.025209855,0.005,-0.01080325990915298,-0.02080688811838627,-0.9952626824378967,-0.0001037683177855797,-5.357578265829943e-05,-0.004976536147296429,3.008225803569076e-06,2.031879148489679e-06,1.759746282914421e-06,,,,,,
0.026169088,,,,,,,,,,,-0.008033312857151031,1,-0.009661583229899406,1,0.04402905330061913,1
0.030181631,0.005,-0.01061450410634279,-0.02055414207279682,-0.9952739477157593,-0.0001012194188660942,-5.183717075851746e-05,-0.004976361989974976,3.207581585229491e-06,-2.51756091529387e-06,-4.464363598799537e-07,,,,,,
0.031161344,,,,,,,,,,,-0.005558815784752369,1,-0.007793943397700787,1,0.04391858726739883,1
0.035133697,0.005,-0.01077062170952559,-0.0206737257540226,-0.9955422282218933,-0.0001043277588905767,-5.503293505171314e-05,-0.004979610908776522,-1.976072780962568e-06,-1.855294840424904e-06,-1.29423324324307e-06,,,,,,
0.036148991,,,,,,,,,,,-0.006727744825184345,1,-0.009307978674769402,1,0.0412871465086937,1
0.040062722,0.005,-0.01076299604028463,-0.02071511186659336,-0.9957171678543091,-0.0001037739421008155,-5.363277887227014e-05,-0.004979787394404411,-1.974193082787679e-06,-3.860439505842805e-07,-9.18430203000753e-07,,,,,,
0.041132033,,,,,,,,,,,-0.00713186664506793,1,-0.00922882929444313,1,0.03957231342792511,1
0.044968192,0.005,-0.01105024106800556,-0.02056690864264965,-0.9955713152885437,-0.0001020037670969032,-5.675427019014023e-05,-0.004976967349648476,-5.305068043526262e-06,1.278430204365577e-06,9.916979593072028e-08,,,,,,
0.046110209,,,,,,,,,,,-0.005680880043655634,1,-0.01206296123564243,1,0.04100251570343971,1
0.049850881,0.005,-0.01107361819595098,-0.02046781778335571,-0.9955627918243408,-0.0001016759124468081,-5.590205910266377e-05,-0.00497786607593298,-2.48824835580308e-06,-4.128727368879481e-07,8.790898675670178e-08,,,,,,
0.051083777,,,,,,,,,,,-0.004715824965387583,1,-0.01231159083545208,1,0.04108601808547974,1
0.054710783,0.005,-0.01096477825194597,-0.02078088372945786,-0.9953231811523438,-0.0001054597378242761,-5.404983676271513e-05,-0.004975372925400734,-1.683436494204216e-06,1.227375491907878e-06,1.286819184542765e-07,,,,,,
0.056052480,,,,,,,,,,,-0.007789135910570621,1,-0.0112593499943614,1,0.0434357263147831,1
0.059548158,0.005,-0.01114594098180532,-0.02065236121416092,-0.995218813419342,-0.0001024769298965111,-5.666264041792601e-05,-0.004974966403096914,-7.366246791207232e-06,-2.605972213132191e-06,-2.442142431391403e-06,,,,,,
0.061016575,,,,,,,,,,,-0.006536100991070271,1,-0.01306894794106483,1,0.04446005821228027,1
0.064363010,0.005,-0.0113397566601634,-0.02062110975384712,-0.9953606724739075,-0.0001029479026328772,-5.786608744529076e-05,-0.00497756851837039,1.178691718450864e-06,9.644455758461845e-07,1.676207489254011e-06,,,,,,
0.065976322,,,,,,,,,,,-0.006221691612154245,1,-0.01499174535274506,1,0.04306894540786743,1
0.069155328,0.005,-0.01125179883092642,-0.02074914239346981,-0.9955072999000549,-0.0001042252406477928,-5.61855522391852e-05,-0.004978393670171499,-3.704418531924603e-06,1.704350665931997e-06,1.596681727278337e-06,,,,,,
0.070931204,,,,,,,,,,,-0.007490498479455709,1,-0.01414569187909365,1,0.04163186252117157,1
0.074365184,0.005,-0.01133622415363789,-0.02062857151031494,-0.9955663084983826,-0.0001028825354296714,-5.691018668585457e-05,-0.00497797504067421,4.075965080119204e-06,2.628702532092575e-06,1.463830471948313e-06,,,,,,
0.075969793,,,,,,,,,,,-0.006321289110928774,1,-0.01497842650860548,1,0.04105294495820999,1
0.079551488,0.005,-0.01156949438154697,-0.02063633874058723,-0.9957042336463928,-0.0001034065644489601,-5.927581878495403e-05,-0.004979744553565979,-9.688346125358294e-08,2.998046511493158e-06,1.936625494636246e-06,,,,,,
0.081003778,,,,,,,,,,,-0.006423186976462603,1,-0.01726273447275162,1,0.03970053791999817,1
0.084714241,0.005,-0.01174065470695496,-0.02051131427288055,-0.9956951141357422,-0.0001017875401885249,-5.957515168120153e-05,-0.004978280048817396,9.329466479357507e-07,-2.428017069178168e-06,1.080362494576548e-06,,,,,,
0.086033151,,,,,,,,,,,-0.005210449453443289,1,-0.0189357865601778,1,0.03979001939296722,1
0.089853443,0.005,-0.01152047421783209,-0.02050607651472092,-0.9956710338592529,-0.0001025416131597012,-5.617162969429046e-05,-0.004978388082236052,1.074776946552447e-06,1.510052527464723e-07,-3.757704689633101e-07,,,,,,
0.091057919,,,,,,,,,,,-0.005133209750056267,1,-0.01672059670090675,1,0.04002557694911957,1
0.094969086,0.005,-0.01134244631975889,-0.02036258950829506,-0.9957296252250671,-0.0001011310159810819,-5.604092802968808e-05,-0.004979019984602928,-3.561335759627582e-08,-7.099308277247474e-06,-7.894801683505648e-07,,,,,,
0.096078083,,,,,,,,,,,-0.003693579230457544,1,-0.0149396937340498,1,0.03944982960820198,1
0.100061186,0.005,-0.01122232154011726,-0.0205846019089222,-0.9953238964080811,-0.0001042669755406678,-5.496598168974742e-05,-0.004974463023245335,-4.484946657612454e-06,-2.250912984891329e-06,1.942290055012563e-06,,,,,,
0.101093888,,,,,,,,,,,-0.005836002063006163,1,-0.0137534998357296,1,0.04342808201909065,1
0.105130494,0.005,-0.0113691370934248,-0.02053484693169594,-0.9952619671821594,-0.0001026198151521385,-5.772479926235974e-05,-0.004975969437509775,4.540503084626835e-07,-1.546716362099687e-06,-2.59097487287363e-06,,,,,,
0.106104828,,,,,,,,,,,-0.005322252865880728,1,-0.015185228548944,1,0.04403528571128845,1
0.110180862,0.005,-0.01115742977708578,-0.02044796757400036,-0.9954246878623962,-0.0001018979746731929,-5.467177470563911e-05,-0.004978222772479057,-3.279841820358342e-08,5.828949724673294e-06,-3.624073485752888e-07,,,,,,
0.111112960,,,,,,,,,,,-0.004476147703826427,1,-0.0131039209663868,1,0.04243923723697662,1
0.115211517,0.005,-0.01119897421449423,-0.02052273601293564,-0.9957459568977356,-0.0001029711129376665,-5.651910760207102e-05,-0.004980939440429211,-8.857267062012397e-07,-5.558694056162494e-07,-1.596742777110194e-06,,,,,,
0.116116479,,,,,,,,,,,-0.005220290273427963,1,-0.01350990775972605,1,0.03928916156291962,1
0.120219134,0.005,-0.01156098302453756,-0.02063374593853951,-0.9957021474838257,-0.000103902246337384,-5.998737105983309e-05,-0.00497822742909193,-2.410575461908593e-06,-8.890033313946333e-07,2.450200554449111e-06,,,,,,
0.121115133,,,,,,,,,,,-0.006313084159046412,1,-0.01706280373036861,1,0.03971904888749123,1
0.125204220,0.005,-0.01130241341888905,-0.02055954188108444,-0.9954484701156616,-0.0001028201513690874,-5.503897773451172e-05,-0.004976131953299046,3.426617013246869e-06,4.366752648365946e-07,4.031888238387182e-06,,,,,,
0.126109436,,,,,,,,,,,-0.005589502863585949,1,-0.01452374458312988,1,0.04220697283744812,1
0.130166784,0.005,-0.01099784951657057,-0.02044372074306011,-0.9956698417663574,-0.0001014587323879823,-5.29092394572217e-05,-0.004979966208338737,-1.859361077549693e-06,-1.795972082163644e-07,-2.865791884687496e-06,,,,,,
0.131099135,,,,,,,,,,,-0.004457042552530766,1,-0.01152669079601765,1,0.04003532603383064,1
0.135106042,0.005,-0.01102785672992468,-0.02065824531018734,-0.9954801201820374,-0.0001042664516717196,-5.51563389308285e-05,-0.004976308904588223,-7.450775001416332e-07,-3.492327095955261e-06,-7.516054552070273e-07,,,,,,
0.136084482,,,,,,,,,,,-0.006554182153195143,1,-0.01182125322520733,1,0.04189616441726685,1
0.140023813,0.005,-0.01106646750122309,-0.02067780680954456,-0.9953949451446533,-0.0001036047906382009,-5.56659942958504e-05,-0.004976402968168259,-3.313152205919323e-07,6.231712177395821e-07,-1.510958668404783e-06,,,,,,
0.141064957,,,,,,,,,,,-0.006737738382071257,1,-0.01219808962196112,1,0.04273036867380142,1
0.144918531,0.005,-0.01095963921397924,-0.02047641202807426,-0.9955160021781921,-0.0001007857354125008,-5.402041279012337e-05,-0.004978046752512455,-2.336587527906886e-07,1.174022486338799e-06,1.444490749236138e-06,,,,,,
0.146041095,,,,,,,,,,,-0.004765802063047886,1,-0.01115189492702484,1,0.04154395312070847,1
0.149790972,0.005,-0.01089856214821339,-0.02068133093416691,-0.9954947829246521,-0.0001051299041137099,-5.406405398389325e-05,-0.004977835342288017,2.441347760395729e-06,-3.393650558791705e-06,6.377084673658828e-07,,,,,,
0.151012614,,,,,,,,,,,-0.006772117223590612,1,-0.01054401602596045,1,0.04175153002142906,1
0.154640645,0.005,-0.01081852521747351,-0.02089556120336056,-0.9953144192695618,-0.0001056598412105814,-5.324896483216435e-05,-0.004975819960236549,-4.713243015430635e-06,-3.32015503090588e-07,1.625127652005176e-06,,,,,,
0.155979514,,,,,,,,,,,-0.00886115338653326,1,-0.00975895207375288,1,0.04351973906159401,1
0.159467772,0.005,-0.01077425479888916,-0.02069595642387867,-0.9953964352607727,-0.0001024710800265893,-5.338091796147637e-05,-0.004977262113243341,3.504229084683175e-08,-4.598782652465161e-06,-2.2024973986845e-06,,,,,,
0.160941824,,,,,,,,,,,-0.006887249182909727,1,-0.009338338859379292,1,0.04271602258086205,1
0.164275706,0.005,-0.01087996084243059,-0.02062894403934479,-0.9952749609947205,-0.0001025058300001547,-5.518960824701935e-05,-0.004975580610334873,-3.705453082147869e-06,-1.117983742915385e-06,1.180932045485861e-07,,,,,,
0.165900037,,,,,,,,,,,-0.006208958104252815,1,-0.01038343738764524,1,0.04390664398670197,1
0.169401094,0.005,-0.01126979012042284,-0.02082095853984356,-0.995750904083252,-0.0001053113810485229,-5.871981556992978e-05,-0.004981770180165768,2.947153063814767e-07,-3.60117269337934e-06,-8.765392749410239e-07,,,,,,
0.170938626,,,,,,,,,,,-0.008073905482888222,1,-0.01421725656837225,1,0.03923928737640381,1
0.174587652,0.005,-0.01120030973106623,-0.02076445892453194,-0.9956950545310974,-0.0001034917659126222,-5.579681601375341e-05,-0.004978185053914785,-2.890656787712942e-06,-1.649356477173569e-06,4.157063813181594e-06,,,,,,
0.175972611,,,,,,,,,,,-0.007502644788473845,1,-0.01354863122105598,1,0.03978664800524712,1
0.179750919,0.005,-0.01096069905906916,-0.02082748152315617,-0.9955920577049255,-0.000104598977486603,-5.343124576029368e-05,-0.004977317992597818,-2.620583245516173e-06,3.604613709740079e-07,8.737964662941522e-07,,,,,,
0.181002244,,,,,,,,,,,-0.008113835006952286,1,-0.0112092811614275,1,0.04079680517315865,1
0.184889346,0.005,-0.01093436218798161,-0.02060071565210819,-0.9954656958580017,-0.0001014463923638687,-5.470588075695559e-05,-0.0049766656011343,3.285544607933844e-06,-6.337006652756827e-06,1.392116132592491e-06,,,,,,
0.186027259,,,,,,,,,,,-0.00586889311671257,1,-0.01095223426818848,1,0.04203594475984573,1
0.190006271,0.005,-0.01099492702633142,-0.02061034925282001,-0.9955282807350159,-0.0001026406534947455,-5.538880941458046e-05,-0.004977841395884752,2.659784286151989e-06,-4.953622010361869e-06,-1.572240364566824e-07,,,,,,
0.191048443,,,,,,,,,,,-0.005927902180701494,1,-0.01153237465769053,1,0.04142126068472862,1
0.195102215,0.005,-0.01092534326016903,-0.02053451351821423,-0.995628297328949,-0.0001024292141664773,-5.412925747805275e-05,-0.00497882766649127,3.840296358248452e-06,2.242717982881004e-06,-1.675134200240791e-07,,,,,,
0.196065024,,,,,,,,,,,-0.00516813388094306,1,-0.01082256622612476,1,0.04043972119688988,1
0.200175613,0.005,-0.01081486418843269,-0.02077948488295078,-0.9953505396842957,-0.0001055558823281899,-5.335692185326479e-05,-0.004975180141627789,1.214998860632477e-06,3.103054496023105e-06,2.014725851040566e-06,,,,,,
0.201076731,,,,,,,,,,,-0.00757317803800106,1,-0.009716437198221684,1,0.04316337779164314,1
0.205224961,0.005,-0.01102269068360329,-0.02087757922708988,-0.995194137096405,-0.0001050724822562188,-5.61818087589927e-05,-0.004974980838596821,-3.423989483053447e-06,3.051943338050478e-07,-1.579861873324262e-06,,,,,,
0.206084102,,,,,,,,,,,-0.008548285812139511,1,-0.01174869295209646,1,0.04469729214906693,1
0.210250244,0.005,-0.0113232834264636,-0.0207783542573452,-0.9951686263084412,-0.0001035034001688473,-5.879591844859533e-05,-0.004975723102688789,1.91961953532882e-06,-5.360296313483559e-07,8.292852271551965e-07,,,,,,
0.211086586,,,,,,,,,,,-0.007584119215607643,1,-0.01468954887241125,1,0.04494771361351013,1
0.215251967,0.005,-0.01119771040976048,-0.02058058045804501,-0.9951097965240479,-0.0001017548056552187,-5.486797090270557e-05,-0.004975832998752594,2.612349362607347e-06,-3.668527597255888e-06,2.298036861247965e-06,,,,,,
0.216084480,,,,,,,,,,,-0.005636343732476234,1,-0.01343878265470266,1,0.04552397504448891,1
0.220231935,0.005,-0.01107225101441145,-0.02063428610563278,-0.9951879382133484,-0.0001036214089253917,-5.450387834571302e-05,-0.004976191092282534,2.88956061922363e-06,1.750819706103357e-06,1.984706159419147e-06,,,,,,
0.221077755,,,,,,,,,,,-0.006156512070447206,1,-0.01218472886830568,1,0.0447576530277729,1
0.225188866,0.005,-0.01077605597674847,-0.02052321843802929,-0.9955134391784668,-0.0001022850337903947,-5.211961979512125e-05,-0.004979506134986877,1.250738591807021e-06,2.127732386725256e-06,-9.947563057721709e-07,,,,,,
0.226066425,,,,,,,,,,,-0.005077118519693613,1,-0.009259585291147232,1,0.04156509786844254,1
0.230123013,0.005,-0.01088450476527214,-0.02044001035392284,-0.9956828355789185,-0.000101916775747668,-5.509809852810577e-05,-0.004979407414793968,-4.349185928731458e-06,-1.250115246875794e-06,-2.513098479539622e-06,,,,,,
0.231050745,,,,,,,,,,,-0.004271040204912424,1,-0.01031562499701977,1,0.03990418463945389,1
0.235034630,0.005,-0.01140609383583069,-0.02044796384871006,-0.9954572916030884,-0.0001022800133796409,-6.027611379977316e-05,-0.004976202733814716,2.159240466426127e-06,3.717882464115974e-06,2.765375484159449e-06,,,,,,
0.236030206,,,,,,,,,,,-0.004361211787909269,1,-0.01542742270976305,1,0.04211653023958206,1
0.239924222,0.005,-0.01118156034499407,-0.02076128870248795,-0.9953849315643311,-0.0001058206034940667,-5.478112143464386e-05,-0.004976102150976658,-2.3058391889208e-06,-1.080734705283248e-06,1.250221657755901e-06,,,,,,
0.241005063,,,,,,,,,,,-0.007444072980433702,1,-0.01322594750672579,1,0.04282619431614876,1
0.244793087,0.005,-0.01131394784897566,-0.02052484638988972,-0.9953275918960571,-0.0001013417786452919,-5.693826824426651e-05,-0.004976002033799887,-2.792253098959918e-06,-3.942579041904537e-06,1.259091618521779e-06,,,,,,
0.245976061,,,,,,,,,,,-0.005123219452798367,1,-0.01452566590160131,1,0.04338844493031502,1
0.249639675,0.005,-0.01137877255678177,-0.02056558430194855,-0.9955866932868958,-0.0001029641716741025,-5.740591950598173e-05,-0.004979097284376621,8.493705081491498e-07,1.447401359655487e-06,-5.238964604359353e-07,,,,,,
0.250942200,,,,,,,,,,,-0.005518998950719833,1,-0.01516411174088717,1,0.04084716737270355,1
0.254464000,0.005,-0.01131586078554392,-0.02068847976624966,-0.9955531358718872,-0.0001042777730617672,-5.613826942862943e-05,-0.00497777946293354,-2.519314648452564e-06,4.013053285234491e-07,1.864999603640172e-07,,,,,,
0.255903989,,,,,,,,,,,-0.006728882901370525,1,-0.01455355156213045,1,0.04117582738399506,1
0.259266049,0.005,-0.01109756249934435,-0.02072267048060894,-0.9953007102012634,-0.0001040099450619891,-5.431259705801494e-05,-0.004975183866918087,1.750433739289292e-06,-4.249621269991621e-06,-4.117676724035846e-07,,,,,,
0.260860920,,,,,,,,,,,-0.007054806686937809,1,-0.01241323165595531,1,0.0436517670750618,1
0.264392197,0.005,-0.01115232892334461,-0.02040410041809082,-0.99532550573349,-0.0001004133227979764,-5.598369534709491e-05,-0.004976567346602678,-1.579865624989907e-07,-5.949657975179434e-07,4.969456881553924e-07,,,,,,
0.265900046,,,,,,,,,,,-0.003919537644833326,1,-0.01294239237904549,1,0.04340877011418343,1
0.269581825,0.005,-0.01120613235980272,-0.0206731054931879,-0.9954178333282471,-0.0001050702267093584,-5.641953976009972e-05,-0.004978078417479992,-3.381328042451059e-06,2.888702965719858e-07,-2.9938489660708e-06,,,,,,
0.270934522,,,,,,,,,,,-0.006551702972501516,1,-0.01348101906478405,1,0.04250315576791763,1
0.274747401,0.005,-0.01103849709033966,-0.02092237770557404,-0.9952203631401062,-0.0001063360105035827,-5.411462188931182e-05,-0.004974994342774153,-5.414250608737348e-06,1.10881921955297e-06,-3.057768708458752e-06,,,,,,
0.275964677,,,,,,,,,,,-0.008999228477478027,1,-0.0118570551276207,1,0.04443966224789619,1
0.279888391,0.005,-0.01118508540093899,-0.02091574110090733,-0.9953476786613464,-0.0001046930119628087,-5.683655763277784e-05,-0.004977339878678322,-2.176554062316427e-06,2.43574618252751e-06,-2.075957326042044e-07,,,,,,
0.280990213,,,,,,,,,,,-0.008947338908910751,1,-0.01332271192222834,1,0.04319151118397713,1
0.285008907,0.005,-0.01103742048144341,-0.02067681215703487,-0.9950864911079407,-0.0001021967545966618,-5.406612763181329e-05,-0.00497360760346055,-1.750857109072967e-06,-4.638123755285051e-06,7.64640276429418e-07,,,,,,
0.286011904,,,,,,,,,,,-0.006604987196624279,1,-0.0118974382057786,1,0.04575251415371895,1
0.290107399,0.005,-0.01089291088283062,-0.02053544297814369,-0.9953440427780151,-0.0001020726194838062,-5.359441638574935e-05,-0.004978006239980459,2.865913529603858e-06,2.474330358381849e-06,-4.631551291822689e-06,,,,,,
0.291029006,,,,,,,,,,,-0.005198774859309196,1,-0.01044216006994247,1,0.04322616755962372,1
0.295182854,0.005,-0.01090183481574059,-0.0207930076867342,-0.9954099059104919,-0.0001051738145179115,-5.43099085916765e-05,-0.004977284464985132,-4.364323103800416e-06,-5.516804435501399e-07,-2.191899511672091e-06,,,,,,
0.296041459,,,,,,,,,,,-0.007716749794781208,1,-0.0105090718716383,1,0.04257996380329132,1
0.300235778,0.005,-0.01091402489691973,-0.02073986828327179,-0.9953198432922363,-0.0001035716850310564,-5.480511026689783e-05,-0.004975947551429272,-1.279565140066552e-06,-2.54338715421909e-07,6.338642037917452e-07,,,,,,
0.301049352,,,,,,,,,,,-0.007189546246081591,1,-0.01062105968594551,1,0.04346397146582603,1
0.305264890,0.005,-0.01107974909245968,-0.02075444906949997,-0.9952542185783386,-0.0001041042269207537,-5.664742639055476e-05,-0.004975755698978901,1.279367722872848e-07,2.5244054313589e-07,1.511957179900492e-06,,,,,,
0.306052595,,,,,,,,,,,-0.007331657689064741,1,-0.01224050857126713,1,0.04410722106695175,1
0.310270220,0.005,-0.0112266568467021,-0.02075621299445629,-0.9953089356422424,-0.0001036231478792615,-5.68316645512823e-05,-0.004976392257958651,-2.079838850477245e-06,-1.204881812100211e-07,-2.202633368142415e-06,,,,,,
0.311051518,,,,,,,,,,,-0.007347531151026487,1,-0.01368014980107546,1,0.04357012733817101,1
0.315253496,0.005,-0.01144574861973524,-0.02065644413232803,-0.9954748153686523,-0.0001030909843393601,-5.860014061909169e-05,-0.004978477023541927,-4.44599299953552e-06,-3.628358399510034e-06,-2.614055802041548e-06,,,,,,
0.316045582,,,,,,,,,,,-0.006364373024553061,1,-0.01584475487470627,1,0.04194360971450806,1
0.320213258,0.005,-0.0113271651789546,-0.02073354832828045,-0.9953082799911499,-0.0001042363364831544,-5.618785144179128e-05,-0.004975758492946625,-6.419595592888072e-06,-2.813689661707031e-06,-3.552309408405563e-06,,,,,,
0.321034759,,,,,,,,,,,-0.007102351170033216,1,-0.01471639331430197,1,0.04357662796974182,1
0.325149953,0.005,-0.01129612233489752,-0.02062337286770344,-0.9954990148544312,-0.0001026022800942883,-5.637453068629839e-05,-0.004978341050446033,-3.120970404779655e-06,1.934322199304006e-06,3.621410769483191e-06,,,,,,
0.326019317,,,,,,,,,,,-0.006021518260240555,1,-0.01444376166909933,1,0.04170631617307663,1
0.330063879,0.005,-0.01111310441046953,-0.02064004726707935,-0.995811402797699,-0.0001035523018799722,-5.482976121129468e-05,-0.004980376921594143,6.467946604971075e-07,-6.398575806088047e-06,-2.623811496960116e-07,,,,,,
0.330999285,,,,,,,,,,,-0.006167984567582607,1,-0.01266421191394329,1,0.03864274173974991,1
0.334954500,0.005,-0.01134256552904844,-0.02084549702703953,-0.995805561542511,-0.0001051267390721478,-5.764594970969483e-05,-0.00497950566932559,-1.200649194288417e-06,-5.425741619546898e-06,6.414941253751749e-07,,,,,,
0.335974663,,,,,,,,,,,-0.008144872263073921,1,-0.01492820400744677,1,0.03869973868131638,1
0.339824885,0.005,-0.01126829069107771,-0.02093240432441235,-0.9957489371299744,-0.0001053015002980828,-5.583274469245225e-05,-0.004978623241186142,-4.270208592060953e-06,3.028474338861997e-06,-2.884605919462047e-06,,,,,,
0.340945929,,,,,,,,,,,-0.008979565463960171,1,-0.01421536132693291,1,0.03925465047359467,1
0.344672769,0.005,-0.01114907208830118,-0.02103928849101067,-0.9952756762504578,-0.000105935541796498,-5.535308082471602e-05,-0.004973761737346649,-2.10831785807386e-06,-1.644002509237907e-06,-8.439807857030246e-07,,,,,,
0.345912308,,,,,,,,,,,-0.01002142764627934,1,-0.01306784618645906,1,0.04389595985412598,1
0.349498123,0.005,-0.01116065215319395,-0.02123123966157436,-0.9951916337013245,-0.0001077885026461445,-5.618808791041374e-05,-0.00497535103932023,-3.992496658611344e-06,-3.835875617141937e-08,-3.244117124268087e-06,,,,,,
0.350874364,,,,,,,,,,,-0.01189581863582134,1,-0.0132064213976264,1,0.0447205938398838,1
0.354300678,0.005,-0.01121919974684715,-0.02071802318096161,-0.9954208731651306,-0.0001002415883704089,-5.658678855979815e-05,-0.004978218115866184,-5.343892098608194e-06,-6.209852472238708e-07,2.881240561691811e-06,,,,,,
0.355831563,,,,,,,,,,,-0.006864264141768217,1,-0.0138147808611393,1,0.04247266426682472,1
0.359341562,0.005,-0.01120755076408386,-0.02081559412181377,-0.9951063394546509,-0.0001043955635395832,-5.594820686383173e-05,-0.004973762203007936,-5.985236128935867e-08,3.705255267050234e-06,4.456829628907144e-06,,,,,,
0.360871166,,,,,,,,,,,-0.007828998379409313,1,-0.0137277590110898,1,0.045558150857687,1
0.364532739,0.005,-0.01112900953739882,-0.02086709253489971,-0.9953275322914124,-0.0001045090248226188,-5.543990118894726e-05,-0.00497808214277029,-1.720364366519789e-07,5.406868240243057e-06,2.896673777286196e-06,,,,,,
0.365906179,,,,,,,,,,,-0.008363920263946056,1,-0.0129709281027317,1,0.0433896891772747,1
0.369701385,0.005,-0.01135139726102352,-0.02082829736173153,-0.9950672388076782,-0.0001041540963342413,-5.817519559059292e-05,-0.0049738809466362,5.920004042536675e-08,7.246997029142221e-07,6.52578364679357e-07,,,,,,
0.370936841,,,,,,,,,,,-0.008004861883819103,1,-0.01515437476336956,1,0.04594200104475021,1
0.374845177,0.005,-0.01126286201179028,-0.02073140442371368,-0.9954988360404968,-0.0001033280423143879,-5.561665966524743e-05,-0.004980290308594704,-1.234425894836022e-07,1.61424168254598e-06,-2.354986690988881e-06,,,,,,
0.375962615,,,,,,,,,,,-0.007076621055603027,1,-0.01428861171007156,1,0.04170980304479599,1
0.379964411,0.005,-0.01126338634639978,-0.02063123881816864,-0.9954885840415955,-0.0001025442834361456,-5.594094545813277e-05,-0.004977507051080465,-2.232893393738777e-06,1.13342491658841e-06,-1.367658768458568e-07,,,,,,
0.380983800,,,,,,,,,,,-0.0061178975738585,1,-0.0142897991463542,1,0.04181075468659401,1
0.385060102,0.005,-0.01132956333458424,-0.0205753780901432,-0.9953459501266479,-0.0001026163372443989,-5.705625517293811e-05,-0.004976138006895781,-2.669790546860895e-06,2.85573673863837e-06,-6.382553578987427e-07,,,,,,
0.386000395,,,,,,,,,,,-0.005591057240962982,1,-0.01494982652366161,1,0.04321048781275749,1
0.390132725,0.005,-0.01109160110354424,-0.02070934511721134,-0.9954257011413574,-0.0001047628320520744,-5.408109791460447e-05,-0.004977473057806492,-8.224050361604895e-06,-3.235238210663738e-08,1.340269022875873e-06,,,,,,
0.391012102,,,,,,,,,,,-0.006922416388988495,1,-0.01264651492238045,1,0.04242895916104317,1
0.395182341,0.005,-0.01105864904820919,-0.02063293941318989,-0.9955768585205078,-0.0001027954931487329,-5.481459083966911e-05,-0.004979005549103022,-2.706647364902892e-06,4.343712589616189e-06,-6.801867016292817e-07,,,,,,
0.396019459,,,,,,,,,,,-0.006203911267220974,1,-0.0123599199578166,1,0.04094742238521576,1
0.400208116,0.005,-0.01122044306248426,-0.02082771062850952,-0.9954070448875427,-0.0001050273276632652,-5.740813139709644e-05,-0.004975857213139534,-3.201191930202185e-06,-1.129895963458694e-06,2.312105493729177e-07,,,,,,
0.401021957,,,,,,,,,,,-0.008129970170557499,1,-0.01397767942398787,1,0.04261370375752449,1
0.405210614,0.005,-0.01120308414101601,-0.02071711793541908,-0.9952763319015503,-0.0001026430691126734,-5.603841782431118e-05,-0.00497561227530241,-4.862690730078612e-07,-3.924530119547853e-06,3.220252153823822e-07,,,,,,
0.406020105,,,,,,,,,,,-0.007037888281047344,1,-0.01382733602076769,1,0.04389559105038643,1
0.410202116,0.005,-0.01130578387528658,-0.02049383893609047,-0.9953548312187195,-0.0001012976281344891,-5.703514398192056e-05,-0.004976995289325714,-2.506497821741505e-06,-2.99151423632793e-07,-1.421826254954794e-06,,,,,,
0.411015689,,,,,,,,,,,-0.004848575219511986,1,-0.01485470682382584,1,0.04312554001808167,1
0.415171325,0.005,-0.01115714386105537,-0.02065344154834747,-0.9954841732978821,-0.0001037976835505106,-5.501004852703772e-05,-0.004978302400559187,-9.871392876448226e-07,5.449758191389265e-07,-3.094454768870492e-06,,,,,,
0.416006923,,,,,,,,,,,-0.006414665840566158,1,-0.01340401545166969,1,0.04185732826590538,1
0.420117497,0.005,-0.01106553245335817,-0.02068180404603481,-0.9956663846969604,-0.0001037842012010515,-5.505718945642002e-05,-0.00497915456071496,-3.763298082049005e-06,-5.082217739982298e-06,-2.26753996912521e-07,,,,,,
0.420993537,,,,,,,,,,,-0.006683214101940393,1,-0.01252500060945749,1,0.0400707945227623,1
0.425041914,0.005,-0.01124416664242744,-0.02059995196759701,-0.9956491589546204,-0.0001022476717480458,-5.732226418331265e-05,-0.0049784230068326,-3.264106453571003e-06,-3.841506440949161e-06,-4.003968570032157e-07,,,,,,
0.425975800,,,,,,,,,,,-0.005855593364685774,1,-0.0143015356734395,1,0.04023897275328636,1
0.429943562,0.005,-0.01110269594937563,-0.02071653120219707,-0.9955043196678162,-0.0001046557663357817,-5.452383265946992e-05,-0.004976562224328518,4.100695150555111e-06,-1.376914724460221e-06,6.735673423463595e-07,,,,,,
0.430953205,,,,,,,,,,,-0.006973187439143658,1,-0.01291898917406797,1,0.04165865853428841,1
0.434823930,0.005,-0.01121267024427652,-0.02043330855667591,-0.9953351020812988,-0.000100431585451588,-5.665377466357313e-05,-0.004975435324013233,-3.511843715386931e-06,3.546122570696753e-06,6.322102308331523e-07,,,,,,
0.435926795,,,,,,,,,,,-0.004195214249193668,1,-0.01399698760360479,1,0.043318260461092,1
0.439682305,0.005,-0.01108232885599136,-0.02066737972199917,-0.9950955510139465,-0.0001050898208632134,-5.476731894304976e-05,-0.004973790608346462,-2.070342361548683e-06,1.135403309149297e-07,-6.871732693980448e-07,,,,,,
0.440895498,,,,,,,,,,,-0.006501269992440939,1,-0.01273614168167114,1,0.04566781967878342,1
0.444517881,0.005,-0.01131641678512096,-0.0206880085170269,-0.9954085946083069,-0.0001033388689393178,-5.786971814814024e-05,-0.004979211371392012,-3.828960871032905e-06,-2.632623591125594e-06,-1.877681370388018e-06,,,,,,
0.445859581,,,,,,,,,,,-0.006696858443319798,1,-0.01504746731370687,1,0.04259790107607841,1
0.449331462,0.005,-0.01145573053508997,-0.0207721684128046,-0.9954699873924255,-0.0001042960066115484,-5.863772094016895e-05,-0.004978136159479618,3.457316552157863e-06,-1.593267029420531e-06,7.27271356026904e-07,,,,,,
0.450819075,,,,,,,,,,,-0.007512778509408236,1,-0.0164159070700407,1,0.04199608787894249,1
0.454293489,0.005,-0.0112422863021493,-0.02085058763623238,-0.995502233505249,-0.000104921571619343,-5.494380457093939e-05,-0.004978202749043703,6.496273272205144e-06,-5.39220354767167e-06,1.353274001303362e-06,,,,,,
0.455859452,,,,,,,,,,,-0.008262773975729942,1,-0.01429963577538729,1,0.04167957231402397,1
0.459489524,0.005,-0.01111054141074419,-0.02073189057409763,-0.9953853487968445,-0.0001030457060551271,-5.465402500703931e-05,-0.004976192023605108,-9.407295351593348e-07,1.787998144209269e-06,-1.771586653376289e-06,,,,,,
0.460895240,,,,,,,,,,,-0.0070835305377841,1,-0.0129848662763834,1,0.04282565042376518,1
0.464662522,0.005,-0.01107253786176443,-0.02072806656360626,-0.9954948425292969,-0.0001032454165397212,-5.505311855813488e-05,-0.00497815664857626,2.258475888083922e-06,-3.63784124601807e-06,-5.241291091806488e-06,,,,,,
0.465926647,,,,,,,,,,,-0.00703331409022212,1,-0.01259054429829121,1,0.04175083339214325,1
0.469811201,0.005,-0.011048324406147,-0.02068326622247696,-0.9952792525291443,-0.0001033794396789744,-5.522236824617721e-05,-0.004975239280611277,-2.268193838972365e-06,3.599768433559802e-06,9.345542366645532e-07,,,,,,
0.470953465,,,,,,,,,,,-0.006593755912035704,1,-0.01233751326799393,1,0.04386455565690994,1
0.474937350,0.005,-0.01107463706284761,-0.0203466285020113,-0.9952511191368103,-9.995006985263899e-05,-5.563231025007553e-05,-0.004976133815944195,-4.882695066044107e-06,5.090179001854267e-06,-2.114491508109495e-06,,,,,,
0.475976199,,,,,,,,,,,-0.003318525850772858,1,-0.01261109672486782,1,0.04414099454879761,1
0.480041206,0.005,-0.01098012458533049,-0.02057049795985222,-0.9952362775802612,-0.0001040541537804529,-5.444935959530994e-05,-0.004975831601768732,-4.290044671506621e-06,-1.742352083056176e-06,9.200845738632779e-07,,,,,,
0.480994552,,,,,,,,,,,-0.005530151538550854,1,-0.01171120814979076,1,0.04428757354617119,1
0.485122561,0.005,-0.01081843115389347,-0.02047647535800934,-0.995190441608429,-0.0001016527457977645,-5.311360655468889e-05,-0.00497543765231967,1.69312795605947e-06,2.818481107169646e-06,-8.780372695582628e-07,,,,,,
0.486008078,,,,,,,,,,,-0.004620620049536228,1,-0.01013560965657234,1,0.04473693668842316,1
0.490181118,0.005,-0.01103565469384193,-0.02046884037554264,-0.9953776001930237,-0.0001020879863062873,-5.641488314722665e-05,-0.004977751523256302,-2.571684035501676e-06,-2.528505831378425e-07,-4.507641335749213e-07,,,,,,
0.491017222,,,,,,,,,,,-0.004544198513031006,1,-0.01223128568381071,1,0.04290096461772919,1
0.495215625,0.005,-0.0107730133458972,-0.02040529064834118,-0.9949890375137329,-0.0001013961809803732,-5.236853030510247e-05,-0.004972708411514759,-1.237530341313686e-06,1.840070012804063e-06,-9.162558001207799e-08,,,,,,
0.496021509,,,,,,,,,,,-0.003916539251804352,1,-0.009630582295358181,1,0.04671144858002663,1
0.500226557,0.005,-0.01114903204143047,-0.02059481851756573,-0.9949734807014465,-0.0001040396527969278,-5.793970194645226e-05,-0.004974622745066881,5.713658310924075e-07,-3.982601811003406e-06,1.693335889285663e-06,,,,,,
0.501021206,,,,,,,,,,,-0.005765088833868504,1,-0.01330199930816889,1,0.04686345160007477,1
0.505215764,0.005,-0.01124901045113802,-0.02061981335282326,-0.9955039024353027,-0.0001033634471241385,-5.684403731720522e-05,-0.004980441182851791,-4.870640623266809e-06,-2.243843709948123e-06,1.49093523305055e-06,,,,,,
0.506016254,,,,,,,,,,,-0.005990425124764442,1,-0.01428545359522104,1,0.0416618138551712,1
0.510181367,0.005,-0.01102894358336926,-0.02056974358856678,-0.995439350605011,-0.0001026650570565835,-5.394381878431886e-05,-0.004976937081664801,2.094952378683956e-06,-2.290832071594195e-06,3.844337754799199e-07,,,,,,
0.511006474,,,,,,,,,,,-0.005485825706273317,1,-0.01212596800178289,1,0.04229442030191422,1
0.515123427,0.005,-0.01091195922344923,-0.02024158462882042,-0.9954225420951843,-9.936479909811169e-05,-5.357729969546199e-05,-0.004976850003004074,-3.244328183882317e-07,-2.527162678234163e-06,1.413107042935735e-06,,,,,,
0.515992045,,,,,,,,,,,-0.00224990164861083,1,-0.0109784509986639,1,0.04245922714471817,1
0.520042241,0.005,-0.01105939503759146,-0.02047723531723022,-0.9955140948295593,-0.0001035277673508972,-5.611235246760771e-05,-0.004978420212864876,-3.32688978232909e-06,3.40250323915825e-07,-7.790570748511527e-07,,,,,,
0.520973027,,,,,,,,,,,-0.004551875870674849,1,-0.01243018638342619,1,0.04156144335865974,1
0.524937749,0.005,-0.01107806619256735,-0.02051429264247417,-0.9955413341522217,-0.0001028704646159895,-5.582669109571725e-05,-0.004978027194738388,-4.262233233021107e-06,4.173037950749858e-07,1.860047973423207e-06,,,,,,
0.525949419,,,,,,,,,,,-0.004913090262562037,1,-0.01262885890901089,1,0.04129453748464584,1
0.529812992,0.005,-0.01105900295078754,-0.02061721682548523,-0.9954419136047363,-0.0001035036329994909,-5.523690924746916e-05,-0.004976432304829359,-1.270530674446491e-06,6.443561915148166e-07,-3.804767629844719e-06,,,,,,
0.530921757,,,,,,,,,,,-0.005931653548032045,1,-0.01246005389839411,1,0.04226966947317123,1
0.534664989,0.005,-0.01094979979097843,-0.02042887546122074,-0.9952991008758545,-0.000101561687188223,-5.369786231312901e-05,-0.004975594580173492,2.335880708415061e-06,2.377809323661495e-06,-5.113527095090831e-06,,,,,,
0.535889149,,,,,,,,,,,-0.00408982066437602,1,-0.01139117777347565,1,0.04367034882307053,1
0.539494395,0.005,-0.01117375772446394,-0.02051366865634918,-0.9955606460571289,-0.0001031019201036543,-5.764152592746541e-05,-0.00497934315353632,1.091921831175569e-06,-6.345895144477254e-06,-2.983949798363028e-06,,,,,,
0.540854275,,,,,,,,,,,-0.00491375895217061,1,-0.01358186174184084,1,0.0411049909889698,1
0.544313073,0.005,-0.01124971080571413,-0.02056588605046272,-0.9956791400909424,-0.0001031705469358712,-5.710990080842748e-05,-0.00497910100966692,-7.811870261775766e-08,-1.200060606443287e-09,1.762120291459723e-06,,,,,,
0.545814812,,,,,,,,,,,-0.005411518737673759,1,-0.01432046014815569,1,0.03994258120656013,1
0.549194515,0.005,-0.01099132839590311,-0.02062075398862362,-0.9956721663475037,-0.0001036793910316192,-5.34085302206222e-05,-0.004978370852768421,3.630100763984956e-06,9.446848707739264e-06,-1.836519004427828e-06,,,,,,
0.550855160,,,,,,,,,,,-0.005976737011224031,1,-0.01176752801984549,1,0.04001128673553467,1
0.554390013,0.005,-0.01087514776736498,-0.0205302145332098,-0.9954957962036133,-0.0001019214541884139,-5.37683954462409e-05,-0.004976440221071243,1.499923541814496e-06,-1.529290557300556e-06,-3.744622063095449e-06,,,,,,
0.555890918,,,,,,,,,,,-0.005117356311529875,1,-0.01060697343200445,1,0.04174106940627098,1
0.559561491,0.005,-0.01112043112516403,-0.02072387002408504,-0.9952828288078308,-0.0001046143734129146,-5.70805677853059e-05,-0.004975221119821072,2.461658823449397e-06,-1.772121322574094e-06,-2.087443363052444e-06,,,,,,
0.560922086,,,,,,,,,,,-0.00701458565890789,1,-0.01298829726874828,1,0.04382974654436111,1
0.564709604,0.005,-0.01130530890077353,-0.02099718898534775,-0.995265781879425,-0.0001063173185684718,-5.755372694693506e-05,-0.004975548945367336,-3.753694727492984e-06,-1.055786356118915e-06,2.509500745873083e-06,,,,,,
0.565948665,,,,,,,,,,,-0.009699202142655849,1,-0.01479095779359341,1,0.04399711638689041,1
0.569837570,0.005,-0.0108364000916481,-0.02069094777107239,-0.9951661825180054,-0.0001015370071399957,-5.119239358464256e-05,-0.004975443705916405,-1.711840695861611e-06,-1.696529579930939e-06,3.68282030649425e-07,,,,,,
0.570971370,,,,,,,,,,,-0.006686846259981394,1,-0.0101925190538168,1,0.0449727401137352,1
0.574942708,0.005,-0.01095248758792877,-0.0204751044511795,-0.9951455593109131,-0.0001008700928650796,-5.54317666683346e-05,-0.004975530318915844,-1.229984007977691e-07,1.348952309854212e-06,-1.297502308261755e-06,,,,,,
0.575989485,,,,,,,,,,,-0.004575296305119991,1,-0.01133462972939014,1,0.04517503827810287,1
0.580024302,0.005,-0.01128888782113791,-0.02042607963085175,-0.9953073859214783,-0.000102051257272251,-5.829633664689027e-05,-0.004977348260581493,-3.323746398109506e-07,-2.390449935774086e-06,-1.953258333742269e-06,,,,,,
0.581003010,,,,,,,,,,,-0.004088678397238255,1,-0.01463625207543373,1,0.04358825832605362,1
0.585082650,0.005,-0.01121185254305601,-0.0208496730774641,-0.995604932308197,-0.0001067325792973861,-5.564630191656761e-05,-0.004979593213647604,-1.363279267252437e-07,3.300298658359679e-06,6.380568720487645e-06,,,,,,
0.586011648,,,,,,,,,,,-0.008249951526522636,1,-0.01387911476194859,1,0.04067111387848854,1
0.590117097,0.005,-0.01123674865812063,-0.02055048570036888,-0.9953126907348633,-0.0001010924315778539,-5.623960896627977e-05,-0.004975271876901388,-5.224966912464879e-07,5.653539005834318e-07,9.228023714058509e-07,,,,,,
0.591015935,,,,,,,,,,,-0.005325768142938614,1,-0.01412096619606018,1,0.0435369685292244,1
0.595130086,0.005,-0.01088316179811954,-0.02048277482390404,-0.9955888390541077,-0.0001021339558064938,-5.242962288320996e-05,-0.004979221150279045,3.996216037194245e-06,4.531787908490514e-06,1.565552679494431e-06,,,,,,
0.596015871,,,,,,,,,,,-0.004685744177550077,1,-0.0106416791677475,1,0.04082940146327019,1
0.600120306,0.005,-0.01107979472726583,-0.02074751444160938,-0.9957185983657837,-0.0001052718725986779,-5.657083602272905e-05,-0.00497932406142354,7.176284100296471e-08,2.93794162331551e-08,3.056029072467936e-06,,,,,,
0.601011217,,,,,,,,,,,-0.007303814869374037,1,-0.01255740970373154,1,0.0395570769906044,1
0.605087459,0.005,-0.01105976477265358,-0.02058473788201809,-0.9957252740859985,-0.0001021814969135448,-5.515705197467469e-05,-0.004979001358151436,4.210664599213487e-07,2.680305442481767e-06,-2.392345663793094e-07,,,,,,
0.606001675,,,,,,,,,,,-0.005727583542466164,1,-0.01234955713152885,1,0.03949151560664177,1
0.610031128,0.005,-0.011277811601758,-0.02057375013828278,-0.9956904053688049,-0.0001027675461955369,-5.789802889921702e-05,-0.004978080280125141,-4.874722435488366e-06,6.184033736644778e-06,-2.362934537813999e-06,,,,,,
0.610987782,,,,,,,,,,,-0.005649172700941563,1,-0.01448831148445606,1,0.03983368724584579,1
0.614951909,0.005,-0.01119483541697264,-0.02046543173491955,-0.9954568147659302,-0.0001016893074847758,-5.56336271984037e-05,-0.004976065829396248,-2.40171220866614e-06,-1.889375766950252e-07,-4.247166998538887e-06,,,,,,
0.615969002,,,,,,,,,,,-0.004618345759809017,1,-0.01369062624871731,1,0.04212574288249016,1
0.619850218,0.005,-0.01090816780924797,-0.02057061158120632,-0.9954506754875183,-0.0001037823967635632,-5.304592559696175e-05,-0.004977043252438307,1.581784516702101e-07,-2.096688831443316e-06,2.854559113529831e-07,,,,,,
0.620946407,,,,,,,,,,,-0.005665248259902,1,-0.01088461838662624,1,0.04218624532222748,1
0.624728322,0.005,-0.0112034697085619,-0.02056553401052952,-0.9953377246856689,-0.0001026355384965427,-5.756774407927878e-05,-0.004975913558155298,-1.051233539328678e-06,3.817034212261206e-06,-2.561730525485473e-07,,,,,,
0.625918984,,,,,,,,,,,-0.005636352580040693,1,-0.01378878485411406,1,0.04329418763518333,1
0.629583895,0.005,-0.01104448828846216,-0.02060338668525219,-0.995311975479126,-0.0001031570282066241,-5.420060915639624e-05,-0.004975903779268265,9.723135008243844e-07,-8.963119739746617e-07,-4.432401965459576e-06,,,,,,
0.630886912,,,,,,,,,,,-0.006016801577061415,1,-0.01223293878138065,1,0.04354696720838547,1
0.634416640,0.005,-0.01147698890417814,-0.020604083314538,-0.9951189160346985,-0.000102991922176443,-5.972111830487847e-05,-0.004974519833922386,-9.762593435880262e-07,6.354104698402807e-06,-5.470661790241138e-07,,,,,,
0.635850251,,,,,,,,,,,-0.006048387382179499,1,-0.01647264324128628,1,0.04544096067547798,1
0.639226615,0.005,-0.01140590291470289,-0.02033315412700176,-0.9952426552772522,-0.0001002488716039807,-5.692198101314716e-05,-0.004977052565664053,-3.629346565503511e-06,-2.835914074239554e-06,4.220492428430589e-06,,,,,,
0.640808940,,,,,,,,,,,-0.003418580163270235,1,-0.01578357256948948,1,0.04422800615429878,1
0.644101143,0.005,-0.01132145058363676,-0.0203681793063879,-0.9953932166099548,-0.0001021928765112534,-5.628323924611323e-05,-0.004977540113031864,-5.310626420396147e-06,-2.585798938525841e-06,1.027845314638398e-06,,,,,,
0.645850122,,,,,,,,,,,-0.00375400367192924,1,-0.01497821696102619,1,0.04275186359882355,1
0.649300456,0.005,-0.01120713632553816,-0.02029336243867874,-0.9953628182411194,-0.0001009598126984201,-5.530771886697039e-05,-0.004976473748683929,2.446508460707264e-06,2.088900146191008e-06,3.126267984043807e-06,,,,,,
0.650886655,,,,,,,,,,,-0.003020808799192309,1,-0.0138689149171114,1,0.04304998740553856,1
0.654476523,0.005,-0.01119297463446856,-0.0205084215849638,-0.9953951239585876,-0.0001039643902913667,-5.59362888452597e-05,-0.004977372474968433,-4.380250629765214e-06,1.483405981161923e-06,-3.470880528766429e-06,,,,,,
0.655918837,,,,,,,,,,,-0.005143302492797375,1,-0.01373876538127661,1,0.04273320734500885,1
0.659629285,0.005,-0.01139254588633776,-0.02074247039854527,-0.9952182173728943,-0.0001053660598699935,-5.801465522381477e-05,-0.004974795505404472,-1.33130049562169e-06,-5.918889769418456e-07,-1.790438432180963e-06,,,,,,
0.660946429,,,,,,,,,,,-0.007448381744325161,1,-0.0157149899750948,1,0.04446844011545181,1
0.664762139,0.005,-0.01115418877452612,-0.02084257081151009,-0.995378315448761,-0.0001049162092385814,-5.423255788628012e-05,-0.004977979697287083,-1.335708930128021e-06,1.951043941517128e-06,-3.552276211848948e-06,,,,,,
0.665970147,,,,,,,,,,,-0.008441607467830181,1,-0.013387406244874,1,0.04289883002638817,1
0.669872880,0.005,-0.01099058054387569,-0.02079487033188343,-0.9956742525100708,-0.0001036100584315136,-5.404732655733824e-05,-0.00498034805059433,9.886578027362702e-07,6.471142569353106e-06,-6.148035481601255e-06,,,,,,
0.670989573,,,,,,,,,,,-0.008002815768122673,1,-0.011784503236413,1,0.03999748826026917,1
0.674960911,0.005,-0.01099633052945137,-0.02040551789104939,-0.9958341717720032,-9.964424680219963e-05,-5.50032636965625e-05,-0.004980059806257486,-2.537793534429511e-06,-2.255097342640511e-06,-4.565685685520293e-06,,,,,,
0.676004350,,,,,,,,,,,-0.004213216248899698,1,-0.01184746529906988,1,0.03842933103442192,1
0.680025578,0.005,-0.01094847731292248,-0.0203727800399065,-0.995661735534668,-0.0001013989240163937,-5.411209349404089e-05,-0.004977358505129814,-2.020015472226078e-06,-3.806806034845067e-06,1.809333298297133e-06,,,,,,
0.681014538,,,,,,,,,,,-0.003889244981110096,1,-0.01138872466981411,1,0.04012073203921318,1
0.685067534,0.005,-0.01085319276899099,-0.02048001997172832,-0.995545506477356,-0.0001032828222378157,-5.37169908056967e-05,-0.004977021366357803,2.221508566435659e-06,-2.234140765722259e-06,8.33131139188481e-07,,,,,,
0.686020374,,,,,,,,,,,-0.004928487818688154,1,-0.01045297086238861,1,0.04126057401299477,1
0.690086663,0.005,-0.01089106872677803,-0.02069540321826935,-0.9955040216445923,-0.0001047681871568784,-5.488761962624267e-05,-0.004977076314389706,-3.936481505206757e-07,-1.716111796667974e-06,6.395708624040708e-06,,,,,,
0.691021562,,,,,,,,,,,-0.007008538581430912,1,-0.01078283041715622,1,0.04166612029075623,1
0.695082486,0.005,-0.01074463874101639,-0.02097528614103794,-0.9957039356231689,-0.0001066658805939369,-5.259305544313975e-05,-0.004979474470019341,-2.164865009035566e-06,-1.721791136333195e-06,3.195430281266454e-06,,,,,,
0.696018159,,,,,,,,,,,-0.009721726179122925,1,-0.009313946589827538,1,0.03970469906926155,1
0.700055301,0.005,-0.01078193075954914,-0.0208860244601965,-0.9954756498336792,-0.0001042229414451867,-5.424539995146915e-05,-0.004976022057235241,-6.241335995582631e-06,2.115801862601074e-06,-1.123007109526952e-06,,,,,,
0.701009929,,,,,,,,,,,-0.008838064037263393,1,-0.009687059558928013,1,0.04194364696741104,1
0.705004573,0.005,-0.0105856079608202,-0.02059871889650822,-0.9955722689628601,-0.000101294499472715,-5.203313776291907e-05,-0.004978285636752844,-3.533340020567266e-07,9.238345342055254e-07,-3.757064632736729e-07,,,,,,
0.705997050,,,,,,,,,,,-0.00602060928940773,1,-0.00776956882327795,1,0.04099680110812187,1
0.709930778,0.005,-0.01074563059955835,-0.02057695016264915,-0.9955092072486877,-0.0001029156992444769,-5.463142588268965e-05,-0.004977418575435877,6.343971108435653e-07,-3.901545824191999e-06,-1.636926867831789e-06,,,,,,
0.710979342,,,,,,,,,,,-0.005806042812764645,1,-0.009343503974378109,1,0.04161521419882774,1
0.714834154,0.005,-0.01123264990746975,-0.02061693929135799,-0.9954627752304077,-0.000103692123957444,-5.896942093386315e-05,-0.004977466072887182,2.733502242335817e-07,-8.053901865423541e-07,-1.721597072901204e-06,,,,,,
0.715957224,,,,,,,,,,,-0.006185204721987247,1,-0.01411794405430555,1,0.0420704148709774,1
0.719717145,0.005,-0.01131298113614321,-0.02044086717069149,-0.9953486323356628,-0.0001006335223792121,-5.737687752116472e-05,-0.00497641833499074,1.011940298667469e-06,-3.564637154340744e-07,3.916834430128802e-06,,,,,,
0.720930815,,,,,,,,,,,-0.004450719337910414,1,-0.01489213015884161,1,0.043189387768507,1
0.724576771,0.005,-0.01147536933422089,-0.02057132311165333,-0.9952288866043091,-0.0001034494634950534,-5.83075379836373e-05,-0.004975747782737017,-1.977074362002895e-06,1.338284278062929e-06,-1.726911449395629e-07,,,,,,
0.725899756,,,,,,,,,,,-0.005734492558985949,1,-0.01648623496294022,1,0.04436332359910011,1
0.729413390,0.005,-0.01116888877004385,-0.02050200290977955,-0.9950253963470459,-0.000102207763120532,-5.371918086893857e-05,-0.004974327050149441,4.76302602692158e-06,4.824348707188619e-06,1.863630018306139e-06,,,,,,
0.730863869,,,,,,,,,,,-0.005067280493676662,1,-0.01346539985388517,1,0.0463591106235981,1
0.734227479,0.005,-0.01113970950245857,-0.02044679224491119,-0.9950828552246094,-0.0001019810151774436,-5.541122663998976e-05,-0.00497536500915885,-2.53067025113296e-08,5.773346742898866e-07,1.545692839499679e-06,,,,,,
0.735823631,,,,,,,,,,,-0.004548289813101292,1,-0.01316624600440264,1,0.04579615592956543,1
0.739106297,0.005,-0.01105861645191908,-0.02075338549911976,-0.9954016208648682,-0.0001058893540175632,-5.484944267664105e-05,-0.004979116842150688,-2.929541551566217e-06,-1.259937448594428e-06,-2.188160124205751e-06,,,,,,
0.740865052,,,,,,,,,,,-0.00756528927013278,1,-0.01237114332616329,1,0.04266978427767754,1
0.744306922,0.005,-0.01120153814554214,-0.02069229073822498,-0.9950709939002991,-0.0001029153718263842,-5.710368350264616e-05,-0.004973055794835091,-2.200912831540336e-06,-2.146949327652692e-06,-2.875066456908826e-06,,,,,,
0.745901823,,,,,,,,,,,-0.006969199515879154,1,-0.01377853285521269,1,0.04591238126158714,1
0.749484003,0.005,-0.01127744279801846,-0.02087704837322235,-0.9953174591064453,-0.0001055897810147144,-5.706042429665104e-05,-0.004977643489837646,-2.454313744237879e-06,5.235843218542868e-06,-8.613736781626358e-07,,,,,,
0.750933766,,,,,,,,,,,-0.00879360269755125,1,-0.01453620288521051,1,0.04349552467465401,1
0.754638612,0.005,-0.01124740485101938,-0.02068533934652805,-0.9954760670661926,-0.0001021503412630409,-5.589348438661546e-05,-0.004978672601282597,0,0,0,,,,,,
0.755961835,,,,,,,,,,,-0.006927382200956345,1,-0.01424342393875122,1,0.04194042831659317,1
0.759770870,0.005,-0.01154646649956703,-0.02080067619681358,-0.9957765936851501,-0.0001043948213919066,-5.951107596047223e-05,-0.004980711732059717,-2.366558419453213e-06,1.301493625760486e-06,1.202022986035445e-06,,,,,,
0.760985076,,,,,,,,,,,-0.008076291531324387,1,-0.01718303561210632,1,0.0389937087893486,1
0.764879346,0.005,-0.01149507239460945,-0.02063147723674774,-0.995966911315918,-0.0001024966622935608,-5.734486330766231e-05,-0.004980681464076042,2.429564744943491e-07,3.041624040633906e-06,2.580934051366057e-06,,,,,,
0.766003728,,,,,,,,,,,-0.006434741895645857,1,-0.01668841205537319,1,0.03712783753871918,1
0.769964516,0.005,-0.01147645339369774,-0.02054475247859955,-0.9955263137817383,-0.0001021932694129646,-5.732821955461986e-05,-0.004975032992660999,1.481163394601026e-06,5.152938683750108e-06,-2.770818525732466e-07,,,,,,
0.771017969,,,,,,,,,,,-0.005617810878902674,1,-0.01650523394346237,1,0.04144901409745216,1
0.775026441,0.005,-0.01136896759271622,-0.02072878926992416,-0.9951382875442505,-0.0001048078047460876,-5.589394277194515e-05,-0.004973224364221096,4.610512860381277e-06,-3.428838454055949e-06,7.148215104280098e-07,,,,,,
0.776027381,,,,,,,,,,,-0.007443591021001339,1,-0.01542769279330969,1,0.0452548936009407,1
0.780064285,0.005,-0.01125091779977083,-0.02047086320817471,-0.9953767657279968,-0.000100391436717473,-5.560876161325723e-05,-0.00497805280610919,1.90709067737771e-06,1.168748553936894e-06,-2.0219633825036e-06,,,,,,
0.781032681,,,,,,,,,,,-0.00491978507488966,1,-0.01425131782889366,1,0.0429159477353096,1
0.785080552,0.005,-0.01121429167687893,-0.02049417607486248,-0.9953915476799011,-0.0001025357123580761,-5.576533658313565e-05,-0.004976915195584297,-1.158674763246381e-06,8.479883604195493e-07,-1.684082690189825e-06,,,,,,
0.786033154,,,,,,,,,,,-0.005160284228622913,1,-0.01387292519211769,1,0.04277138411998749,1
0.790072560,0.005,-0.01117263920605183,-0.02060229890048504,-0.9953597784042358,-0.0001038625341607258,-5.569869244936854e-05,-0.004977487493306398,5.873886948393192e-06,-2.444156507408479e-06,6.677631745333201e-07,,,,,,
0.791028976,,,,,,,,,,,-0.006219936534762383,1,-0.01343412790447474,1,0.0430823341012001,1
0.795041800,0.005,-0.01117530558258295,-0.02037844061851501,-0.9951111078262329,-0.0001006649399641901,-5.619983858196065e-05,-0.004973972216248512,-3.929691047233064e-06,-1.455702772545919e-06,3.949445726902923e-06,,,,,,
0.796019971,,,,,,,,,,,-0.004021496511995792,1,-0.01344683859497309,1,0.04552023857831955,1
0.799986959,0.005,-0.01112670637667179,-0.0203778762370348,-0.9953374266624451,-0.0001018021066556685,-5.520982813322917e-05,-0.004977857694029808,-5.068512223260768e-07,-4.028170863534797e-08,2.76088212558534e-06,,,,,,
0.801006317,,,,,,,,,,,-0.004015669226646423,1,-0.01296162512153387,1,0.04330053552985191,1
0.804908574,0.005,-0.01092330925166607,-0.02067023515701294,-0.9951284527778625,-0.0001051659201039001,-5.328404586180113e-05,-0.004974293056875467,1.351437958874158e-06,6.154049856377242e-07,-2.106516376443324e-06,,,,,,
0.805987835,,,,,,,,,,,-0.006884017027914524,1,-0.01096818037331104,1,0.04535027965903282,1
0.809809387,0.005,-0.01126616355031729,-0.0203490499407053,-0.9955161213874817,-9.963649790734053e-05,-5.805137334391475e-05,-0.004979639779776335,-5.909355422772933e-07,1.637498257878178e-06,-1.746139218994358e-06,,,,,,
0.810965240,,,,,,,,,,,-0.003737782128155231,1,-0.01432071905583143,1,0.04154820367693901,1
0.814687729,0.005,-0.01122547592967749,-0.02020952291786671,-0.9954621195793152,-0.0001001423152047209,-5.615454574581236e-05,-0.004977162927389145,-3.183292619723943e-06,4.254440682416316e-06,-4.415800503920764e-06,,,,,,
0.815937817,,,,,,,,,,,-0.002394283656030893,1,-0.01392628997564316,1,0.04207869246602058,1
0.819543064,0.005,-0.01122115924954414,-0.02036155201494694,-0.9953067302703857,-0.0001030368730425835,-5.582705853157677e-05,-0.004975241608917713,1.277066985494457e-06,-6.554710694217647e-07,-5.091177172289463e-06,,,,,,
0.820905745,,,,,,,,,,,-0.003908601123839617,1,-0.0138837918639183,1,0.04360275343060493,1
0.824376047,0.005,-0.01125913113355637,-0.02016723342239857,-0.9956042766571045,-9.954033157555386e-05,-5.656123903463595e-05,-0.004980035591870546,-2.607301610169088e-07,-1.170289237961697e-06,-1.244488316842762e-06,,,,,,
0.825868785,,,,,,,,,,,-0.002007200382649899,1,-0.01425542030483484,1,0.0406854972243309,1
0.829186022,0.005,-0.01146239880472422,-0.02041022479534149,-0.9956636428833008,-0.0001038098125718534,-5.844611587235704e-05,-0.004978771321475506,-1.564950252941344e-06,-2.469215587552753e-06,2.862333985831356e-06,,,,,,
0.830827236,,,,,,,,,,,-0.004389027133584023,1,-0.01624559052288532,1,0.04010284692049026,1
0.834061027,0.005,-0.0111730620265007,-0.02066090144217014,-0.9956750273704529,-0.0001047255500452593,-5.408461584011093e-05,-0.004978136159479618,-5.196505412641272e-07,-2.325023615412647e-06,2.693732028546947e-07,,,,,,
0.835868657,,,,,,,,,,,-0.006832438986748457,1,-0.01340641267597675,1,0.03999102115631104,1
0.839262486,0.005,-0.01115187350660563,-0.02091277204453945,-0.9952006936073303,-0.0001062122901203111,-5.531388524104841e-05,-0.00497332401573658,-2.848629719665041e-06,2.186429128414602e-06,1.264998559236119e-06,,,,,,
0.840905488,,,,,,,,,,,-0.009300274774432182,1,-0.01320964097976685,1,0.04464251175522804,1
0.844439268,0.005,-0.01134498231112957,-0.02058752439916134,-0.9955715537071228,-0.0001011826389003545,-5.750933269155212e-05,-0.004980267025530338,-3.142799869237933e-06,-1.482405082242622e-06,-1.099385258385155e-06,,,,,,
0.845937431,,,,,,,,,,,-0.006114811170846224,1,-0.01511610485613346,1,0.04100600630044937,1
0.849591553,0.005,-0.0110554127022624,-0.02056998573243618,-0.9953866004943848,-0.0001027123944368213,-5.369033533497714e-05,-0.004975996911525726,-2.323069566045888e-06,6.84358212765801e-07,-2.376781139901141e-06,,,,,,
0.850965261,,,,,,,,,,,-0.00593879260122776,1,-0.01229672972112894,1,0.04282048717141151,1
0.854722798,0.005,-0.01124308351427317,-0.02032646723091602,-0.9951707124710083,-0.0001005038648145273,-5.691744081559591e-05,-0.004974694922566414,-2.574238351371605e-06,-2.899040055126534e-06,1.3542171473091e-06,,,,,,
0.855988503,,,,,,,,,,,-0.00354814063757658,1,-0.01416152156889439,1,0.0449376069009304,1
0.859831035,0.005,-0.01167872548103333,-0.02019605785608292,-0.9952424764633179,-9.992656123358756e-05,-6.119343015598133e-05,-0.004976658150553703,-1.007784931061906e-06,-1.264413924673136e-07,7.218712880785461e-07,,,,,,
0.861007094,,,,,,,,,,,-0.00226490804925561,1,-0.01844638958573341,1,0.04423399269580841,1
0.864915729,0.005,-0.01137624215334654,-0.0205066055059433,-0.9951598644256592,-0.0001041930518113077,-5.508755930350162e-05,-0.004975266754627228,-7.289782388397725e-06,-1.131152203015517e-06,-3.738594216429192e-07,,,,,,
0.866021097,,,,,,,,,,,-0.005303859710693359,1,-0.01550617441534996,1,0.04504399746656418,1
0.869977593,0.005,-0.01126918662339449,-0.02041625045239925,-0.9952421188354492,-0.0001013936271192506,-5.557141776080243e-05,-0.00497641135007143,-3.488159336484387e-06,-4.388140951050445e-06,-2.449398152748472e-06,,,,,,
0.871030509,,,,,,,,,,,-0.004400880075991154,1,-0.01449214294552803,1,0.044236920773983,1
0.875015676,0.005,-0.01106934621930122,-0.02063346281647682,-0.9951575398445129,-0.0001047683690558188,-5.4364438256016e-05,-0.004975730087608099,-2.007688948424402e-07,3.678018856589915e-06,3.989119704783661e-06,,,,,,
0.876035333,,,,,,,,,,,-0.006528527475893497,1,-0.0125510711222887,1,0.0450659953057766,1
0.880031765,0.005,-0.01113121770322323,-0.02042954601347446,-0.9951732754707336,-0.0001005660524242558,-5.571491419686936e-05,-0.004976296331733465,-1.031828332997975e-06,1.611879952179152e-06,-3.201051185897086e-06,,,,,,
0.881035805,,,,,,,,,,,-0.004544974770396948,1,-0.01317231357097626,1,0.04491223394870758,1
0.885023773,0.005,-0.01139036286622286,-0.02015920542180538,-0.9955928921699524,-9.939234587363899e-05,-5.878257434233092e-05,-0.004980400204658508,-1.730875055727665e-06,5.065367986389901e-06,7.732751896583068e-07,,,,,,
0.886031389,,,,,,,,,,,-0.00191566115245223,1,-0.01572625152766705,1,0.04079823940992355,1
0.889992714,0.005,-0.0112459734082222,-0.02028642781078815,-0.9957748651504517,-0.0001020379859255627,-5.532594877877273e-05,-0.004980109632015228,2.016814505623188e-06,-3.741637328857905e-06,-3.495011224874389e-10,,,,,,
0.891022325,,,,,,,,,,,-0.003162500215694308,1,-0.01426804345101118,1,0.03901350498199463,1
0.894937873,0.005,-0.01138097606599331,-0.02035872638225555,-0.995794951915741,-0.0001019774863380007,-5.760632484452799e-05,-0.004979604855179787,-4.042482942168135e-06,1.13778753529914e-06,3.526319915181375e-06,,,,,,
0.896008432,,,,,,,,,,,-0.003857933916151524,1,-0.01556731294840574,1,0.0388154648244381,1
0.899859428,0.005,-0.01145516149699688,-0.0206452663987875,-0.995618999004364,-0.0001056145629263483,-5.76578859181609e-05,-0.004977152217179537,1.060178988154803e-06,-4.826542408409296e-06,-2.416737743260455e-06,,,,,,
0.900989950,,,,,,,,,,,-0.006651615723967552,1,-0.01628454774618149,1,0.04054099321365356,1
0.904759049,0.005,-0.01137146446853876,-0.02064269594848156,-0.9954013228416443,-0.000102992111351341,-5.626042548101395e-05,-0.004975573625415564,8.927011663217854e-07,-4.347957656136714e-06,1.929418431245722e-06,,,,,,
0.905967355,,,,,,,,,,,-0.006601629313081503,1,-0.01544960867613554,1,0.04267458245158195,1
0.909636855,0.005,-0.01139466185122728,-0.02075008861720562,-0.9955631494522095,-0.0001045443204930052,-5.701166082872078e-05,-0.004978623241186142,-5.501853138412116e-06,-2.711900833674008e-06,2.282914238094236e-06,,,,,,
0.910939932,,,,,,,,,,,-0.007621567696332932,1,-0.01568182930350304,1,0.04108716174960136,1
0.914491892,0.005,-0.01146032754331827,-0.02069609053432941,-0.9953449964523315,-0.0001030772182275541,-5.805122054880485e-05,-0.004975545220077038,-1.491158968747186e-06,4.564320988720283e-06,-2.285267328261398e-06,,,,,,
0.915907860,,,,,,,,,,,-0.007084632758051157,1,-0.01633921079337597,1,0.04322680830955505,1
0.919323921,0.005,-0.01127040665596724,-0.02075481787323952,-0.9952772855758667,-0.0001040585484588519,-5.508145113708451e-05,-0.004976313095539808,4.76684419936646e-07,4.110548161406768e-06,-4.664946573029738e-06,,,,,,
0.920870900,,,,,,,,,,,-0.007685776799917221,1,-0.01448195986449718,1,0.04389198124408722,1
0.924133122,0.005,-0.01128588151186705,-0.0206704493612051,-0.9954831600189209,-0.0001028192782541737,-5.67843671888113e-05,-0.00497838668525219,4.006429321634641e-08,1.790866804185498e-06,-1.213382461173751e-06,,,,,,
0.925829351,,,,,,,,,,,-0.006882577668875456,1,-0.01463352888822556,1,0.04187308996915817,1
0.929008126,0.005,-0.01125952880829573,-0.0205452274531126,-0.9955590963363647,-0.0001020327763399109,-5.623085598926991e-05,-0.004978584591299295,-3.135096733331011e-07,9.211076985593536e-07,3.085599473706679e-06,,,,,,
0.930871546,,,,,,,,,,,-0.005677255801856518,1,-0.01437338627874851,1,0.04112867265939713,1
0.934212625,0.005,-0.0110607473179698,-0.0205847192555666,-0.9955250024795532,-0.0001035053355735727,-5.390646037994884e-05,-0.004977543372660875,8.345227797690313e-07,-3.741123236977728e-06,-1.276581997444737e-06,,,,,,
0.935908854,,,,,,,,,,,-0.006059064529836178,1,-0.01241939049214125,1,0.04146238043904305,1
0.939392269,0.005,-0.01137914881110191,-0.02058292925357819,-0.995412290096283,-0.000102887162938714,-5.872535257367417e-05,-0.004976102616637945,1.396204083903285e-06,3.757542685889348e-07,-3.828597982646897e-06,,,,,,
0.940941572,,,,,,,,,,,-0.006040127482265234,1,-0.01553168054670095,1,0.04256804287433624,1
0.944548368,0.005,-0.01137985289096832,-0.02047394216060638,-0.9952226877212524,-0.0001019155024550855,-5.681422771885991e-05,-0.004974991083145142,-4.349575704054587e-07,-5.586801421486598e-07,7.180880174928461e-07,,,,,,
0.945969939,,,,,,,,,,,-0.004972044844180346,1,-0.01552991196513176,1,0.04442748799920082,1
0.949683726,0.005,-0.01100436598062515,-0.02044077962636948,-0.9954208135604858,-0.0001018373950500973,-5.292800051392987e-05,-0.004978151060640812,-1.417428507011209e-06,1.344659949609195e-06,-1.144573388955905e-06,,,,,,
0.950993657,,,,,,,,,,,-0.004651604220271111,1,-0.0118450103327632,1,0.04248460754752159,1
0.954794765,0.005,-0.01099433749914169,-0.02067138254642487,-0.99516761302948,-0.0001046950783347711,-5.472424527397379e-05,-0.004974471405148506,3.232491110338742e-07,1.297022436119732e-06,1.758417738528806e-06,,,,,,
0.956012785,,,,,,,,,,,-0.00692467438057065,1,-0.011744718067348,1,0.04496780410408974,1
0.959881961,0.005,-0.01114416774362326,-0.02088405378162861,-0.9949219226837158,-0.0001056380206136964,-5.62964596610982e-05,-0.00497309397906065,1.66698839620949e-06,-1.455948677175911e-06,-2.15709269468789e-06,,,,,,
0.961027324,,,,,,,,,,,-0.009015373885631561,1,-0.01320505887269974,1,0.0473770759999752,1
0.964945674,0.005,-0.01113859284669161,-0.02096142433583736,-0.9953075647354126,-0.0001056554683600552,-5.582921585300937e-05,-0.004978899843990803,-4.802980697604653e-07,-9.751344123287708e-07,3.36269110334797e-08,,,,,,
0.966036975,,,,,,,,,,,-0.009776979684829712,1,-0.01314111519604921,1,0.04359552264213562,1
0.969985545,0.005,-0.01133314985781908,-0.02076701447367668,-0.9954472780227661,-0.0001025859746732749,-5.785212852060795e-05,-0.004978196229785681,-3.250787585784565e-06,-6.47432534606196e-06,-4.284020633349428e-06,,,,,,
0.971041799,,,,,,,,,,,-0.0078478017821908,1,-0.01504599954932928,1,0.04222450405359268,1
0.975002646,0.005,-0.01116351503878832,-0.02098535373806953,-0.9955013990402222,-0.0001064599782694131,-5.448049341794103e-05,-0.004978044889867306,-3.308945906610461e-06,5.441515440907096e-06,-1.024679150418706e-07,,,,,,
0.976042211,,,,,,,,,,,-0.009981785900890827,1,-0.01339660119265318,1,0.04169433191418648,1
0.979995906,0.005,-0.01101757492870092,-0.02082347683608532,-0.9952651858329773,-0.0001033582520904019,-5.42918496648781e-05,-0.00497453985735774,-4.002932598723419e-07,1.532171040707908e-06,1.83191582436848e-06,,,,,,
0.981037796,,,,,,,,,,,-0.008411264978349209,1,-0.01197403110563755,1,0.04401153698563576,1
0.984966159,0.005,-0.01086514815688133,-0.02056258544325829,-0.9952051639556885,-0.0001010191408568062,-5.313975998433307e-05,-0.004975922405719757,-1.781362925612484e-06,4.341768089943798e-06,8.142932870214281e-07,,,,,,
0.986028790,,,,,,,,,,,-0.005875859875231981,1,-0.01049511786550283,1,0.04460027068853378,1
0.989912331,0.005,-0.01118570752441883,-0.02033106237649918,-0.9951130151748657,-9.996796870836988e-05,-5.798713391413912e-05,-0.004974978044629097,-5.570081611949718e-06,1.048978447215632e-06,-3.748832355654486e-10,,,,,,
0.991014898,,,,,,,,,,,-0.003626569407060742,1,-0.01366095058619976,1,0.0455048643052578,1
0.994835198,0.005,-0.01086326502263546,-0.02055616304278374,-0.995019793510437,-0.0001045005337800831,-5.231297109276056e-05,-0.004974505864083767,-5.892725766898366e-06,6.795040690121823e-07,-9.825675988395233e-07,,,,,,
0.995996654,,,,,,,,,,,-0.005851627327501774,1,-0.01053982973098755,1,0.0464194193482399,1
0.999736071,0.005,-0.01113756559789181,-0.02043314091861248,-0.9954882264137268,-0.0001013980945572257,-5.72081989957951e-05,-0.004979776218533516,9.82562823992339e-07,-1.774648922037159e-06,-3.166273472743342e-06,,,,,,
1.000976086,,,,,,,,,,,-0.004658326040953398,1,-0.01324876304715872,1,0.0418257974088192,1
1.004626393,0.005,-0.01124236732721329,-0.0205999631434679,-0.9955534338951111,-0.0001038259506458417,-5.673505802405998e-05,-0.00497822742909193,1.55857446770824e-06,-4.694271865446353e-06,-2.060725819319487e-06,,,,,,
1.005950928,,,,,,,,,,,-0.006284242495894432,1,-0.0142805902287364,1,0.04118615016341209,1
1.009494066,0.005,-0.01094727404415607,-0.02088396623730659,-0.9955313205718994,-0.0001063470408553258,-5.300131306285039e-05,-0.004977742210030556,-8.403671358792053e-07,-4.329442162998021e-06,-5.878684987692395e-07,,,,,,
1.010921240,,,,,,,,,,,-0.009042789228260517,1,-0.01139136776328087,1,0.04140299931168556,1
1.014339089,0.005,-0.01082735974341631,-0.02080690301954746,-0.9956200122833252,-0.0001033908411045559,-5.352086736820638e-05,-0.004978915676474571,-1.676317197052413e-06,-1.970784069271758e-06,1.540648781883647e-06,,,,,,
1.015886903,,,,,,,,,,,-0.008263719268143177,1,-0.01022163592278957,1,0.04053245484828949,1
1.019161582,0.005,-0.01114770211279392,-0.02034004777669907,-0.9956343770027161,-9.915497503243387e-05,-5.778082413598895e-05,-0.00497829494997859,-1.940717311299522e-06,4.648540198104456e-06,-1.042840267473366e-06,,,,,,
1.020847917,,,,,,,,,,,-0.003682024776935577,1,-0.0133659765124321,1,0.04039186984300613,1
1.023961544,0.005,-0.01113620772957802,-0.02044565789401531,-0.9956190586090088,-0.0001023796066874638,-5.576558032771572e-05,-0.004978118930011988,3.505247377688647e-06,-4.15232671002741e-06,-6.678016575278889e-07,,,,,,
1.025889993,,,,,,,,,,,-0.004716301802545786,1,-0.01324820797890425,1,0.04054170474410057,1
1.029167891,0.005,-0.01094117388129234,-0.02066384069621563,-0.9956596493721008,-0.0001044587334035896,-5.356989640858956e-05,-0.004978576675057411,3.60202443516755e-06,1.794786726350139e-06,1.868003323579615e-06,,,,,,
1.030927658,,,,,,,,,,,-0.006857340689748526,1,-0.01131606381386518,1,0.0401436910033226,1
1.034348488,0.005,-0.01122040767222643,-0.02060788311064243,-0.9955266118049622,-0.00010279068374075,-5.758045153925195e-05,-0.00497728493064642,1.57390115873568e-06,-4.841320333071053e-06,-1.689030227680632e-06,,,,,,
1.035960793,,,,,,,,,,,-0.006300721783190966,1,-0.01403107680380344,1,0.04144757986068726,1
1.039507508,0.005,-0.01127131842076778,-0.02054418809711933,-0.9953441619873047,-0.0001027610123855993,-5.708973912987858e-05,-0.004975448362529278,1.388365035381867e-06,4.459621777641587e-06,-2.836267185557517e-07,,,,,,
1.040989161,,,,,,,,,,,-0.005674247164279222,1,-0.01451153494417667,1,0.0432368665933609,1
1.044642568,0.005,-0.01127395499497652,-0.02042463421821594,-0.9952108263969421,-0.0001015856469166465,-5.656298526446335e-05,-0.004974863491952419,8.032943128455372e-07,-2.046548388534575e-06,-2.914914375651279e-06,,,,,,
1.046012878,,,,,,,,,,,-0.004508357495069504,1,-0.01451875921338797,1,0.04454391077160835,1
1.049753904,0.005,-0.0111115574836731,-0.02024971880018711,-0.9950422048568726,-0.0001001470009214245,-5.44480062671937e-05,-0.004973941016942263,-1.830774294830917e-06,-5.701526788470801e-06,-2.756269395831623e-06,,,,,,
1.051032066,,,,,,,,,,,-0.00277677271515131,1,-0.01291328854858875,1,0.04619738087058067,1
1.054840565,0.005,-0.01091205980628729,-0.02050258219242096,-0.9955258965492249,-0.0001039251146721654,-5.322538709151559e-05,-0.004980359692126513,-1.749209133095064e-08,-4.538912435236853e-06,6.399122867151164e-07,,,,,,
1.056046367,,,,,,,,,,,-0.005230854731053114,1,-0.01095199584960938,1,0.04145386070013046,1
1.059903026,0.005,-0.0108891986310482,-0.02053417637944221,-0.9955783486366272,-0.0001031068895827048,-5.466680886456743e-05,-0.00497802346944809,-2.002504743359168e-06,-6.377616045938339e-06,1.535889168735594e-06,,,,,,
1.061056018,,,,,,,,,,,-0.005497769452631474,1,-0.01073270756751299,1,0.04093854129314423,1
1.064943075,0.005,-0.0109562249854207,-0.02061471715569496,-0.9956358075141907,-0.0001035901077557355,-5.483103814185597e-05,-0.004978813696652651,-1.304796001022623e-06,-2.265761338549055e-07,-9.285214446208556e-07,,,,,,
1.066061020,,,,,,,,,,,-0.006257446482777596,1,-0.01139502599835396,1,0.04037376865744591,1
1.069959641,0.005,-0.01091726310551167,-0.02053500711917877,-0.9956932663917542,-0.000101966223155614,-5.405549381976016e-05,-0.004978741519153118,2.30418004321109e-06,2.406314024483436e-06,-1.176244609268906e-06,,,,,,
1.071061492,,,,,,,,,,,-0.005467657465487719,1,-0.01100629474967718,1,0.03980984166264534,1
1.074952245,0.005,-0.01101007964462042,-0.02061435207724571,-0.9957245588302612,-0.0001036195972119458,-5.536103344638832e-05,-0.004978789016604424,5.559678584177163e-07,3.569846512618824e-06,-2.088539076794405e-06,,,,,,
1.076057076,,,,,,,,,,,-0.006257775705307722,1,-0.0119063975289464,1,0.03950397670269012,1
1.079921961,0.005,-0.01091667730361223,-0.02059387974441051,-0.9956804513931274,-0.0001025921519612893,-5.445536953629926e-05,-0.004978355951607227,-2.615288394736126e-06,-2.929864649559022e-06,-3.041096988454228e-06,,,,,,
1.081048012,,,,,,,,,,,-0.006064446177333593,1,-0.01098922174423933,1,0.03993655368685722,1
1.084880114,0.005,-0.01103589963167906,-0.02057366445660591,-0.9959250092506409,-0.0001028521219268441,-5.571077417698689e-05,-0.00498106237500906,1.672685698395071e-06,2.290379143232713e-06,-5.416226258603274e-07,,,,,,
1.086036682,,,,,,,,,,,-0.00587409595027566,1,-0.0121554983779788,1,0.03753876686096191,1
1.089815855,0.005,-0.01109649799764156,-0.02043545991182327,-0.9956231117248535,-0.000101434052339755,-5.548629269469529e-05,-0.004976384341716766,1.935206228154129e-06,-3.464632982286275e-06,5.821148533868836e-06,,,,,,
1.091021061,,,,,,,,,,,-0.004495584405958652,1,-0.0126960463821888,1,0.04049825295805931,1
1.094729185,0.005,-0.01119277905672789,-0.02037986740469933,-0.9954033493995667,-0.0001017562099150382,-5.661263276124373e-05,-0.004975798539817333,-3.708571739480249e-06,-2.447134420435759e-06,-9.324857614956272e-07,,,,,,
1.096000791,,,,,,,,,,,-0.003922992385923862,1,-0.01360798254609108,1,0.04265265911817551,1
1.099620581,0.005,-0.01094484236091375,-0.02033665403723717,-0.9953101873397827,-0.0001013289656839333,-5.327242251951247e-05,-0.004976020660251379,-4.428374722920125e-06,-3.307295628474094e-06,1.177715830635861e-06,,,,,,
1.100975871,,,,,,,,,,,-0.003474532160907984,1,-0.01116983033716679,1,0.04356563091278076,1
1.104489207,0.005,-0.01099713519215584,-0.02030171826481819,-0.9952917098999023,-0.000101276469649747,-5.487162707140669e-05,-0.004975914489477873,-7.164032922446495e-07,-2.81099119092687e-07,-1.13630153464328e-06,,,,,,
1.105946422,,,,,,,,,,,-0.00311023578979075,1,-0.01169254723936319,1,0.04374691471457481,1
1.109336376,0.005,-0.01094066631048918,-0.02044555731117725,-0.9954769611358643,-0.0001030119601637125,-5.438221342046745e-05,-0.004978307988494635,-4.955641998094507e-06,-2.890616997319739e-06,4.515407454164233e-06,,,,,,
1.110912561,,,,,,,,,,,-0.004503542557358742,1,-0.01115347538143396,1,0.04192973300814629,1
1.114161611,0.005,-0.01099719945341349,-0.02031964994966984,-0.9953451752662659,-0.0001010200721793808,-5.500197221408598e-05,-0.004976197611540556,-4.427642579685198e-06,1.081053028428869e-06,-5.927599886490498e-07,,,,,,
1.115874529,,,,,,,,,,,-0.003263847902417183,1,-0.01173448283225298,1,0.04322206974029541,1
1.118965268,0.005,-0.01127525046467781,-0.02010972052812576,-0.9949290752410889,-9.920550655806437e-05,-5.813539246446453e-05,-0.004972039256244898,-8.752388680477452e-08,-1.844039957177301e-06,-1.600304017301823e-06,,,,,,
1.120916963,,,,,,,,,,,-0.001194873708300292,1,-0.01447838917374611,1,0.04730235412716866,1
1.124174118,0.005,-0.0110816853120923,-0.01995604299008846,-0.9950557351112366,-9.884830069495365e-05,-5.434929335024208e-05,-0.004975965246558189,-3.774063543460215e-06,6.175482525350162e-08,-2.838012505890219e-06,,,,,,
1.125954866,,,,,,,,,,,0.0003153156721964478,1,-0.012604596093297,1,0.04606104269623756,1
1.129358053,0.005,-0.01093543041497469,-0.02037514373660088,-0.9951133131980896,-0.0001044608725351281,-5.334532033884898e-05,-0.004975870251655579,-1.098394136533898e-06,9.110374676879474e-09,-2.829798404491157e-06,,,,,,
1.130988240,,,,,,,,,,,-0.003792789997532964,1,-0.0111843403428793,1,0.04549631476402283,1
1.134517789,0.005,-0.01083402335643768,-0.02048687450587749,-0.9953387379646301,-0.0001030561325023882,-5.385843178373761e-05,-0.004978308454155922,-1.883204348018808e-08,4.899840178040904e-07,4.817838572535038e-08,,,,,,
1.136017203,,,,,,,,,,,-0.004892063327133656,1,-0.01020437851548195,1,0.04328558221459389,1
1.139657736,0.005,-0.01074768230319023,-0.02049897611141205,-0.9951656460762024,-0.0001027387479552999,-5.303795114741661e-05,-0.004975127056241035,-1.917079544000444e-07,1.252333277079742e-06,-7.709151077506249e-07,,,,,,
1.141041875,,,,,,,,,,,-0.005018913187086582,1,-0.009359677322208881,1,0.04498270526528358,1
1.144774437,0.005,-0.01063062157481909,-0.02073328010737896,-0.9949331283569336,-0.0001048473932314664,-5.281154517433606e-05,-0.004972974769771099,-4.111606358492281e-06,-3.095408601438976e-06,1.837466129472887e-06,,,,,,
1.146062136,,,,,,,,,,,-0.007318617776036263,1,-0.008225671015679836,1,0.04726304113864899,1
1.149867773,0.005,-0.01078397780656815,-0.02045622654259205,-0.9950871467590332,-0.0001010414998745546,-5.485104702529497e-05,-0.004976787604391575,-5.199109764930654e-08,-6.127181677584304e-07,1.75910611233121e-06,,,,,,
1.151077628,,,,,,,,,,,-0.004592000506818295,1,-0.009741057641804218,1,0.04575292766094208,1
1.154937863,0.005,-0.0105105871334672,-0.02036488242447376,-0.9951465725898743,-0.0001012028224067762,-5.06603391841054e-05,-0.004976415075361729,1.12419506592687e-07,-2.796813532768283e-06,2.193363428659723e-07,,,,,,
1.156088591,,,,,,,,,,,-0.003687008982524276,1,-0.007064974866807461,1,0.04516962915658951,1
1.159983635,0.005,-0.01087173912674189,-0.02049395442008972,-0.9954590201377869,-0.00010336115519749,-5.613406392512843e-05,-0.004978940356522799,3.05936055156053e-06,2.950929911094136e-06,-1.525353923170769e-06,,,,,,
1.161094666,,,,,,,,,,,-0.004949194379150867,1,-0.01059351116418839,1,0.04210599511861801,1
1.165006876,0.005,-0.01120331324636936,-0.02068199031054974,-0.9955844283103943,-0.0001045743556460366,-5.809306821902283e-05,-0.004978908225893974,5.63593039260013e-06,1.171356529994227e-06,-1.269602535103331e-06,,,,,,
1.166096687,,,,,,,,,,,-0.006805883254855871,1,-0.0138169452548027,1,0.04087599739432335,1
1.170006514,0.005,-0.01135497540235519,-0.02066762931644917,-0.9954257607460022,-0.0001035034583765082,-5.764063098467886e-05,-0.004975872579962015,2.028198878178955e-06,1.048455146701599e-06,6.038264018570771e-06,,,,,,
1.171093702,,,,,,,,,,,-0.006677498575299978,1,-0.01527106948196888,1,0.04243205487728119,1
1.174982667,0.005,-0.01124702952802181,-0.0208516102284193,-0.9954087734222412,-0.0001052370207617059,-5.570681969402358e-05,-0.004976856522262096,-2.469279706929228e-06,-7.497047818105784e-07,-2.214964752056403e-06,,,,,,
1.176086068,,,,,,,,,,,-0.008492300286889076,1,-0.01419751159846783,1,0.04259814321994781,1
1.179934978,0.005,-0.01108510699123144,-0.02098016254603863,-0.9953969120979309,-0.0001053173327818513,-5.462109766085632e-05,-0.00497697526589036,3.091316784775699e-06,1.199569851451088e-06,7.857393597987539e-07,,,,,,
1.181073666,,,,,,,,,,,-0.009757671505212784,1,-0.01259541045874357,1,0.0427144430577755,1
1.184864759,0.005,-0.01123349741101265,-0.02064965292811394,-0.9953309297561646,-0.0001014273439068347,-5.716379746445455e-05,-0.004976217169314623,5.261965270619839e-06,-2.691353756745229e-06,-1.516541487944778e-06,,,,,,
1.186056495,,,,,,,,,,,-0.006518824025988579,1,-0.01401650812476873,1,0.04336129873991013,1
1.189771295,0.005,-0.01136990543454885,-0.0203267764300108,-0.9957002997398376,-9.972473344532773e-05,-5.765949026681483e-05,-0.004980762489140034,-3.829033516922209e-07,-2.020449585415918e-07,-1.551263608234876e-06,,,,,,
1.191035151,,,,,,,,,,,-0.003347594290971756,1,-0.01532095577567816,1,0.03973851725459099,1
1.194656491,0.005,-0.01121966727077961,-0.02039080485701561,-0.995589017868042,-0.0001021615898935124,-5.551685535465367e-05,-0.004977514035999775,-4.207491656416096e-06,6.588686005670752e-07,-1.574636826262577e-06,,,,,,
1.196009159,,,,,,,,,,,-0.003977704793214798,1,-0.01384731288999319,1,0.04082997515797615,1
1.199518442,0.005,-0.01119824126362801,-0.0205590333789587,-0.9955921173095703,-0.0001034557426464744,-5.568760388996452e-05,-0.004978210665285587,3.405945108170272e-06,-3.011610033354373e-06,1.691833233508078e-07,,,,,,
1.200978398,,,,,,,,,,,-0.005622953176498413,1,-0.01363637391477823,1,0.04079976677894592,1
1.204357386,0.005,-0.01099647488445044,-0.02067192830145359,-0.9956551790237427,-0.0001041905197780579,-5.422868707682937e-05,-0.0049784523434937,-2.706119857975864e-06,2.507902991055744e-06,3.354979526193347e-06,,,,,,
1.205942988,,,,,,,,,,,-0.006730418652296066,1,-0.011648865416646,1,0.04018113389611244,1
1.209173560,0.005,-0.01079351641237736,-0.02055771462619305,-0.9954939484596252,-0.0001018937909975648,-5.254914140095934e-05,-0.004976836964488029,1.095892685043509e-06,1.905642989186163e-06,2.915907373335358e-07,,,,,,
1.210902810,,,,,,,,,,,-0.005622843746095896,1,-0.009656396694481373,1,0.04176229238510132,1
1.213980675,0.005,-0.01079853437840939,-0.02050850912928581,-0.9955652952194214,-0.000102585123386234,-5.419027002062649e-05,-0.004977941978722811,-2.804793439281639e-06,3.824206487479387e-06,-6.635187332904025e-07,,,,,,
1.215945482,,,,,,,,,,,-0.005161639302968979,1,-0.009705476462841034,1,0.0410628579556942,1
1.219189286,0.005,-0.01083830837160349,-0.02028315141797066,-0.9955639839172363,-0.000100298595498316,-5.429875818663277e-05,-0.004977953620254993,-5.169461019249866e-07,-1.982444473469513e-06,-3.532508401349332e-07,,,,,,
1.220983505,,,,,,,,,,,-0.002969637513160706,1,-0.01010261848568916,1,0.04107657074928284,1
1.224374056,0.005,-0.01082739885896444,-0.02035623230040073,-0.9955137968063354,-0.0001020051422528923,-5.404348485171795e-05,-0.004977204836905003,-2.639756758071599e-06,-1.578099272592226e-06,9.208795859194652e-07,,,,,,
1.226016998,,,,,,,,,,,-0.003685106290504336,1,-0.01000148989260197,1,0.04156918823719025,1
1.229534984,0.005,-0.01073911879211664,-0.02047178521752357,-0.9954845309257507,-0.0001027771941153333,-5.340747520676814e-05,-0.004976948257535696,-3.979958819400053e-06,-2.914818196586566e-06,1.024638550006784e-06,,,,,,
1.231045604,,,,,,,,,,,-0.004810224287211895,1,-0.009154745377600193,1,0.04185600951313972,1
1.234674692,0.005,-0.01092893071472645,-0.02076529897749424,-0.9952960014343262,-0.000105868028185796,-5.596775372396223e-05,-0.00497538736090064,2.748247879935661e-06,-3.352579824422719e-06,1.449983301426983e-06,,,,,,
1.236070395,,,,,,,,,,,-0.007672425359487534,1,-0.01102444715797901,1,0.04370468482375145,1
1.239791393,0.005,-0.01083068177103996,-0.02060484327375889,-0.995341420173645,-0.0001021527568809688,-5.372974919737317e-05,-0.004977046512067318,-8.916304494732685e-08,1.515906319582427e-06,-2.303622522958904e-06,,,,,,
1.241090536,,,,,,,,,,,-0.00609068525955081,1,-0.01005794107913971,1,0.04325942322611809,1
1.244884014,0.005,-0.01103877648711205,-0.02084820158779621,-0.9953927397727966,-0.000105773113318719,-5.635487104882486e-05,-0.004977583885192871,2.780110435196548e-06,4.584354087455722e-07,-1.743683810673247e-07,,,,,,
1.246106148,,,,,,,,,,,-0.008474996313452721,1,-0.0120854377746582,1,0.04275574535131454,1
1.249953270,0.005,-0.011173733510077,-0.02076729387044907,-0.9954174757003784,-0.0001034272281685844,-5.668377707479522e-05,-0.00497723463922739,-3.680531563077238e-06,1.390659804201277e-06,-3.260904577473411e-06,,,,,,
1.251116753,,,,,,,,,,,-0.007692920975387096,1,-0.01340959873050451,1,0.04251343756914139,1
1.254998565,0.005,-0.01098514255136251,-0.02074582874774933,-0.9954345226287842,-0.0001037010297295637,-5.3654563089367e-05,-0.004977409262210131,1.640694904381235e-06,-2.1174182620598e-06,1.141660504799802e-06,,,,,,
1.256122828,,,,,,,,,,,-0.007479646243155003,1,-0.01155291311442852,1,0.0423462800681591,1
1.260020256,0.005,-0.01122445240616798,-0.02078551612794399,-0.9955524802207947,-0.0001040940405800939,-5.75484154978767e-05,-0.004978486336767673,-6.475944246631116e-06,1.338236756964761e-06,3.363763028119138e-07,,,,,,
1.261124372,,,,,,,,,,,-0.007870674133300781,1,-0.01391215715557337,1,0.04118957743048668,1
1.265019655,0.005,-0.01094582956284285,-0.02078612521290779,-0.9956645369529724,-0.0001036900357576087,-5.291617344482802e-05,-0.004979189019650221,-2.221012891823193e-06,3.142675041090115e-06,-3.676995277146489e-07,,,,,,
1.266121268,,,,,,,,,,,-0.007895096205174923,1,-0.01120375376194715,1,0.04009148851037025,1
1.269995570,0.005,-0.01102956291288137,-0.0211574099957943,-0.9955908060073853,-0.0001081885930034332,-5.586993574979715e-05,-0.00497763603925705,-1.761644170983345e-06,1.641452399780974e-06,4.483065083604743e-07,,,,,,
1.271113157,,,,,,,,,,,-0.01155644375830889,1,-0.01203944720327854,1,0.04081509634852409,1
1.274947882,0.005,-0.01097647752612829,-0.02103658579289913,-0.9954971671104431,-0.0001045669705490582,-5.417842112365179e-05,-0.00497712753713131,-1.90588264104008e-06,-3.272849369295727e-08,1.612493633729173e-06,,,,,,
1.276100874,,,,,,,,,,,-0.01038107182830572,1,-0.01153345033526421,1,0.04173341393470764,1
1.279877901,0.005,-0.01113416068255901,-0.02074152231216431,-0.9952608346939087,-0.0001018079492496327,-5.680258618667722e-05,-0.004974688868969679,-2.276447958138306e-06,-4.084469310328132e-06,5.59654040444002e-07,,,,,,
1.281083703,,,,,,,,,,,-0.007490031886845827,1,-0.01309409830719233,1,0.04405099526047707,1
1.284784675,0.005,-0.01106734573841095,-0.02071134559810162,-0.9952000975608826,-0.0001032582949846983,-5.505190347321332e-05,-0.004975939635187387,1.539738718747685e-06,2.170795141864801e-06,6.674475230283861e-07,,,,,,
1.286062598,,,,,,,,,,,-0.007193923462182283,1,-0.01244627125561237,1,0.0446464903652668,1
1.289670944,0.005,-0.01117561850696802,-0.02057995088398457,-0.9951502084732056,-0.000102345111372415,-5.6229364417959e-05,-0.004975179210305214,-1.950123078131583e-06,-3.369878527337278e-07,-1.741453161230311e-06,,,,,,
1.291036725,,,,,,,,,,,-0.005890991073101759,1,-0.01347330864518881,1,0.04513492062687874,1
1.294534445,0.005,-0.01111847627907991,-0.02064665779471397,-0.9952219128608704,-0.000103440586826764,-5.533654621103778e-05,-0.004976645112037659,-3.840788394882111e-06,-9.098438624732808e-08,-3.928431397071108e-06,,,,,,
1.296006203,,,,,,,,,,,-0.006537392735481262,1,-0.01290448755025864,1,0.0444319099187851,1
1.299375653,0.005,-0.01099866721779108,-0.02056451700627804,-0.9952178597450256,-0.0001027379330480471,-5.398916982812807e-05,-0.004976007156074047,8.788210266175156e-07,-4.381211056170287e-07,2.93250786853605e-06,,,,,,
1.300971270,,,,,,,,,,,-0.005723976064473391,1,-0.01172209437936544,1,0.04447177797555923,1
1.304208636,0.005,-0.01094183977693319,-0.02044124715030193,-0.995516836643219,-0.0001015703019220382,-5.461679393192753e-05,-0.004979603458195925,2.131793053194997e-06,4.32556362284231e-06,9.592864813612323e-08,,,,,,
1.305935144,,,,,,,,,,,-0.004524272866547108,1,-0.01114667952060699,1,0.04153991490602493,1
1.309022665,0.005,-0.01087885722517967,-0.02055527456104755,-0.9953979849815369,-0.0001036884787026793,-5.380944639910012e-05,-0.004976251162588596,-5.899568350287154e-06,1.232516069649137e-06,2.782384399324656e-06,,,,,,
1.310894370,,,,,,,,,,,-0.005660058464854956,1,-0.01054037921130657,1,0.04270536452531815,1
1.314233303,0.005,-0.01081748865544796,-0.02058013342320919,-0.995544970035553,-0.0001027325342874974,-5.345148747437634e-05,-0.004978736396878958,-1.454311131965369e-06,1.752576622493507e-06,7.211654065031325e-07,,,,,,
1.315932870,,,,,,,,,,,-0.005924342665821314,1,-0.009949542582035065,1,0.04126450791954994,1
1.319420218,0.005,-0.01101063657552004,-0.02035291492938995,-0.9954350590705872,-0.0001002667340799235,-5.626338315778412e-05,-0.004976402968168259,4.818842285203573e-07,8.638493795842805e-07,4.80283915749169e-06,,,,,,
1.320966959,,,,,,,,,,,-0.003714280901476741,1,-0.01184552721679211,1,0.04234297201037407,1
1.324583888,0.005,-0.01121486444026232,-0.02056071907281876,-0.9953746199607849,-0.0001040838615153916,-5.751723801949993e-05,-0.004976792261004448,-2.635660621308489e-06,-1.529202450001321e-06,-5.66350806252558e-08,,,,,,
1.325996280,,,,,,,,,,,-0.005761547014117241,1,-0.01385558117181063,1,0.04293626919388771,1
1.329722643,0.005,-0.01142583414912224,-0.02046733163297176,-0.9951701164245605,-0.0001016970418277197,-5.851082460139878e-05,-0.00497459527105093,-2.678204737094347e-06,1.123732545238454e-06,-3.588713298086077e-06,,,,,,
1.331021309,,,,,,,,,,,-0.004845606163144112,1,-0.01593770459294319,1,0.04494189098477364,1
1.334840059,0.005,-0.01145504880696535,-0.02043038234114647,-0.9953585267066956,-0.0001017020113067701,-5.741727363783866e-05,-0.004977721255272627,-3.775202458200511e-06,-1.585511995472189e-06,-1.918482666951604e-06,,,,,,
1.336041927,,,,,,,,,,,-0.004485673271119595,1,-0.01623999699950218,1,0.04309474676847458,1
1.339934468,0.005,-0.0111166276037693,-0.02090116962790489,-0.9951915740966797,-0.000107397252577357,-5.411833626567386e-05,-0.004974398761987686,-4.644334694603458e-06,-1.789083512448997e-06,-2.116996711265529e-06,,,,,,
1.341058016,,,,,,,,,,,-0.009100417606532574,1,-0.01295596174895763,1,0.04473219439387321,1
1.345006347,0.005,-0.0105027724057436,-0.02094254642724991,-0.9955999851226807,-0.0001051328727044165,-4.879475454799831e-05,-0.004980595782399178,-5.273723672871711e-06,-3.172548304064549e-06,1.436754246242344e-06,,,,,,
1.346069455,,,,,,,,,,,-0.009495705366134644,1,-0.006973902694880962,1,0.04072645306587219,1
1.350054622,0.005,-0.01071810070425272,-0.02082711830735207,-0.9952859282493591,-0.0001030732892104425,-5.451616016216576e-05,-0.00497448118403554,5.673372470482718e-06,-1.187688440040802e-06,2.416070685740124e-07,,,,,,
1.351076365,,,,,,,,,,,-0.008347646333277225,1,-0.009096804074943066,1,0.04380599781870842,1
1.355078697,0.005,-0.0111261485144496,-0.02085388451814651,-0.9956108927726746,-0.00010449014371261,-5.829059227835387e-05,-0.004980213474482298,-7.933584811326e-07,-5.46534806744603e-07,1.174122076008643e-06,,,,,,
1.356078386,,,,,,,,,,,-0.008603038266301155,1,-0.01309232600033283,1,0.0406191423535347,1
1.360080123,0.005,-0.01103771757334471,-0.02070010639727116,-0.9956544637680054,-0.0001025083402055316,-5.466370930662379e-05,-0.004978148732334375,-2.961926156785921e-06,-6.133914212114178e-06,-2.947280336229596e-06,,,,,,
1.361075759,,,,,,,,,,,-0.00707368366420269,1,-0.01222975365817547,1,0.04019144177436829,1
1.365058064,0.005,-0.01106626726686954,-0.02075529098510742,-0.9956355094909668,-0.0001038865448208526,-5.532569048227742e-05,-0.004978431388735771,-4.298403837310616e-06,6.448271960834973e-07,-9.470797834865152e-08,,,,,,
1.366068244,,,,,,,,,,,-0.007593987975269556,1,-0.01253016851842403,1,0.04037665575742722,1
1.370012403,0.005,-0.01134185865521431,-0.02070028334856033,-0.9953183531761169,-0.0001030926359817386,-5.800581857329234e-05,-0.00497468514367938,-8.905028607841814e-07,2.634439397297683e-06,-1.684580581695627e-07,,,,,,
1.371056080,,,,,,,,,,,-0.00705573009327054,1,-0.01524698361754417,1,0.04348780587315559,1
1.374943256,0.005,-0.01114565227180719,-0.02069417200982571,-0.9955131411552429,-0.0001029445702442899,-5.460275497171097e-05,-0.004978975281119347,9.069066777556145e-07,6.739572881997447e-07,1.506312969468127e-06,,,,,,
1.376039147,,,,,,,,,,,-0.007005931809544563,1,-0.0133347874507308,1,0.04157833755016327,1
1.379850745,0.005,-0.01130794454365969,-0.02061918564140797,-0.9954692721366882,-0.0001024626326397993,-5.764195157098584e-05,-0.004976864904165268,-1.120554770750459e-06,-3.05092180497013e-06,-3.50317350239493e-06,,,,,,
1.381017566,,,,,,,,,,,-0.006271826568990946,1,-0.01492173038423061,1,0.04200801625847816,1
1.384735703,0.005,-0.01127966586500406,-0.02081414870917797,-0.9956275224685669,-0.0001052301449817605,-5.608874198514968e-05,-0.004979480523616076,1.908733111122274e-06,-4.8131555558939e-06,-2.451588443364017e-06,,,,,,
1.385991693,,,,,,,,,,,-0.008167088963091373,1,-0.01464259717613459,1,0.04045574367046356,1
1.389598966,0.005,-0.01115512009710073,-0.02065488137304783,-0.9955202341079712,-0.0001022399883368053,-5.516170858754776e-05,-0.004976378753781319,-1.837022978179448e-06,-5.564141702052439e-06,-1.360882151857368e-06,,,,,,
1.390961170,,,,,,,,,,,-0.006573213264346123,1,-0.01341681648045778,1,0.04150732979178429,1
1.394439220,0.005,-0.01125552225857973,-0.02033404633402824,-0.9955975413322449,-9.944866906153038e-05,-5.662327021127567e-05,-0.004978401586413383,2.956276603072183e-06,-1.601670618356366e-07,-8.59128306274215e-07,,,,,,
1.395925999,,,,,,,,,,,-0.003398058470338583,1,-0.01438968814909458,1,0.04074868559837341,1
1.399256349,0.005,-0.01148127485066652,-0.02038629353046417,-0.9957600235939026,-0.0001022317082970403,-5.908338789595291e-05,-0.004979738499969244,-7.628133062098641e-06,-1.388341843266971e-06,9.103649745156872e-07,,,,,,
1.400886059,,,,,,,,,,,-0.003896556096151471,1,-0.01661059446632862,1,0.03915499523282051,1
1.404051185,0.005,-0.01148381363600492,-0.02044284902513027,-0.9955520629882812,-0.000102621503174305,-5.710763070965186e-05,-0.004976840689778328,-3.945615844713757e-06,1.576124532221002e-06,1.567875074215408e-07,,,,,,
1.405841351,,,,,,,,,,,-0.004445734433829784,1,-0.01666453294456005,1,0.04119427129626274,1
1.409174323,0.005,-0.01133090816438198,-0.02052331529557705,-0.9953069686889648,-0.0001031205028994009,-5.5947522923816e-05,-0.004974721930921078,2.395713636360597e-07,3.217734729332733e-06,-1.67049074661918e-06,,,,,,
1.410879970,,,,,,,,,,,-0.005242376122623682,1,-0.01517698541283607,1,0.04359810799360275,1
1.414362073,0.005,-0.01114626880735159,-0.02027570828795433,-0.995513916015625,-0.0001001405471470207,-5.461495675262995e-05,-0.004978891927748919,-1.049724687618436e-06,-2.328622713321238e-06,7.077314023717918e-08,,,,,,
1.415914297,,,,,,,,,,,-0.002825268777087331,1,-0.01337707974016666,1,0.04156874865293503,1
1.419526100,0.005,-0.01147425919771194,-0.02020442485809326,-0.9955786466598511,-0.0001004422665573657,-5.919973773416132e-05,-0.004978437907993793,1.139812979999988e-06,-1.599756842551869e-06,-6.360152582374212e-08,,,,,,
1.420943618,,,,,,,,,,,-0.002124745398759842,1,-0.0165974348783493,1,0.04093363881111145,1
1.424665570,0.005,-0.01161204092204571,-0.02031258307397366,-0.9954512715339661,-0.0001022503129206598,-5.868843436473981e-05,-0.004976583644747734,-9.470513759879395e-07,1.926054437717539e-06,2.016003719518267e-08,,,,,,
1.425968170,,,,,,,,,,,-0.003188311355188489,1,-0.01794710010290146,1,0.04218276217579842,1
1.429783821,0.005,-0.01155710127204657,-0.02043458446860313,-0.9953514337539673,-0.0001030335843097419,-5.776108810096048e-05,-0.004976261407136917,-3.779235839829198e-07,1.221298134623794e-06,3.816611751972232e-06,,,,,,
1.430988550,,,,,,,,,,,-0.00439312681555748,1,-0.01741158403456211,1,0.04316208511590958,1
1.434878230,0.005,-0.01154988445341587,-0.02053253538906574,-0.9953479170799255,-0.0001031701322062872,-5.77375540160574e-05,-0.004976820200681686,-2.460305040585808e-06,-2.518244400562253e-06,-2.652930561453104e-06,,,,,,
1.436004400,,,,,,,,,,,-0.005351926665753126,1,-0.01734713651239872,1,0.04319660365581512,1
1.439948559,0.005,-0.01145154889672995,-0.02072004787623882,-0.9954289197921753,-0.0001044420278049074,-5.638476432068273e-05,-0.004977590870112181,-1.855537448136602e-06,-1.045176077241194e-06,1.74301101196761e-06,,,,,,
1.441015601,,,,,,,,,,,-0.007185589987784624,1,-0.01639105938374996,1,0.04240249842405319,1
1.444994807,0.005,-0.01118031237274408,-0.02060114219784737,-0.9955256581306458,-0.0001026598765747622,-5.430146484286524e-05,-0.00497825862839818,-3.312243279651739e-06,2.272272695336142e-06,9.885653753372026e-07,,,,,,
1.446021914,,,,,,,,,,,-0.006021486595273018,1,-0.01374920643866062,1,0.04145412892103195,1
1.450017333,0.005,-0.01113930530846119,-0.02048048377037048,-0.9955320954322815,-0.000101612284197472,-5.511754716280848e-05,-0.004978041164577007,-7.818637641321402e-06,-2.583341029094299e-06,4.434130858044227e-07,,,,,,
1.451023817,,,,,,,,,,,-0.004840744659304619,1,-0.01337668485939503,1,0.04139095917344093,1
1.455017686,0.005,-0.01144172437489033,-0.02049336954951286,-0.9959037899971008,-0.0001026602549245581,-5.910603431402706e-05,-0.004981386475265026,-1.94157519217697e-06,-4.117135176784359e-06,8.18299952243251e-07,,,,,,
1.456021190,,,,,,,,,,,-0.004954095464199781,1,-0.0163788478821516,1,0.03774605691432953,1
1.459994316,0.005,-0.01135181076824665,-0.02053592354059219,-0.9959710240364075,-0.0001032332220347598,-5.637291906168684e-05,-0.004980634432286024,-1.478916829000809e-06,-1.414718894920952e-06,1.033499984259834e-06,,,,,,
1.461013794,,,,,,,,,,,-0.00535500468686223,1,-0.01552066672593355,1,0.03708665072917938,1
1.464948177,0.005,-0.01125496998429298,-0.02071342244744301,-0.9957841634750366,-0.00010471810674062,-5.538494588108733e-05,-0.004977921023964882,-1.371077928524755e-06,2.915539425885072e-06,-3.715575076057576e-06,,,,,,
1.466001630,,,,,,,,,,,-0.007096741814166307,1,-0.01458867080509663,1,0.03891946375370026,1
1.469878793,0.005,-0.01142523810267448,-0.02056035213172436,-0.9955723881721497,-0.0001019997653202154,-5.803363819723018e-05,-0.004976368509232998,-5.701417649106588e-06,-2.811295196636365e-08,6.805628913753026e-07,,,,,,
1.470984697,,,,,,,,,,,-0.00560023682191968,1,-0.01627917028963566,1,0.04099740833044052,1
1.474786282,0.005,-0.01132642943412066,-0.0202336348593235,-0.9953469038009644,-9.898140706354752e-05,-5.570870780502446e-05,-0.004975582472980022,1.200639189846697e-06,-2.077954377455171e-06,1.858374048424594e-06,,,,,,
1.475963116,,,,,,,,,,,-0.002399054123088717,1,-0.01532947272062302,1,0.04320841282606125,1
1.479671240,0.005,-0.01116611715406179,-0.02036274783313274,-0.9954908490180969,-0.0001028145925374702,-5.519501064554788e-05,-0.004977939184755087,1.190747411783377e-06,6.707516604365082e-07,-4.294289283279795e-06,,,,,,
1.480937481,,,,,,,,,,,-0.003660003654658794,1,-0.01375751104205847,1,0.0417964942753315,1
1.484534025,0.005,-0.01106871571391821,-0.02034770138561726,-0.9956429600715637,-0.0001017209870042279,-5.472186967381276e-05,-0.004978986922651529,1.412612732565321e-06,4.871896635449957e-06,-6.584483571714372e-07,,,,,,
1.485906959,,,,,,,,,,,-0.003530047833919525,1,-0.01278857793658972,1,0.04030527174472809,1
1.489373922,0.005,-0.0112399123609066,-0.02059633284807205,-0.995762825012207,-0.0001044239033944905,-5.713653808925301e-05,-0.004980130586773157,-5.728020369133446e-06,1.269647441404231e-06,4.52001268058666e-06,,,,,,
1.490871549,,,,,,,,,,,-0.005975058302283287,1,-0.01443191152065992,1,0.03912943974137306,1
1.494189858,0.005,-0.01109416596591473,-0.02056214027106762,-0.9955277442932129,-0.0001028191472869366,-5.450861863209866e-05,-0.004976288881152868,-2.868011051759822e-06,4.165271093370393e-06,7.594923090437078e-07,,,,,,
1.495831251,,,,,,,,,,,-0.005651675164699554,1,-0.01299232896417379,1,0.04143435508012772,1
1.498982668,0.005,-0.01098405662924051,-0.02040963433682919,-0.9958237409591675,-0.0001013065848383121,-5.39587636012584e-05,-0.004980976693332195,6.298495947021365e-08,-2.225738313654801e-07,2.794327429000987e-06,,,,,,
1.500786185,,,,,,,,,,,-0.004172397777438164,1,-0.01191209815442562,1,0.03853251412510872,1
1.504108310,0.005,-0.01091400627046824,-0.02048897184431553,-0.9956358671188354,-0.00010311120422557,-5.463635898195207e-05,-0.00497695617377758,-4.525297299551312e-06,3.316585662105354e-06,-5.660151813913217e-08,,,,,,
1.505825758,,,,,,,,,,,-0.004965984262526035,1,-0.01123024057596922,1,0.04037527740001678,1
1.509299397,0.005,-0.01125665754079819,-0.02037117630243301,-0.9954755306243896,-0.0001011873173411004,-5.805910404887982e-05,-0.004976626485586166,1.119398973514762e-07,-1.001413494350345e-07,-2.157690687454306e-06,,,,,,
1.510860801,,,,,,,,,,,-0.003832105081528425,1,-0.01459673698991537,1,0.0419481135904789,1
1.514467835,0.005,-0.01106093171983957,-0.02015815675258636,-0.9955206513404846,-9.943807526724413e-05,-5.407893331721425e-05,-0.004977942444384098,2.734435838647187e-06,-2.235653482784983e-06,9.161815341940382e-07,,,,,,
1.515891194,,,,,,,,,,,-0.001746852067299187,1,-0.01267576310783625,1,0.04150567948818207,1
1.519613147,0.005,-0.01111760549247265,-0.02012907341122627,-0.9952709674835205,-0.0001002802746370435,-5.597504787147045e-05,-0.004974738694727421,1.101429461414227e-06,2.034865701716626e-06,1.163904741474653e-07,,,,,,
1.520917296,,,,,,,,,,,-0.001468608155846596,1,-0.01321701519191265,1,0.04395458474755287,1
1.524735689,0.005,-0.01115245465189219,-0.02023589424788952,-0.9952874183654785,-0.0001019192859530449,-5.593888636212796e-05,-0.004976375494152308,-4.904923571302788e-06,-1.752879484229197e-06,-2.12959389500611e-06,,,,,,
1.525939465,,,,,,,,,,,-0.002521717455238104,1,-0.01356043852865696,1,0.04379351437091827,1
1.529839396,0.005,-0.01119075622409582,-0.02061730623245239,-0.9954032301902771,-0.0001055596803780645,-5.593529567704536e-05,-0.004977371077984571,2.272776811196309e-07,1.363977276014339e-06,2.260393330288935e-06,,,,,,
1.530957103,,,,,,,,,,,-0.006269750185310841,1,-0.01394328661262989,1,0.04265767335891724,1
1.534919381,0.005,-0.01116893999278545,-0.02088703773915768,-0.9952616691589355,-0.0001062150986399502,-5.614922338281758e-05,-0.004975540563464165,-4.431825800566003e-06,8.2082783592341e-07,-3.963420738273271e-07,,,,,,
1.535970330,,,,,,,,,,,-0.008919801563024521,1,-0.01374527998268604,1,0.0440458282828331,1
1.539976954,0.005,-0.01116573438048363,-0.02070823684334755,-0.9954660534858704,-0.0001025117817334831,-5.594038520939648e-05,-0.004978246986865997,-5.805108685308369e-06,5.541868631553371e-06,1.987391442526132e-06,,,,,,
1.540978909,,,,,,,,,,,-0.007190599571913481,1,-0.01374359149485826,1,0.04204268380999565,1
1.545011163,0.005,-0.01119164656847715,-0.02053260989487171,-0.9951210618019104,-0.000101690529845655,-5.600953591056168e-05,-0.004973810166120529,2.310478294020868e-06,-1.647034764573618e-06,-4.254512191437243e-07,,,,,,
1.545983195,,,,,,,,,,,-0.005482722073793411,1,-0.0140106026083231,1,0.04542639851570129,1
1.550023198,0.005,-0.01109627913683653,-0.02049003541469574,-0.9954054951667786,-0.0001022324649966322,-5.493454591487534e-05,-0.004978637676686049,-7.625571470271097e-06,2.287057668581838e-06,2.246238040015669e-07,,,,,,
1.550982952,,,,,,,,,,,-0.005083901807665825,1,-0.01309605967253447,1,0.04263733699917793,1
1.555013061,0.005,-0.01095744967460632,-0.02057952247560024,-0.995606005191803,-0.0001037802576320246,-5.384936230257154e-05,-0.004979349672794342,-2.74252715826151e-06,-1.242032794834813e-06,-2.641578930706601e-06,,,,,,
1.555978537,,,,,,,,,,,-0.005970017518848181,1,-0.01176703814417124,1,0.04067176580429077,1
1.559982061,0.005,-0.01106852479279041,-0.02044189162552357,-0.9953157901763916,-0.0001011709973681718,-5.603623867500573e-05,-0.00497445510700345,8.099062824840075e-07,7.191900408543006e-07,2.159857331207604e-06,,,,,,
1.560969949,,,,,,,,,,,-0.004632533527910709,1,-0.01287637557834387,1,0.04351763799786568,1
1.564930558,0.005,-0.01103432476520538,-0.02043312415480614,-0.9956728219985962,-0.0001021898060571402,-5.469987081596628e-05,-0.004980301484465599,-3.362913787441357e-07,1.000322868094372e-06,-1.502432951383526e-06,,,,,,
1.565956831,,,,,,,,,,,-0.004548192024230957,1,-0.01254593580961227,1,0.04001665115356445,1
1.569857001,0.005,-0.01112947892397642,-0.02049294486641884,-0.9957360029220581,-0.0001029515624395572,-5.622403114102781e-05,-0.004978923127055168,-2.112361016770592e-06,8.350785947186523e-07,-4.394144070829498e-07,,,,,,
1.570939183,,,,,,,,,,,-0.005147771444171667,1,-0.01349102333188057,1,0.03939740732312202,1
1.574761510,0.005,-0.01120396424084902,-0.02047589048743248,-0.9956721663475037,-0.0001025403762469068,-5.657345172949135e-05,-0.004978053737431765,2.905981773437816e-06,-4.136409643251682e-06,-3.911965904990211e-06,,,,,,
1.575917363,,,,,,,,,,,-0.004982593469321728,1,-0.01421787310391665,1,0.04002388566732407,1
1.579643369,0.005,-0.01136901881545782,-0.02057876251637936,-0.9954321384429932,-0.0001033988592098467,-5.791295552626252e-05,-0.004975559189915657,2.299324705745676e-06,5.868830612598686e-06,-1.312583549406554e-06,,,,,,
1.580890656,,,,,,,,,,,-0.00600056815892458,1,-0.01581427454948425,1,0.04237722977995872,1
1.584502816,0.005,-0.01161941699683666,-0.02088061533868313,-0.9955831170082092,-0.0001059971036738716,-5.982755101285875e-05,-0.004978557117283344,2.389610926911701e-06,2.165827027056366e-06,-6.191144166223239e-07,,,,,,
1.585859895,,,,,,,,,,,-0.008986538276076317,1,-0.01825300976634026,1,0.0408971980214119,1
1.589341402,0.005,-0.01125102862715721,-0.020867008715868,-0.9954486489295959,-0.0001041484356392175,-5.412813698058017e-05,-0.004976801574230194,6.216509405021498e-07,-5.167653398530092e-06,-1.235445324709872e-06,,,,,,
1.590824246,,,,,,,,,,,-0.008857999928295612,1,-0.01462327223271132,1,0.04221553727984428,1
1.594157815,0.005,-0.01105350628495216,-0.02076651528477669,-0.9955760836601257,-0.0001031106148730032,-5.378282367018983e-05,-0.004978637211024761,-4.872854788118275e-06,-1.205855141961365e-06,1.732965301926015e-06,,,,,,
1.595784187,,,,,,,,,,,-0.007863274775445461,1,-0.01268642116338015,1,0.04096513614058495,1
1.599204063,0.005,-0.0112200491130352,-0.02069116570055485,-0.9954519867897034,-0.0001028104597935453,-5.716394662158564e-05,-0.004976457450538874,-6.275797659327509e-06,-2.715169330258504e-06,1.185620476462645e-06,,,,,,
1.600823760,,,,,,,,,,,-0.007109732832759619,1,-0.01433601323515177,1,0.04218252003192902,1
1.604395986,0.005,-0.01104787178337574,-0.02059420756995678,-0.9954280853271484,-0.0001025276869768277,-5.45022776350379e-05,-0.004976987838745117,-2.514733978387085e-06,6.59842172012759e-08,2.001089342229534e-06,,,,,,
1.605858803,,,,,,,,,,,-0.006149463821202517,1,-0.01268092077225447,1,0.04241655021905899,1
1.609562874,0.005,-0.01073457393795252,-0.02058522216975689,-0.9957683086395264,-0.0001027855760185048,-5.188911018194631e-05,-0.004980944097042084,1.200624410557793e-06,-5.459471594804199e-06,2.520520183679764e-06,,,,,,
1.610888958,,,,,,,,,,,-0.006043794564902782,1,-0.009614939801394939,1,0.03907991573214531,1
1.614706159,0.005,-0.01080151461064816,-0.02035007067024708,-0.9954901337623596,-0.0001004880832624622,-5.420256638899446e-05,-0.004975805059075356,-1.760891109370277e-06,1.796535684661649e-06,1.521459239484102e-06,,,,,,
1.615914702,,,,,,,,,,,-0.003723900532349944,1,-0.0102852825075388,1,0.0418081134557724,1
1.619828939,0.005,-0.01070275530219078,-0.0205238088965416,-0.9954214692115784,-0.0001034045271808282,-5.352588414098136e-05,-0.004976412281394005,-4.98395047543454e-06,-2.988199639730738e-06,2.380816567892907e-06,,,,,,
1.620936394,,,,,,,,,,,-0.005414654966443777,1,-0.009332907386124134,1,0.04248158261179924,1
1.624928713,0.005,-0.01078704465180635,-0.02067904733121395,-0.9953911900520325,-0.0001046808174578473,-5.443598638521507e-05,-0.004976862110197544,-8.758152603149938e-07,3.56357600139745e-06,1.20071740639105e-06,,,,,,
1.625953555,,,,,,,,,,,-0.006944217253476381,1,-0.01018117740750313,1,0.04277835786342621,1
1.630004525,0.005,-0.01072501763701439,-0.02036987245082855,-0.9953959584236145,-0.0001000539850792848,-5.3229396144161e-05,-0.00497725373134017,-1.996203309317934e-06,1.635753847040178e-06,1.799345113795425e-06,,,,,,
1.630966306,,,,,,,,,,,-0.003921203315258026,1,-0.009586640633642673,1,0.04273271560668945,1
1.635057688,0.005,-0.01123584061861038,-0.02033450827002525,-0.9954047799110413,-0.000101175726740621,-5.913448330829851e-05,-0.004976990632712841,-1.874654230960004e-06,-2.725099193412461e-06,6.500338827208907e-07,,,,,,
1.635974169,,,,,,,,,,,-0.00358097767457366,1,-0.01460906397551298,1,0.04264664277434349,1
1.640087605,0.005,-0.01129021868109703,-0.02041173167526722,-0.995311439037323,-0.000102657031675335,-5.701035115635023e-05,-0.004976071417331696,-4.0733466448728e-06,-8.049527764342201e-07,-1.874377176136477e-06,,,,,,
1.640977383,,,,,,,,,,,-0.004333397373557091,1,-0.0151662053540349,1,0.04356211051344872,1
1.645094872,0.005,-0.01133373472839594,-0.02055053785443306,-0.9954051971435547,-0.0001036134199239314,-5.660162423737347e-05,-0.004977537784725428,-4.640013173684565e-07,-1.038115556184493e-06,-2.52465792982548e-06,,,,,,
1.645976305,,,,,,,,,,,-0.005691341124475002,1,-0.0156094878911972,1,0.04264265298843384,1
1.650079966,0.005,-0.01121433917433023,-0.02054622583091259,-0.9951404333114624,-0.0001025754972943105,-5.53655881958548e-05,-0.004974383860826492,5.009551387047395e-06,-4.331569471105468e-06,4.974402045831994e-08,,,,,,
1.650970340,,,,,,,,,,,-0.005631160456687212,1,-0.01442848239094019,1,0.04523831233382225,1
1.655050039,0.005,-0.01112103275954723,-0.02053095959126949,-0.9952847957611084,-0.0001027434336720034,-5.461684486363083e-05,-0.004976680036634207,-2.745991196206887e-06,1.476541200418069e-07,-2.027389200520702e-06,,,,,,
1.655961871,,,,,,,,,,,-0.005470001604408026,1,-0.01350998133420944,1,0.04382237792015076,1
1.659997702,0.005,-0.0112851420417428,-0.02059821411967278,-0.9952834844589233,-0.0001032080181175843,-5.750715718022548e-05,-0.004976827185600996,-1.604217459316715e-06,-4.187427748547634e-06,-2.950528141809627e-06,,,,,,
1.660948515,,,,,,,,,,,-0.006114948075264692,1,-0.01511945854872465,1,0.04383505508303642,1
1.664922833,0.005,-0.01157897245138884,-0.02077693492174149,-0.9953524470329285,-0.0001051482831826434,-5.950323247816414e-05,-0.004977474920451641,1.285540406570362e-06,-4.050927600474097e-06,-9.387372301716823e-07,,,,,,
1.665930748,,,,,,,,,,,-0.007843676954507828,1,-0.01800436712801456,1,0.04315785691142082,1
1.669825554,0.005,-0.01129128411412239,-0.02069146931171417,-0.9952992796897888,-0.0001027655889629386,-5.484884604811668e-05,-0.004976403899490833,-3.475739504210651e-06,-2.825728415700723e-06,1.755515086188097e-06,,,,,,
1.670908213,,,,,,,,,,,-0.006974220741540194,1,-0.01518889423459768,1,0.04367918521165848,1
1.674705148,0.005,-0.01119899097830057,-0.02080905251204967,-0.9954534769058228,-0.0001049048514687456,-5.549936759052798e-05,-0.004978321027010679,-1.370507561659906e-06,1.287818633954885e-07,-1.16909052394476e-06,,,,,,
1.675881267,,,,,,,,,,,-0.008111787028610706,1,-0.01428714860230684,1,0.04216646775603294,1
1.679563284,0.005,-0.01109899859875441,-0.02057970687747002,-0.995568573474884,-0.000101137877209112,-5.512179268407635e-05,-0.00497810123488307,-2.684114861040143e-06,-4.238705969328294e-06,-4.024032023153268e-06,,,,,,
1.680849910,,,,,,,,,,,-0.005843120627105236,1,-0.01332019548863173,1,0.04103774949908257,1
1.684399605,0.005,-0.01101276651024818,-0.02025073952972889,-0.9952897429466248,-9.890471119433641e-05,-5.424673872767016e-05,-0.004975283052772284,-2.650889655342326e-06,1.793488763723872e-06,-5.476866249409795e-07,,,,,,
1.685814023,,,,,,,,,,,-0.00260654860176146,1,-0.01249067950993776,1,0.04377221316099167,1
1.689213753,0.005,-0.01114482153207064,-0.02039722166955471,-0.9954857230186462,-0.0001030094281304628,-5.654069173033349e-05,-0.004978230223059654,-1.450438560368639e-07,7.844111564736522e-07,-2.0436370959942e-06,,,,,,
1.690773487,,,,,,,,,,,-0.004021724220365286,1,-0.01375418901443481,1,0.04184909537434578,1
1.694175959,0.005,-0.0111489649862051,-0.02032228372991085,-0.9954915642738342,-0.0001013152359519154,-5.55561637156643e-05,-0.004977572709321976,2.575897951828665e-06,2.497308514648466e-06,2.851206772902515e-06,,,,,,
1.695813656,,,,,,,,,,,-0.003288741456344724,1,-0.01376147288829088,1,0.04179101809859276,1
1.699371576,0.005,-0.01136787422001362,-0.02021675370633602,-0.99510258436203,-0.0001006571037578396,-5.812751260236837e-05,-0.004973083734512329,1.671784730206127e-06,1.202653379550611e-06,-1.805841066016001e-06,,,,,,
1.700849652,,,,,,,,,,,-0.0022631143219769,1,-0.01588044501841068,1,0.04560606926679611,1
1.704542756,0.005,-0.01115396060049534,-0.02033214829862118,-0.9952735304832458,-0.0001021452262648381,-5.473472992889583e-05,-0.004977521020919085,4.504153821471846e-06,1.149274226008856e-06,3.286876790298265e-06,,,,,,
1.705880880,,,,,,,,,,,-0.003407971933484077,1,-0.01374603621661663,1,0.04392971843481064,1
1.709690571,0.005,-0.01115958858281374,-0.0203709751367569,-0.9955419301986694,-0.0001024400553433225,-5.574744136538357e-05,-0.004979663528501987,-2.697770469239913e-06,-1.865538706624648e-06,4.635417099052574e-06,,,,,,
1.710907102,,,,,,,,,,,-0.003790241666138172,1,-0.01377673074603081,1,0.04129724949598312,1
1.714814186,0.005,-0.01120713539421558,-0.02059772610664368,-0.995374321937561,-0.0001044558812282048,-5.633673572447151e-05,-0.004975821822881699,-2.712931518544792e-06,-5.381163532547362e-07,1.75111347289203e-06,,,,,,
1.715929031,,,,,,,,,,,-0.006012385711073875,1,-0.01424712594598532,1,0.04294144734740257,1
1.719913721,0.005,-0.01143423561006784,-0.02084537968039513,-0.9952606558799744,-0.0001055100656230934,-5.829931251355447e-05,-0.004975810181349516,-1.605327497600229e-06,1.345273290098703e-06,-5.575790282819071e-07,,,,,,
1.720946193,,,,,,,,,,,-0.008440803736448288,1,-0.01647735014557838,1,0.04405570775270462,1
1.724988937,0.005,-0.01145825255662203,-0.02077965997159481,-0.995603084564209,-0.0001037173205986619,-5.761325155617669e-05,-0.004979550838470459,-1.953864739334676e-06,5.127328108756046e-07,-1.091959575205692e-06,,,,,,
1.725958705,,,,,,,,,,,-0.007799744606018066,1,-0.01672256737947464,1,0.04069748893380165,1
1.730045676,0.005,-0.01138665806502104,-0.0207374282181263,-0.9955544471740723,-0.0001038612972479314,-5.660319584421813e-05,-0.004977711942046881,-3.357191644681734e-06,1.473456563871878e-06,2.922730573118315e-06,,,,,,
1.730968356,,,,,,,,,,,-0.007405627518892288,1,-0.01603320799767971,1,0.04117482155561447,1
1.735084057,0.005,-0.01105061359703541,-0.02055663987994194,-0.9959462285041809,-0.000101648984127678,-5.353183223633096e-05,-0.004981972742825747,2.807504415613948e-06,-4.501577677729074e-06,2.523015837141429e-06,,,,,,
1.735973120,,,,,,,,,,,-0.00563086150214076,1,-0.01274321042001247,1,0.03733301535248756,1
1.740098834,0.005,-0.01118976064026356,-0.02060825750231743,-0.9958505630493164,-0.0001033144144457765,-5.653612242895178e-05,-0.004978528711944818,4.074905518791638e-06,-1.114859401241119e-06,9.995823120334535e-07,,,,,,
1.740973353,,,,,,,,,,,-0.00611974811181426,1,-0.01409138832241297,1,0.03827099502086639,1
1.745090842,0.005,-0.01114665158092976,-0.02057116851210594,-0.9954259991645813,-0.0001029564155032858,-5.52874589629937e-05,-0.004974806681275368,3.912165993824601e-06,1.787432893252117e-06,4.745432306663133e-06,,,,,,
1.745968938,,,,,,,,,,,-0.00575687363743782,1,-0.01364042982459068,1,0.0424344390630722,1
1.750059724,0.005,-0.01108455378562212,-0.02042203396558762,-0.9952390193939209,-0.0001011786662274972,-5.490246985573322e-05,-0.004975009243935347,-7.693758448112931e-07,-1.494207140240178e-07,1.347070565316244e-06,,,,,,
1.750959873,,,,,,,,,,,-0.004298674874007702,1,-0.01300915889441967,1,0.04426811262965202,1
1.755005717,0.005,-0.01083225477486849,-0.02030262537300587,-0.9955222606658936,-0.0001005584344966337,-5.275069634080864e-05,-0.00497929286211729,-4.03159992856672e-06,-3.2575130717305e-06,-4.307821939164569e-07,,,,,,
1.755946755,,,,,,,,,,,-0.003121920162811875,1,-0.01052979193627834,1,0.04148975014686584,1
1.759930611,0.005,-0.0111054815351963,-0.02041112072765827,-0.9952163696289062,-0.0001028699480229989,-5.672083352692425e-05,-0.004974446259438992,1.627372967050178e-06,1.515896087767032e-06,-1.381401034450391e-06,,,,,,
1.760928988,,,,,,,,,,,-0.00418469961732626,1,-0.01321123354136944,1,0.04448952898383141,1
1.764832973,0.005,-0.01105228252708912,-0.02069692686200142,-0.9950389862060547,-0.0001054407766787335,-5.487079033628106e-05,-0.004974100738763809,-9.920755701386952e-07,-8.836260576572386e-07,-2.324976691170377e-07,,,,,,
1.765906692,,,,,,,,,,,-0.006989795248955488,1,-0.01268231123685837,1,0.04622912779450417,1
1.769713163,0.005,-0.01071354281157255,-0.02042068354785442,-0.9953730702400208,-0.0001005893427645788,-5.155814869794995e-05,-0.004978528246283531,6.860254302409885e-07,1.824412720452528e-06,7.780154760439473e-07,,,,,,
1.770879745,,,,,,,,,,,-0.004284574184566736,1,-0.009357004426419735,1,0.0429532565176487,1
1.774571061,0.005,-0.0107982074841857,-0.02048108167946339,-0.9954730868339539,-0.0001026696991175413,-5.461025648401119e-05,-0.004978134296834469,1.193353909911821e-06,-3.262670588810579e-06,-3.355770843427308e-07,,,,,,
1.775848389,,,,,,,,,,,-0.004876859020441771,1,-0.01018208079040051,1,0.04197165742516518,1
1.779406905,0.005,-0.01106083020567894,-0.02048373408615589,-0.9953693747520447,-0.000102235862868838,-5.700870678992942e-05,-0.004976243712007999,-2.620984787427005e-06,-2.833064172591548e-06,-2.058332484011771e-06,,,,,,
1.780812502,,,,,,,,,,,-0.00488395569846034,1,-0.01274812873452902,1,0.0429881289601326,1
1.784224272,0.005,-0.01101746782660484,-0.02048267424106598,-0.9952345490455627,-0.0001021497591864318,-5.479109677253291e-05,-0.004976078867912292,-5.128185421199305e-06,-2.562415602369583e-06,-3.539383897077641e-06,,,,,,
1.785773039,,,,,,,,,,,-0.004857107065618038,1,-0.01234923489391804,1,0.04431039467453957,1
1.789104939,0.005,-0.01091885287314653,-0.02039914764463902,-0.995202362537384,-0.0001016519963741302,-5.361623334465548e-05,-0.004975586198270321,-1.471716132073198e-06,-1.86955537628819e-06,3.609362693168805e-06,,,,,,
1.790813446,,,,,,,,,,,-0.00402299826964736,1,-0.01139961648732424,1,0.04462653025984764,1
1.794301152,0.005,-0.01086883153766394,-0.02042902633547783,-0.9955987930297852,-0.0001025155652314425,-5.41342596989125e-05,-0.004980383906513453,-3.398724004455289e-07,-1.100516328733647e-06,1.488779730607348e-06,,,,,,
1.795849204,,,,,,,,,,,-0.004302323795855045,1,-0.01092007756233215,1,0.04073871672153473,1
1.799473166,0.005,-0.01069609168916941,-0.02034062705934048,-0.9957301616668701,-0.0001013259970932268,-5.232582043390721e-05,-0.004979661665856838,2.699027163544088e-06,2.27239502237353e-06,1.418997840119118e-06,,,,,,
1.800880075,,,,,,,,,,,-0.003430968848988414,1,-0.009220321662724018,1,0.03944980353116989,1
1.804620266,0.005,-0.01122905220836401,-0.02051212452352047,-0.9955360889434814,-0.0001033440348692238,-5.948805483058095e-05,-0.004976588301360607,-4.80541484648711e-06,-1.152321942754497e-06,-2.760569941528956e-06,,,,,,
1.805906892,,,,,,,,,,,-0.005113906692713499,1,-0.0144522450864315,1,0.0413527712225914,1
1.809745669,0.005,-0.01122377254068851,-0.02048888243734837,-0.9952676892280579,-0.000102131518360693,-5.639837763737887e-05,-0.00497455894947052,-2.235026613561786e-06,-2.467412514306488e-06,1.987650875889813e-06,,,,,,
1.810929179,,,,,,,,,,,-0.004882405512034893,1,-0.01442004088312387,1,0.04398520290851593,1
1.814847469,0.005,-0.01119796559214592,-0.0207896176725626,-0.9953209757804871,-0.0001056196197168902,-5.591907756752335e-05,-0.004976941272616386,-2.020810370595427e-06,-3.255807541791e-06,1.13038413473987e-06,,,,,,
1.815946698,,,,,,,,,,,-0.007823318243026733,1,-0.01418203115463257,1,0.04346271604299545,1
1.819926023,0.005,-0.01140686962753534,-0.02041432075202465,-0.9950526356697083,-9.94754591374658e-05,-5.812145172967575e-05,-0.004973940551280975,4.2565551439111e-07,-1.724342496345344e-06,-2.524180047203117e-07,,,,,,
1.820959449,,,,,,,,,,,-0.004128078930079937,1,-0.01623430475592613,1,0.04609432443976402,1
1.824981213,0.005,-0.01108637545257807,-0.02041279152035713,-0.9949927926063538,-0.0001020139316096902,-5.358593625715002e-05,-0.004974884912371635,-4.457846500827145e-07,9.834842273903632e-08,4.359272338660958e-07,,,,,,
1.825967669,,,,,,,,,,,-0.004104176536202431,1,-0.01308827474713326,1,0.04668091610074043,1
1.830012441,0.005,-0.01134553365409374,-0.02063516899943352,-0.9949405193328857,-0.0001042560106725432,-5.831677844980732e-05,-0.004974548704922199,-3.61913248525525e-06,1.805156671252917e-06,2.800696620397503e-06,,,,,,
1.830971122,,,,,,,,,,,-0.006281055510044098,1,-0.01563579961657524,1,0.04719319567084312,1
1.835021257,0.005,-0.01119165029376745,-0.02042266726493835,-0.9953455924987793,-0.0001009378975140862,-5.513339056051336e-05,-0.004978614393621683,-5.373613589654269e-07,6.174524287416716e-07,-5.539854441849457e-07,,,,,,
1.835970283,,,,,,,,,,,-0.004202162846922874,1,-0.01414379477500916,1,0.04322146624326706,1
1.840007186,0.005,-0.01107139978557825,-0.02055465802550316,-0.9953121542930603,-0.0001035098903230391,-5.453950507217087e-05,-0.004976438824087381,-3.807183475146303e-06,1.329836663899187e-06,4.431898560142145e-06,,,,,,
1.840964556,,,,,,,,,,,-0.005508580710738897,1,-0.01298423483967781,1,0.04354985058307648,1
1.844969988,0.005,-0.01093522552400827,-0.02066701650619507,-0.9952139854431152,-0.0001039941344060935,-5.395087646320462e-05,-0.004975394811481237,-1.418136548636539e-06,6.049739909030905e-07,-6.887232757435413e-07,,,,,,
1.845954299,,,,,,,,,,,-0.006621174979954958,1,-0.01166551373898983,1,0.04451308026909828,1
1.849909306,0.005,-0.01125202141702175,-0.0207314770668745,-0.9955025315284729,-0.0001038576519931667,-5.816367774968967e-05,-0.00497894361615181,-7.195520765890251e-07,-4.675002855947241e-06,-1.471453515478061e-06,,,,,,
1.850939155,,,,,,,,,,,-0.007252376060932875,1,-0.01478349510580301,1,0.04168375954031944,1
1.854825258,0.005,-0.01127137150615454,-0.02076169289648533,-0.9955775737762451,-0.0001044364616973326,-5.628385406453162e-05,-0.004978487733751535,4.919704224448651e-06,-4.597031420416897e-06,-1.395993990627176e-06,,,,,,
1.855919361,,,,,,,,,,,-0.007527527865022421,1,-0.01496070064604282,1,0.04094738140702248,1
1.859718919,0.005,-0.01121695246547461,-0.02033225446939468,-0.9953715205192566,-9.933902765624225e-05,-5.538914410863072e-05,-0.004975533112883568,1.08890094452363e-06,-2.905112978623947e-06,-1.752857087922166e-06,,,,,,
1.860896826,,,,,,,,,,,-0.00329090841114521,1,-0.01441047526896,1,0.04296654462814331,1
1.864598513,0.005,-0.0113642206415534,-0.02013966999948025,-0.99534672498703,-9.936620335793123e-05,-5.761543434346095e-05,-0.00497675035148859,-3.774539436562918e-07,2.832779273376218e-06,-1.233418174706458e-06,,,,,,
1.865869880,,,,,,,,,,,-0.001394379534758627,1,-0.01584138907492161,1,0.04320887848734856,1
1.869455338,0.005,-0.01143607869744301,-0.02036388590931892,-0.9951955080032349,-0.0001033178195939399,-5.774411329184659e-05,-0.004975015297532082,2.486690391378943e-07,-1.349549279439088e-06,-3.168218540849921e-07,,,,,,
1.870838046,,,,,,,,,,,-0.003596705384552479,1,-0.01653416268527508,1,0.04469176754355431,1
1.874289870,0.005,-0.01113769039511681,-0.02028930000960827,-0.9947889447212219,-0.0001008949911920354,-5.349759157979861e-05,-0.004971864633262157,3.295760507171508e-06,-3.634067624602721e-08,-1.794902118490427e-06,,,,,,
1.875801563,,,,,,,,,,,-0.002854983555153012,1,-0.0135915894061327,1,0.04867801442742348,1
1.879102230,0.005,-0.01106411311775446,-0.02075463160872459,-0.994882345199585,-0.0001066318145603873,-5.495568984770216e-05,-0.004974800162017345,-2.007864850384067e-06,4.59601187685621e-06,7.456687285412045e-07,,,,,,
1.880760550,,,,,,,,,,,-0.007431046105921268,1,-0.01285950187593699,1,0.0477626696228981,1
1.883978248,0.005,-0.01107290294021368,-0.02072976343333721,-0.9951808452606201,-0.0001033457301673479,-5.566330946749076e-05,-0.00497771380469203,-1.896515527732845e-06,-3.19369951284898e-06,-1.044144369188871e-06,,,,,,
1.885801435,,,,,,,,,,,-0.007197040133178234,1,-0.01294819545000792,1,0.04483553767204285,1
1.889176846,0.005,-0.01108366623520851,-0.02063132077455521,-0.9955034255981445,-0.0001026091922540218,-5.548064291360788e-05,-0.004979281220585108,9.249978347725119e-07,1.168259018413664e-06,-1.571986899762123e-06,,,,,,
1.890838027,,,,,,,,,,,-0.006217805203050375,1,-0.013006791472435,1,0.0416714996099472,1
