FILE_INFO
ListSeparator=,
DecimalSeparator=.

SESSION_INFO
TimeZone,UTC
TimeZoneOffset,0
DateTimeFormat,MM/DD/YY h:mm:ss.nnnnnnnnn
StartTime,01/01/70 00:00:00.000000000
TimeFormat,Relative

DEVICE_INFO
Address,*

CHANNEL_INFO
Channel,Type,SampleRate,Equation,Coefficients,Unit,UnitSymbol,WhereApplied,WhenApplied
inertial-6286.188861:timeInfo_deltaTime_ahrsImu,Timeseries,200Hz,,,,,,
inertial-6286.188861:scaledAccelY,Timeseries,200Hz,,,,,,
inertial-6286.188861:scaledAccelX,Timeseries,200Hz,,,,,,
inertial-6286.188861:scaledAccelZ,Timeseries,200Hz,,,,,,
inertial-6286.188861:deltaVelX,Timeseries,200Hz,,,,,,
inertial-6286.188861:deltaVelY,Timeseries,200Hz,,,,,,
inertial-6286.188861:deltaVelZ,Timeseries,200Hz,,,,,,
inertial-6286.188861:deltaThetaX,Timeseries,200Hz,,,,,,
inertial-6286.188861:deltaThetaY,Timeseries,200Hz,,,,,,
inertial-6286.188861:deltaThetaZ,Timeseries,200Hz,,,,,,
inertial-6286.188861:estLinearAccelX,Timeseries,200Hz,,,,,,
inertial-6286.188861:estLinearAccelX:valid,ValidFlag,200Hz,,,,,,
inertial-6286.188861:estLinearAccelY,Timeseries,200Hz,,,,,,
inertial-6286.188861:estLinearAccelY:valid,ValidFlag,200Hz,,,,,,
inertial-6286.188861:estLinearAccelZ,Timeseries,200Hz,,,,,,
inertial-6286.188861:estLinearAccelZ:valid,ValidFlag,200Hz,,,,,,

DATA_START
Time,inertial-6286.188861:timeInfo_deltaTime_ahrsImu,inertial-6286.188861:scaledAccelY,inertial-6286.188861:scaledAccelX,inertial-6286.188861:scaledAccelZ,inertial-6286.188861:deltaVelX,inertial-6286.188861:deltaVelY,inertial-6286.188861:deltaVelZ,inertial-6286.188861:deltaThetaX,inertial-6286.188861:deltaThetaY,inertial-6286.188861:deltaThetaZ,inertial-6286.188861:estLinearAccelX,inertial-6286.188861:estLinearAccelX:valid,inertial-6286.188861:estLinearAccelY,inertial-6286.188861:estLinearAccelY:valid,inertial-6286.188861:estLinearAccelZ,inertial-6286.188861:estLinearAccelZ:valid
0.000000000,0.005,-0.007681515067815781,-0.02905224822461605,-0.9959480166435242,-0.0001560160162625834,-3.263169128331356e-05,-0.004983758553862572,-7.800163075444289e-06,2.513789922886644e-06,-9.087999387702439e-06,,,,,,
0.000633088,,,,,,,,,,,0.02365858294069767,1,0.005456206388771534,1,0.03455117344856262,1
0.005026304,0.005,-0.006001513451337814,-0.0279495045542717,-0.9963432550430298,-0.0001330452359979972,-1.977452120627277e-05,-0.004984953440725803,-1.213851078318839e-06,1.552688786432554e-06,-5.062365289631998e-06,,,,,,
0.005636096,,,,,,,,,,,0.03448285907506943,1,0.02190838754177094,1,0.03067458607256413,1
0.010030080,0.005,-0.004956444259732962,-0.02883105538785458,-0.994023323059082,-0.0001491380389779806,-1.833019632613286e-05,-0.004956653341650963,-2.511706725272234e-06,-2.909571776399389e-06,-8.13638780527981e-06,,,,,,
0.010634496,,,,,,,,,,,0.0258595272898674,1,0.03213924914598465,1,0.05342549458146095,1
0.015009536,0.005,-0.00397179089486599,-0.02920906245708466,-0.9936544895172119,-0.0001488851557951421,-1.43106290124706e-05,-0.004964284133166075,-7.03993782735779e-06,7.88643319538096e-06,-6.593781108676922e-06,,,,,,
0.015628032,,,,,,,,,,,0.02214725315570831,1,0.04176155477762222,1,0.05704280734062195,1
0.019966464,0.005,-0.00224983156658709,-0.02801107615232468,-0.9964790940284729,-0.000133002526126802,-1.236803200299619e-06,-0.004999482538551092,-7.629490028193686e-06,8.83505833826348e-07,-7.974360414664261e-06,,,,,,
0.020616960,,,,,,,,,,,0.03387296199798584,1,0.05859725549817085,1,0.0293441005051136,1
0.024900865,0.005,-0.001546880579553545,-0.02853682264685631,-0.996708869934082,-0.0001444976078346372,-2.104476607200922e-06,-0.004986627027392387,3.477445716271177e-06,-1.896553112601396e-05,-4.417672244017012e-06,,,,,,
0.025604865,,,,,,,,,,,0.028749605640769,1,0.06546936929225922,1,0.02708998136222363,1
0.029829888,0.005,-0.002857679734006524,-0.03033573739230633,-0.995417058467865,-0.0001630986225791276,-2.187213976867497e-05,-0.00496933376416564,4.214362434140639e-06,-5.143915132066468e-06,-3.641873718152056e-07,,,,,,
0.030588416,,,,,,,,,,,0.01118035707622766,1,0.05262424796819687,1,0.03975587338209152,1
0.034736898,0.005,-0.003385785734280944,-0.03045273385941982,-0.9952200651168823,-0.0001531400193925947,-2.072075585601851e-05,-0.004974496550858021,-5.447896455734735e-06,4.735853963211412e-06,3.449814130362938e-06,,,,,,
0.035567105,,,,,,,,,,,0.01005818229168653,1,0.0474383607506752,1,0.04168646037578583,1
0.039621633,0.005,-0.003729466116055846,-0.03048409707844257,-0.9957230687141418,-0.0001518776698503643,-2.033319105976261e-05,-0.004982123151421547,-4.279482254787581e-06,3.693593725984101e-06,2.061462964775274e-06,,,,,,
0.040541440,,,,,,,,,,,0.00975120160728693,1,0.04404473677277565,1,0.03675400838255882,1
0.044483840,0.005,-0.004738022107630968,-0.03118710033595562,-0.9953712224960327,-0.0001607918820809573,-2.947250322904438e-05,-0.004974967334419489,7.223704869829817e-06,1.199549751618179e-05,2.592036480564275e-06,,,,,,
0.045510910,,,,,,,,,,,0.002816497813910246,1,0.03415791690349579,1,0.04020586237311363,1
0.049323007,0.005,-0.006041547283530235,-0.03045357950031757,-0.9953157901763916,-0.0001479741040384397,-3.76569150830619e-05,-0.004976022522896528,9.369264830638713e-08,7.126208856789162e-06,2.117566509696189e-06,,,,,,
0.050476033,,,,,,,,,,,0.009940531104803085,1,0.02139463275671005,1,0.0407511293888092,1
0.054140672,0.005,-0.006978301797062159,-0.03052067197859287,-0.9958806037902832,-0.0001528230059193447,-4.04021266149357e-05,-0.004982988350093365,3.190409870512667e-06,7.033654583210591e-07,3.589889956856496e-06,,,,,,
0.055436544,,,,,,,,,,,0.00923624262213707,1,0.01222386118024588,1,0.03521349281072617,1
0.059105024,0.005,-0.008198365569114685,-0.0306773204356432,-0.9956569075584412,-0.0001550801971461624,-4.847691889153793e-05,-0.0049772122874856,4.741084183024213e-07,3.300485559520894e-06,8.269605132227298e-06,,,,,,
0.060477182,,,,,,,,,,,0.007654254790395498,1,0.000273723853752017,1,0.03740913420915604,1
0.064300291,0.005,-0.009110910817980766,-0.03025611490011215,-0.9949219226837158,-0.000148479244671762,-5.169532232685015e-05,-0.004970539826899767,5.458268333313754e-06,-9.560323633195367e-06,8.197403985832352e-06,,,,,,
0.065513216,,,,,,,,,,,0.01178107038140297,1,-0.00864857155829668,1,0.04461649432778358,1
0.069473282,0.005,-0.009165758267045021,-0.03063603490591049,-0.9941795468330383,-0.0001556700881337747,-4.649838228942826e-05,-0.004966393578797579,3.873135028698016e-06,-5.682090431946563e-06,8.802893717074767e-06,,,,,,
0.070544899,,,,,,,,,,,0.008091209456324577,1,-0.009149764664471149,1,0.05189516395330429,1
0.074622720,0.005,-0.009201518259942532,-0.03003625199198723,-0.9949242472648621,-0.0001462431537220255,-4.62273383163847e-05,-0.004978698212653399,-1.082323706214083e-06,2.972400579892565e-06,7.560122412542114e-06,,,,,,
0.075571969,,,,,,,,,,,0.01399125158786774,1,-0.009480354376137257,1,0.04459164291620255,1
0.079749122,0.005,-0.009030797518789768,-0.0291795302182436,-0.995612621307373,-0.0001405515213264152,-4.41909724031575e-05,-0.004982299171388149,-3.745395815712982e-06,5.081521976535441e-06,3.395175099285552e-06,,,,,,
0.080595203,,,,,,,,,,,0.02238143421709538,1,-0.007806489244103432,1,0.03784166276454926,1
0.084856577,0.005,-0.00875686202198267,-0.02874973230063915,-0.9955225586891174,-0.000140940974233672,-4.25521211582236e-05,-0.004977261647582054,-6.592842964892043e-07,-8.413734775558623e-08,5.149845947016729e-06,,,,,,
0.085614078,,,,,,,,,,,0.02658038213849068,1,-0.005124472547322512,1,0.03872550651431084,1
0.089940995,0.005,-0.009502267464995384,-0.02796083875000477,-0.9950209259986877,-0.000134913352667354,-5.148335549165495e-05,-0.004971396178007126,1.141251686931355e-06,6.292750640568556e-06,7.232413281599293e-07,,,,,,
0.090628348,,,,,,,,,,,0.03428690880537033,1,-0.01243466511368752,1,0.04364587366580963,1
0.095001854,0.005,-0.01015822123736143,-0.02791406400501728,-0.9977969527244568,-0.0001393570855725557,-5.482633787323721e-05,-0.005004498641937971,-2.038620550592896e-06,3.251901944167912e-06,-5.648885689879535e-06,,,,,,
0.095638275,,,,,,,,,,,0.03462148085236549,1,-0.01889793016016483,1,0.01642672903835773,1
0.100039937,0.005,-0.008850177749991417,-0.02707024663686752,-0.9963740110397339,-0.0001292089145863429,-3.618949995143339e-05,-0.004976851865649223,4.460004674911033e-06,-7.171094694058411e-06,7.512875981774414e-06,,,,,,
0.100643583,,,,,,,,,,,0.04282372817397118,1,-0.006090049631893635,1,0.03038306534290314,1
0.105054721,0.005,-0.01096874754875898,-0.02801606804132462,-0.9924261569976807,-0.0001457499602111056,-6.693660543533042e-05,-0.004937285557389259,8.073834578681272e-06,-1.256152427231427e-05,2.553051444920129e-06,,,,,,
0.105644032,,,,,,,,,,,0.03355978801846504,1,-0.02682906948029995,1,0.06909817457199097,1
0.110047743,0.005,-0.0101459389552474,-0.02881189808249474,-0.993089497089386,-0.0001496721670264378,-4.748579158331268e-05,-0.004967918153852224,-1.431300734111574e-05,4.726761289930437e-06,-8.249140591942705e-06,,,,,,
0.110640384,,,,,,,,,,,0.02576722390949726,1,-0.01877122186124325,1,0.06259272247552872,1
0.115018241,0.005,-0.009091360494494438,-0.02746096812188625,-0.9952890276908875,-0.0001301140291616321,-3.748229937627912e-05,-0.004990369081497192,7.657664582438883e-07,6.353778644552222e-06,7.3392984631937e-06,,,,,,
0.115631871,,,,,,,,,,,0.03899384662508965,1,-0.008464325219392776,1,0.0410236157476902,1
0.119965695,0.005,-0.009401485323905945,-0.02676917426288128,-0.9969314336776733,-0.0001277411211049184,-4.982936297892593e-05,-0.004994649440050125,-3.074846517847618e-06,-5.678776688000653e-06,-5.312725903650062e-08,,,,,,
0.120619006,,,,,,,,,,,0.04575785994529724,1,-0.01151374541223049,1,0.02491755411028862,1
0.124890879,0.005,-0.008196103386580944,-0.02817199937999249,-0.9972596168518066,-0.0001499725913163275,-3.317900700494647e-05,-0.004988397005945444,-8.824543442642607e-07,-1.350773527519777e-05,-2.659398433024762e-06,,,,,,
0.125601277,,,,,,,,,,,0.03205020725727081,1,0.000282847962807864,1,0.0216976311057806,1
0.129792765,0.005,-0.007760578766465187,-0.02809972688555717,-0.9956033825874329,-0.0001404470094712451,-3.666073462227359e-05,-0.004969784989953041,2.599371327960398e-06,-1.850329311992027e-07,1.722387082736532e-06,,,,,,
0.130579203,,,,,,,,,,,0.03280526772141457,1,0.00456387409940362,1,0.03793781995773315,1
0.134673923,0.005,-0.007055812049657106,-0.02712721936404705,-0.9941481947898865,-0.0001297327398788184,-3.106777148786932e-05,-0.004959386773407459,-1.053124742611544e-05,5.919436603107897e-07,-3.785656019772432e-07,,,,,,
0.135553017,,,,,,,,,,,0.04235526919364929,1,0.01145089231431484,1,0.05220766738057137,1
0.139534593,0.005,-0.005506971850991249,-0.02766718529164791,-0.9960098266601562,-0.0001411363919032738,-1.84016225830419e-05,-0.004991772118955851,-2.901900643337285e-06,-7.625596481375396e-06,-6.04194156039739e-06,,,,,,
0.140522495,,,,,,,,,,,0.03710068017244339,1,0.02659983560442924,1,0.03395074978470802,1
0.144372985,0.005,-0.004408224485814571,-0.02688809670507908,-0.9953306317329407,-0.000129973006551154,-1.494101525167935e-05,-0.004973103757947683,9.893472451949492e-06,3.563831796782324e-06,3.567525027392549e-06,,,,,,
0.145487621,,,,,,,,,,,0.04475525766611099,1,0.03738109767436981,1,0.04061071202158928,1
0.149206787,0.005,-0.004383356310427189,-0.02719821222126484,-0.9956513047218323,-0.0001370111713185906,-2.175309600715991e-05,-0.004979060962796211,-1.155942868535931e-06,-3.298218643976725e-06,-3.294265070508118e-06,,,,,,
0.150451198,,,,,,,,,,,0.04172035679221153,1,0.03764515742659569,1,0.03746572881937027,1
0.154099450,0.005,-0.003006819169968367,-0.02803690545260906,-0.9973184466362,-0.0001453950681025162,-7.168101092247525e-06,-0.004995968192815781,-5.08331686432939e-06,-4.10655775340274e-06,-2.769254251688835e-06,,,,,,
0.155491590,,,,,,,,,,,0.03352787718176842,1,0.0511319525539875,1,0.02111569978296757,1
0.159293696,0.005,-0.002055690158158541,-0.02692350745201111,-0.996617317199707,-0.0001288848288822919,-3.818705408775713e-06,-0.004982525482773781,6.129786470410181e-06,4.41321844846243e-06,-1.472874089358811e-07,,,,,,
0.160527363,,,,,,,,,,,0.04444944113492966,1,0.06046634539961815,1,0.02799101173877716,1
0.164464891,0.005,-0.003817437216639519,-0.02781334891915321,-0.9892086386680603,-0.0001416026498191059,-2.857790059351828e-05,-0.004900025203824043,5.323923687683418e-06,-1.173344207927585e-05,5.093761501484551e-06,,,,,,
0.165558532,,,,,,,,,,,0.03574766218662262,1,0.04322075471282005,1,0.1006444692611694,1
0.169612035,0.005,-0.004705998115241528,-0.02935720421373844,-0.9962500333786011,-0.0001592323969816789,-3.200249193469062e-05,-0.00501775648444891,-1.535189221613109e-05,1.909028651425615e-05,-4.434792572283186e-06,,,,,,
0.170585856,,,,,,,,,,,0.02060310542583466,1,0.03450269252061844,1,0.03159203752875328,1
0.174738944,0.005,-0.002438774332404137,-0.02537738159298897,-1.000500559806824,-0.0001029867635224946,3.26469489664305e-06,-0.005033246241509914,1.590010469953995e-06,2.285277696500998e-05,1.51705285134085e-06,,,,,,
0.175608322,,,,,,,,,,,0.05950399488210678,1,0.0566813051700592,1,-0.01008621696382761,1
0.179842815,0.005,-0.007852461189031601,-0.02615669555962086,-0.9953227043151855,-0.000132923451019451,-7.048875704640523e-05,-0.00494704395532608,2.800384027068503e-05,-2.408345790172461e-05,1.335011438641232e-05,,,,,,
0.180626437,,,,,,,,,,,0.05183346197009087,1,0.003684886731207371,1,0.04069051519036293,1
0.184923142,0.005,-0.007844677194952965,-0.02913078293204308,-0.9941871166229248,-0.0001644610310904682,-4.251233622198924e-05,-0.004959642887115479,-2.167128150176723e-05,-1.251540652447147e-06,-1.122406229114858e-05,,,,,,
0.185639933,,,,,,,,,,,0.02271002531051636,1,0.003780931234359741,1,0.05182508379220963,1
0.189979911,0.005,-0.007221004460006952,-0.02620745450258255,-0.9977667331695557,-0.0001162191838375293,-2.99643179459963e-05,-0.00501156784594059,4.390264166431734e-06,1.793521732906811e-05,1.182976302516181e-05,,,,,,
0.190648839,,,,,,,,,,,0.05132725089788437,1,0.009875749237835407,1,0.01672287471592426,1
0.195012867,0.005,-0.00918730441480875,-0.02491111122071743,-0.9944721460342407,-0.0001137747894972563,-5.797651101602241e-05,-0.00495491549372673,6.261732323764591e-06,-1.423280173185049e-05,6.180597210914129e-06,,,,,,
0.195653126,,,,,,,,,,,0.06402263790369034,1,-0.009382136166095734,1,0.04903242364525795,1
0.200024322,0.005,-0.01074056699872017,-0.02811934612691402,-0.9936165809631348,-0.0001599215029273182,-6.319484236883e-05,-0.004959583282470703,3.056537707379903e-06,-1.509117191744735e-05,-6.529440810254528e-08,,,,,,
0.200653061,,,,,,,,,,,0.03263340517878532,1,-0.02458418346941471,1,0.05742012336850166,1
0.205013767,0.005,-0.01057839579880238,-0.02808140963315964,-0.9945553541183472,-0.0001423319918103516,-5.256551594357006e-05,-0.004979903809726238,7.278124940057751e-06,1.70320417964831e-05,1.562046054459643e-05,,,,,,
0.205648646,,,,,,,,,,,0.03301337361335754,1,-0.02294976823031902,1,0.04821326956152916,1
0.209979907,0.005,-0.0106118842959404,-0.02539034374058247,-0.9960177540779114,-0.0001094392209779471,-5.343805241864175e-05,-0.004986431915313005,-6.485071935458109e-06,-9.936115930031519e-08,-7.442555443049059e-07,,,,,,
0.210639358,,,,,,,,,,,0.05936295539140701,1,-0.02325641922652721,1,0.03387315571308136,1
0.214923263,0.005,-0.00926000252366066,-0.02683678641915321,-0.9981369972229004,-0.0001429208641638979,-3.884609031956643e-05,-0.00500529445707798,-6.189789019117597e-06,-8.993268238555174e-06,-6.386178938555531e-06,,,,,,
0.215625465,,,,,,,,,,,0.04520320147275925,1,-0.01002343464642763,1,0.013089993968606,1
0.219843581,0.005,-0.009538875892758369,-0.02484986931085587,-0.9946408867835999,-0.0001139503292506561,-4.769548468175344e-05,-0.004953112918883562,1.523113223811379e-05,1.325146604358451e-05,1.101354791899212e-05,,,,,,
0.220606983,,,,,,,,,,,0.06465738266706467,1,-0.01273091603070498,1,0.04737573117017746,1
0.224742144,0.005,-0.009774821810424328,-0.02469663135707378,-0.9931438565254211,-0.0001197171513922513,-5.138110645930283e-05,-0.004954872187227011,-5.44435897609219e-06,-1.802375118131749e-05,-1.148682713392191e-06,,,,,,
0.225584641,,,,,,,,,,,0.06617338955402374,1,-0.01501094829291105,1,0.06205630674958229,1
0.229619965,0.005,-0.008480722084641457,-0.02729378640651703,-0.9953450560569763,-0.0001532644673716277,-3.368862235220149e-05,-0.004989536944776773,-5.370187636799528e-07,2.407204192422796e-06,3.846862909995252e-06,,,,,,
0.230557442,,,,,,,,,,,0.04075433686375618,1,-0.002331013092771173,1,0.04046810418367386,1
0.234491393,0.005,-0.01039014384150505,-0.02400082536041737,-0.9945842027664185,-0.0001018978218780831,-6.33857271168381e-05,-0.004970216192305088,9.416403372597415e-06,1.377335411234526e-05,-3.066950739594176e-06,,,,,,
0.235528961,,,,,,,,,,,0.0730075016617775,1,-0.02101420611143112,1,0.04793064668774605,1
0.239341319,0.005,-0.009709829464554787,-0.02433351613581181,-0.9945487976074219,-0.0001212675124406815,-4.594146230374463e-05,-0.004970640409737825,-1.569214327901136e-05,-1.116905423259595e-05,-5.622185199172236e-06,,,,,,
0.240496129,,,,,,,,,,,0.06973458826541901,1,-0.0143477963283658,1,0.0482780933380127,1
0.244169220,0.005,-0.008822126314043999,-0.0258683767169714,-0.9972865581512451,-0.0001398389285895973,-3.785074659390375e-05,-0.005002976860851049,-7.905840902822092e-06,7.789109986333642e-06,2.598837909317808e-06,,,,,,
0.245458692,,,,,,,,,,,0.05468235537409782,1,-0.005700736306607723,1,0.02143009752035141,1
0.249058053,0.005,-0.008872229605913162,-0.02435931377112865,-0.9978209733963013,-0.0001128669973695651,-4.391300171846524e-05,-0.004993658978492022,5.263004823063966e-06,5.431528279586928e-06,-9.242226042260882e-06,,,,,,
0.250499845,,,,,,,,,,,0.06943558901548386,1,-0.006214482709765434,1,0.01619119755923748,1
0.254256129,0.005,-0.008828685618937016,-0.0251967329531908,-0.9953283071517944,-0.0001294376124860719,-4.421040284796618e-05,-0.004962832666933537,3.238478939238121e-06,-1.545686609460972e-05,-2.192355850638705e-06,,,,,,
0.255536377,,,,,,,,,,,0.06124051287770271,1,-0.005777814425528049,1,0.04063469544053078,1
0.259429902,0.005,-0.009076208807528019,-0.02779349125921726,-0.9931642413139343,-0.0001561582903377712,-4.711454675998539e-05,-0.004952007438987494,-3.083697720285272e-06,4.11583778259228e-06,1.058846373780398e-05,,,,,,
0.260568053,,,,,,,,,,,0.03581016510725021,1,-0.008200449869036674,1,0.06185643002390862,1
0.264579833,0.005,-0.007797310594469309,-0.02672921679913998,-0.9930682182312012,-0.0001277204282814637,-3.211305374861695e-05,-0.00496363639831543,-1.072903796739411e-05,1.075593445420964e-05,1.443709862769538e-07,,,,,,
0.265595406,,,,,,,,,,,0.0462094321846962,1,0.004306940361857414,1,0.06279917061328888,1
0.269706249,0.005,-0.006495440378785133,-0.02628635056316853,-0.9957233071327209,-0.000128273808513768,-2.423762634862214e-05,-0.004994722083210945,-1.358995814371156e-05,-4.051824816997396e-06,-3.690504854603205e-06,,,,,,
0.270617843,,,,,,,,,,,0.0505344457924366,1,0.01699545048177242,1,0.03676217049360275,1
0.274808586,0.005,-0.006008724216371775,-0.02619841322302818,-0.9975037574768066,-0.0001308192004216835,-2.650433089002036e-05,-0.004998047836124897,2.256549578305567e-06,3.634644656358432e-07,-5.395993412093958e-07,,,,,,
0.275635451,,,,,,,,,,,0.05138504505157471,1,0.02171880751848221,1,0.01930301636457443,1
0.279888391,0.005,-0.005542077589780092,-0.02703817002475262,-0.9976903796195984,-0.0001395933504682034,-2.50837802013848e-05,-0.004991063848137856,3.126665660602157e-06,-1.698616688372567e-05,-2.977521262437222e-06,,,,,,
0.280648947,,,,,,,,,,,0.04319323226809502,1,0.02627999149262905,1,0.01747202314436436,1
0.284950286,0.005,-0.005430704448372126,-0.02860548347234726,-0.995815098285675,-0.0001523962564533576,-2.705770748434588e-05,-0.004966748878359795,4.538365374173736e-06,-9.939403753378429e-06,-2.921038003478316e-06,,,,,,
0.285659134,,,,,,,,,,,0.02790242806077003,1,0.02739023603498936,1,0.03585931286215782,1
0.289989889,0.005,-0.003104495815932751,-0.0279520358890295,-0.9945352673530579,-0.0001370573736494407,-2.04473485609924e-06,-0.004966003820300102,-6.038130777596962e-06,9.286437489208765e-06,6.540808044519508e-06,,,,,,
0.290664703,,,,,,,,,,,0.03434065729379654,1,0.05019204318523407,1,0.04840918257832527,1
0.295005947,0.005,-0.003049483522772789,-0.02787570282816887,-0.9918490052223206,-0.0001365600037388504,-1.291716671403265e-05,-0.004942836705595255,1.462559339415748e-06,-6.54833456792403e-06,-1.837220565903408e-06,,,,,,
0.295665413,,,,,,,,,,,0.03496738523244858,1,0.05070491135120392,1,0.07475621253252029,1
0.299999237,0.005,-0.003900970565155149,-0.02943290024995804,-0.9943044781684875,-0.0001575677306391299,-2.659109668456949e-05,-0.004983378574252129,-1.651335082897276e-06,1.20074582810048e-05,-9.266133929486386e-06,,,,,,
0.300661772,,,,,,,,,,,0.01959738880395889,1,0.0423455499112606,1,0.05067919194698334,1
0.304968953,0.005,-0.002798712579533458,-0.02767743915319443,-0.999032199382782,-0.0001282929151784629,-6.533183295687195e-06,-0.005024244543164968,-5.15999363415176e-06,1.731597694742959e-05,1.162738385573903e-06,,,,,,
0.305653244,,,,,,,,,,,0.03666791319847107,1,0.05311556532979012,1,0.004321747925132513,1
0.309915394,0.005,-0.005990991368889809,-0.02823277190327644,-0.9987176656723022,-0.000142518591019325,-4.781613097293302e-05,-0.004994746297597885,1.231286933034426e-05,-1.35654063342372e-05,5.108512596052606e-06,,,,,,
0.310640395,,,,,,,,,,,0.03115434944629669,1,0.02183271385729313,1,0.00740897748619318,1
0.314839542,0.005,-0.006975302007049322,-0.03057767450809479,-0.9946660399436951,-0.0001678333501331508,-4.239075860823505e-05,-0.004948283545672894,-5.264508217805997e-06,-5.908791990805184e-06,-6.709172794217011e-06,,,,,,
0.315622658,,,,,,,,,,,0.008170447312295437,1,0.01219761930406094,1,0.04714103415608406,1
0.319740146,0.005,-0.007369580678641796,-0.02955007366836071,-0.9945448637008667,-0.0001419008913217112,-3.843635931843892e-05,-0.004970158915966749,-1.926974846355733e-06,8.83232041815063e-06,6.69996916258242e-06,,,,,,
0.320600331,,,,,,,,,,,0.01822831481695175,1,0.008327323943376541,1,0.0483301542699337,1
0.324617982,0.005,-0.007689587771892548,-0.02881671860814095,-0.9956377148628235,-0.0001393364946125075,-4.04214661102742e-05,-0.004985173232853413,-6.406634838640457e-06,2.594519173726439e-06,9.574891009833664e-06,,,,,,
0.325573117,,,,,,,,,,,0.02538763172924519,1,0.005165892653167248,1,0.03761408478021622,1
0.329473287,0.005,-0.008673743344843388,-0.02971215732395649,-0.9959918856620789,-0.0001535522751510143,-4.787521902471781e-05,-0.004982027225196362,1.197937035612995e-05,-3.412506202948862e-06,-6.955872777325567e-06,,,,,,
0.330541313,,,,,,,,,,,0.01659130863845348,1,-0.004477508366107941,1,0.03414136543869972,1
0.334305286,0.005,-0.01069570798426867,-0.03072079457342625,-0.9933870434761047,-0.000159841263666749,-6.612736615352333e-05,-0.004953312687575817,1.570526364957914e-05,5.762609816883923e-06,4.972683655068977e-06,,,,,,
0.335505158,,,,,,,,,,,0.006689256522804499,1,-0.02422289922833443,1,0.05968604236841202,1
0.339116812,0.005,-0.0105529073625803,-0.02968508750200272,-0.9950348734855652,-0.000143085970194079,-5.271146073937416e-05,-0.004980196245014668,-1.792947477952112e-05,8.607987183495425e-06,5.748129751736997e-06,,,,,,
0.340464383,,,,,,,,,,,0.01679104566574097,1,-0.02280429936945438,1,0.04352738708257675,1
0.343992054,0.005,-0.008334624581038952,-0.02907932735979557,-1.000270366668701,-0.0001407249656040221,-2.906982990680262e-05,-0.005035478621721268,-1.709258685878012e-05,-2.436281647533178e-06,-6.475847385445377e-06,,,,,,
0.345505804,,,,,,,,,,,0.02270123921334743,1,-0.001133367884904146,1,-0.007814044132828712,1
0.349190921,0.005,-0.008623981848359108,-0.02823488600552082,-0.995831310749054,-0.0001367662916891277,-4.325926056480967e-05,-0.004955000709742308,2.608906470413785e-05,2.153133436877397e-06,5.457718998513883e-06,,,,,,
0.350542605,,,,,,,,,,,0.03096336498856544,1,-0.003957800101488829,1,0.03571836650371552,1
0.354366720,0.005,-0.009351050481200218,-0.02843756787478924,-0.9920595288276672,-0.0001414369035046548,-5.289251203066669e-05,-0.004934356547892094,-3.120233714071219e-06,-1.565533966640942e-05,6.928011316631455e-06,,,,,,
0.355574518,,,,,,,,,,,0.02899556793272495,1,-0.01103447005152702,1,0.07270650565624237,1
0.359518707,0.005,-0.007381531409919262,-0.03101177513599396,-0.9962867498397827,-0.0001708164054434747,-2.482732088537887e-05,-0.005004746839404106,-9.691335435491055e-06,-1.774611064320197e-06,3.930862476408947e-06,,,,,,
0.360602379,,,,,,,,,,,0.003812545444816351,1,0.008260663598775864,1,0.03125007078051567,1
0.364652812,0.005,-0.008177679963409901,-0.0281585194170475,-0.9960928559303284,-0.00012555907596834,-4.49593280791305e-05,-0.004982459358870983,8.624448128102813e-06,1.889934355858713e-05,-2.511280627004453e-06,,,,,,
0.365626365,,,,,,,,,,,0.03175867348909378,1,0.0004603699781000614,1,0.03315259888768196,1
0.369762570,0.005,-0.008269533514976501,-0.02734248898923397,-0.9937254786491394,-0.0001296823320444673,-4.309654468670487e-05,-0.004953114781528711,-3.167753902744153e-06,-8.243308911914937e-06,-9.591062735125888e-07,,,,,,
0.370645493,,,,,,,,,,,0.03973164036870003,1,-0.0004254765808582306,1,0.05636923387646675,1
0.374848515,0.005,-0.006764069199562073,-0.0294321496039629,-0.9979298710823059,-0.0001598742819624022,-2.542355105106253e-05,-0.005013007670640945,-1.304839861404616e-05,1.08511267171707e-06,2.672182290552882e-06,,,,,,
0.375660032,,,,,,,,,,,0.01924300193786621,1,0.01430013589560986,1,0.01513841282576323,1
0.379910648,0.005,-0.006080941762775183,-0.02736572548747063,-0.9983812570571899,-0.0001263550657313317,-2.503792893548962e-05,-0.004998993128538132,7.285366791620618e-06,1.114582482841797e-05,-3.346122412040131e-06,,,,,,
0.380669683,,,,,,,,,,,0.03945527225732803,1,0.02097149007022381,1,0.0107139041647315,1
0.384948492,0.005,-0.008469147607684135,-0.0279499925673008,-0.9927522540092468,-0.0001405470975441858,-5.580420111073181e-05,-0.004930505063384771,1.442957272956846e-05,-2.667847184056882e-05,-4.375088337837951e-06,,,,,,
0.385674745,,,,,,,,,,,0.03375403583049774,1,-0.002390614710748196,1,0.06591470539569855,1
0.389963508,0.005,-0.008924911729991436,-0.03079099208116531,-0.9928551912307739,-0.0001723373425193131,-4.911032374366187e-05,-0.004960523918271065,-1.487241297581932e-05,2.306328042323003e-06,2.807455985021079e-06,,,,,,
0.390675187,,,,,,,,,,,0.005970921367406845,1,-0.006848220713436604,1,0.06490267068147659,1
0.394955009,0.005,-0.006791412830352783,-0.02813795022666454,-0.9976193904876709,-0.0001267416519112885,-2.17251817957731e-05,-0.005017775576561689,-1.435240483260714e-05,1.908696867758408e-05,2.801470600388711e-06,,,,,,
0.395670772,,,,,,,,,,,0.03194891661405563,1,0.01399734057486057,1,0.01818313077092171,1
0.399922699,0.005,-0.006192387081682682,-0.02726785838603973,-0.9964581727981567,-0.0001288320927415043,-2.629053597047459e-05,-0.004976705182343721,1.013137443806045e-05,-1.355751464870991e-05,-2.563008365541464e-06,,,,,,
0.400661767,,,,,,,,,,,0.04046453535556793,1,0.01985443197190762,1,0.0295717641711235,1
0.404866546,0.005,-0.006987969856709242,-0.02889711782336235,-0.9956991076469421,-0.0001550260931253433,-4.027616523671895e-05,-0.004972556605935097,1.80084032308514e-06,1.854486072261352e-06,-2.051911451417254e-06,,,,,,
0.405647874,,,,,,,,,,,0.02451629377901554,1,0.01206991542130709,1,0.03701462224125862,1
0.409787655,0.005,-0.005337160546332598,-0.02762753888964653,-0.9967924952507019,-0.0001311019732384011,-1.757369682309218e-05,-0.004991225898265839,-2.187342943216208e-06,4.841401278099511e-06,4.348704010226356e-07,,,,,,
0.410629362,,,,,,,,,,,0.03694158047437668,1,0.02825433574616909,1,0.02629216015338898,1
0.414685696,0.005,-0.006031174678355455,-0.0277376901358366,-0.9942374229431152,-0.0001384488714393228,-3.359054971951991e-05,-0.004956654738634825,1.21311913972022e-05,-1.567972503835335e-05,-1.173237251350656e-06,,,,,,
0.415606797,,,,,,,,,,,0.0358896441757679,1,0.02148211747407913,1,0.05134861543774605,1
0.419562995,0.005,-0.006309273187071085,-0.02905645780265331,-0.995169997215271,-0.0001539587246952578,-3.430743527133018e-05,-0.004979041405022144,-5.717234671465121e-06,9.014636361825978e-07,3.518035555316601e-06,,,,,,
0.420579582,,,,,,,,,,,0.0230051726102829,1,0.01879053190350533,1,0.04220161214470863,1
0.424417526,0.005,-0.003910291474312544,-0.02688499912619591,-0.997050940990448,-0.0001216627933899872,-4.254264240444172e-06,-0.004998759366571903,-3.722389010363258e-06,7.774017831252422e-06,1.479695129091851e-05,,,,,,
0.425547510,,,,,,,,,,,0.04428094998002052,1,0.04229885712265968,1,0.02375630661845207,1
0.429249287,0.005,-0.005271399859338999,-0.02755320630967617,-0.9946306943893433,-0.0001399274478899315,-3.30584698531311e-05,-0.004959922283887863,2.084035259031225e-05,-1.03757884062361e-05,2.932291067736514e-07,,,,,,
0.430510581,,,,,,,,,,,0.03774628788232803,1,0.029002346098423,1,0.04748916625976562,1
0.434057981,0.005,-0.006180849391967058,-0.0288911797106266,-0.9932050704956055,-0.0001536637864774093,-3.724535781657323e-05,-0.004955412354320288,-7.665295015613083e-06,7.864883627917152e-06,-5.699679149984149e-06,,,,,,
0.435469300,,,,,,,,,,,0.02463191188871861,1,0.02013151720166206,1,0.06146947294473648,1
0.438931704,0.005,-0.007008937187492847,-0.027381282299757,-0.995771050453186,-0.0001287624036194757,-3.953960185754113e-05,-0.004994556307792664,-8.465328392048832e-06,1.725933543639258e-05,3.14519661515078e-06,,,,,,
0.440510720,,,,,,,,,,,0.03937734290957451,1,0.01199947949498892,1,0.03630822151899338,1
0.444132596,0.005,-0.00757974898442626,-0.02636096253991127,-0.9964062571525574,-0.0001243081787833944,-4.228781108395196e-05,-0.004986820742487907,6.891465886837977e-08,3.231583377782954e-06,2.936086502813851e-06,,,,,,
0.445547521,,,,,,,,,,,0.04930249229073524,1,0.006379384547472,1,0.03008135408163071,1
0.449309707,0.005,-0.007718690671026707,-0.02744093537330627,-0.9956104755401611,-0.0001442717184545472,-3.925383498426527e-05,-0.004973116796463728,7.830100912542548e-06,-2.194839225921896e-06,1.841374874800294e-08,,,,,,
0.450579971,,,,,,,,,,,0.03867188468575478,1,0.005025297403335571,1,0.03788671270012856,1
0.454464257,0.005,-0.007976062595844269,-0.02675838023424149,-0.9951258897781372,-0.0001303463504882529,-4.226116288919002e-05,-0.004973364993929863,3.622504436862073e-06,5.959100690233754e-06,7.808841473888606e-06,,,,,,
0.455607802,,,,,,,,,,,0.04533230513334274,1,0.002536434680223465,1,0.0426393449306488,1
0.459594488,0.005,-0.007386542856693268,-0.02579140104353428,-0.9962282776832581,-0.0001229522458743304,-3.339830800541677e-05,-0.004986562766134739,-8.092170901363716e-06,-2.814129402395338e-06,7.590014661218447e-08,,,,,,
0.460631043,,,,,,,,,,,0.05478733777999878,1,0.008317362517118454,1,0.03182912990450859,1
0.464701444,0.005,-0.007831691764295101,-0.02647912129759789,-0.9965294599533081,-0.0001360843743896112,-4.140485543757677e-05,-0.004986125975847244,3.247726681365748e-06,-1.421181877958588e-05,-7.393740020233963e-07,,,,,,
0.465649396,,,,,,,,,,,0.04808009788393974,1,0.003945069387555122,1,0.02887462079524994,1
0.469784319,0.005,-0.00903598964214325,-0.02687433920800686,-0.9937278032302856,-0.0001371264806948602,-5.187934584682807e-05,-0.004951296374201775,9.03542877495056e-06,3.783848342209239e-06,5.615450390905607e-06,,,,,,
0.470663160,,,,,,,,,,,0.04422889649868011,1,-0.007825464010238647,1,0.05634894594550133,1
0.474842876,0.005,-0.009277576580643654,-0.02711012214422226,-0.9949077963829041,-0.0001365380303468555,-4.899176565231755e-05,-0.004979688674211502,-8.515165063727181e-06,-4.888385660706263e-07,2.366625039940118e-06,,,,,,
0.475672573,,,,,,,,,,,0.04192501306533813,1,-0.01018035318702459,1,0.04477628320455551,1
0.479878902,0.005,-0.008513618260622025,-0.02782879583537579,-0.9973185658454895,-0.0001438832987332717,-3.744228160940111e-05,-0.00500141829252243,7.20872731108102e-06,1.130178316088859e-05,6.312144478215487e-07,,,,,,
0.480677128,,,,,,,,,,,0.03485580906271935,1,-0.002685347106307745,1,0.02113610133528709,1
0.484891385,0.005,-0.009204360656440258,-0.02604778669774532,-0.9955461621284485,-0.0001199828911921941,-5.001247700420208e-05,-0.004968632012605667,1.019605770125054e-05,4.90546290166094e-06,-6.536872206197586e-06,,,,,,
0.485677063,,,,,,,,,,,0.05226205289363861,1,-0.009403225034475327,1,0.03851871192455292,1
0.489879817,0.005,-0.008876871317625046,-0.02711916342377663,-0.9944192171096802,-0.0001406155352015048,-4.323246685089543e-05,-0.004964072722941637,-7.415675554511836e-06,-1.318571503361454e-05,-1.25051360555517e-06,,,,,,
0.490672141,,,,,,,,,,,0.04175654426217079,1,-0.006165113300085068,1,0.04956931248307228,1
0.494845957,0.005,-0.008112013339996338,-0.02809699811041355,-0.9955824613571167,-0.0001478290796512738,-3.543245111359283e-05,-0.004984700586646795,-1.539236677672307e-06,-2.095528770951205e-06,3.682987653519376e-06,,,,,,
0.495662600,,,,,,,,,,,0.03211195021867752,1,0.00130185205489397,1,0.0381634458899498,1
0.499791354,0.005,-0.008412949740886688,-0.02672345191240311,-0.9941074252128601,-0.0001251059293281287,-4.380270183901303e-05,-0.004963102750480175,4.549894583760761e-06,-2.747754308529693e-07,-2.96554230772017e-06,,,,,,
0.500651002,,,,,,,,,,,0.04552366212010384,1,-0.001662168186157942,1,0.0526307001709938,1
0.504724503,0.005,-0.009529697708785534,-0.02805592305958271,-0.9923218488693237,-0.0001467102265451103,-5.409761070040986e-05,-0.004949383437633514,7.53934955355362e-07,-1.043264364852803e-05,-2.254593880479661e-07,,,,,,
0.505635083,,,,,,,,,,,0.03246542811393738,1,-0.01260361913591623,1,0.0701410099864006,1
0.509634554,0.005,-0.009255619719624519,-0.02904599159955978,-0.996085524559021,-0.0001527393760625273,-4.61367417301517e-05,-0.005001144483685493,-1.197942947328556e-05,1.128076110035181e-05,-2.187676273024408e-06,,,,,,
0.510614276,,,,,,,,,,,0.02274569496512413,1,-0.009934764355421066,1,0.03323254361748695,1
0.514522851,0.005,-0.007843890227377415,-0.0273763258010149,-0.9981048703193665,-0.0001268854830414057,-3.014867070305627e-05,-0.005004890263080597,-3.933711468562251e-06,9.158836292044725e-06,-2.839257007281049e-08,,,,,,
0.515589118,,,,,,,,,,,0.03904977068305016,1,0.003854083828628063,1,0.01343147736042738,1
0.519388914,0.005,-0.008400975726544857,-0.0281448271125555,-0.9944604635238647,-0.0001443054061383009,-4.521309165284038e-05,-0.00495182303711772,8.576679647376295e-06,-1.218930265167728e-05,-1.90296657365252e-06,,,,,,
0.520559371,,,,,,,,,,,0.03150191158056259,1,-0.001607544138096273,1,0.04917178303003311,1
0.524231672,0.005,-0.008321631699800491,-0.0290211234241724,-0.9932861924171448,-0.0001512818416813388,-4.226587770972401e-05,-0.004957298282533884,-1.025697474688059e-05,-1.693304284344777e-06,-1.01788407391723e-06,,,,,,
0.525524735,,,,,,,,,,,0.02293338254094124,1,-0.0008412632159888744,1,0.06068612635135651,1
0.529052675,0.005,-0.006418157368898392,-0.02821869030594826,-0.9953233003616333,-0.0001361597387585789,-2.106959982484113e-05,-0.004989416804164648,-7.199511856015306e-06,5.847196916874964e-06,6.347737325995695e-06,,,,,,
0.530485749,,,,,,,,,,,0.03079073689877987,1,0.01777082309126854,1,0.04070969671010971,1
0.533936620,0.005,-0.006527745630592108,-0.02865906804800034,-0.994629979133606,-0.0001455112360417843,-3.252505484852009e-05,-0.004969894420355558,3.357233936185366e-06,-8.371546755370218e-06,1.736688091114047e-07,,,,,,
0.535527706,,,,,,,,,,,0.026488421484828,1,0.01667812652885914,1,0.04750945419073105,1
0.539139867,0.005,-0.007131982129067183,-0.02965881302952766,-0.9947974681854248,-0.0001541226520203054,-3.909377119271085e-05,-0.004973757546395063,-6.834681244072272e-06,-1.751119498294429e-06,-1.092075081032817e-06,,,,,,
0.540565252,,,,,,,,,,,0.01670442521572113,1,0.01073129195719957,1,0.04586656764149666,1
0.544319749,0.005,-0.005961697548627853,-0.02933852933347225,-0.9974710941314697,-0.0001453582808608189,-2.397455318714492e-05,-0.005003528669476509,-4.335401172284037e-06,-3.40076576321735e-06,4.196592271910049e-06,,,,,,
0.545598209,,,,,,,,,,,0.01986635476350784,1,0.02217239513993263,1,0.01964718848466873,1
0.549475849,0.005,-0.005886134691536427,-0.02925763837993145,-0.997674822807312,-0.0001454673183616251,-2.862067049136385e-05,-0.004991181660443544,2.230965492344694e-06,-8.270613761851564e-06,-1.981645851856229e-07,,,,,,
0.550627053,,,,,,,,,,,0.02069591730833054,1,0.02289389073848724,1,0.0176488533616066,1
0.554612219,0.005,-0.005463907029479742,-0.0296353455632925,-0.9951324462890625,-0.0001506716944277287,-2.474247958161868e-05,-0.004961132537573576,3.774601964323665e-07,-7.070751053106505e-06,1.467456968384795e-06,,,,,,
0.555651605,,,,,,,,,,,0.01704869791865349,1,0.02702844887971878,1,0.04257933795452118,1
0.559725583,0.005,-0.005128279328346252,-0.02937877923250198,-0.9936378598213196,-0.0001452502910979092,-2.314087942067999e-05,-0.004957913421094418,-2.849705879270914e-06,4.460293894226197e-07,3.590163714761729e-06,,,,,,
0.560671508,,,,,,,,,,,0.01959929428994656,1,0.03031555376946926,1,0.05723471194505692,1
0.564815640,0.005,-0.004670914262533188,-0.02913139574229717,-0.9951143264770508,-0.0001443482760805637,-2.095862691930961e-05,-0.004983991384506226,-4.869160875387024e-06,4.221023573336424e-06,-1.348099999631813e-06,,,,,,
0.565686762,,,,,,,,,,,0.02203807234764099,1,0.03477424010634422,1,0.04275534674525261,1
0.569882870,0.005,-0.004119239281862974,-0.0284950528293848,-0.9944998621940613,-0.0001391104597132653,-1.70937055372633e-05,-0.004970697686076164,2.134491523975157e-06,2.374456755660503e-07,3.123831675111433e-06,,,,,,
0.570697486,,,,,,,,,,,0.02826793305575848,1,0.04016674309968948,1,0.04878213256597519,1
0.574926078,0.005,-0.006373770534992218,-0.0288065355271101,-0.9972755908966064,-0.0001458300102967769,-4.547902426565997e-05,-0.005000114440917969,2.870051730496925e-06,-3.739218072951189e-06,-5.430879355117213e-06,,,,,,
0.575703561,,,,,,,,,,,0.02522144094109535,1,0.01808002963662148,1,0.02156072482466698,1
0.579947293,0.005,-0.005079260095953941,-0.02788488194346428,-0.9992114901542664,-0.0001342190662398934,-1.822239210014232e-05,-0.005011086352169514,-8.380093277082779e-06,2.200792721396283e-07,7.66737139201723e-06,,,,,,
0.580705285,,,,,,,,,,,0.03426561504602432,1,0.03074467182159424,1,0.002576049417257309,1
0.584945381,0.005,-0.006430156528949738,-0.02792259864509106,-0.9947056174278259,-0.0001385412469971925,-3.822758299065754e-05,-0.004948443733155727,1.639578840695322e-05,-6.747827683284413e-06,6.220085197128356e-06,,,,,,
0.585702419,,,,,,,,,,,0.03391982987523079,1,0.01752677001059055,1,0.04676233232021332,1
0.589920282,0.005,-0.007934763096272945,-0.0286880861967802,-0.9928127527236938,-0.0001484301901655272,-5.107849574415013e-05,-0.004949807189404964,-9.063262950803619e-06,3.286184210082865e-06,-4.243639523338061e-06,,,,,,
0.590694904,,,,,,,,,,,0.02643262036144733,1,0.002799435285851359,1,0.06532411277294159,1
0.594872594,0.005,-0.005855722352862358,-0.02732076495885849,-0.995500922203064,-0.0001302964956266806,-1.628335667192005e-05,-0.004993639886379242,-7.088717211445328e-06,1.424706442776369e-05,1.23669115055236e-05,,,,,,
0.595682561,,,,,,,,,,,0.03980175405740738,1,0.02315516024827957,1,0.03896402567625046,1
0.599801600,0.005,-0.006414230447262526,-0.02606740593910217,-0.9957364797592163,-0.0001217628669110127,-3.466471389401704e-05,-0.004980843514204025,6.398881396307843e-06,-2.014763680335818e-07,4.607529717759462e-07,,,,,,
0.600665867,,,,,,,,,,,0.05203873664140701,1,0.01767138577997684,1,0.03665568679571152,1
0.604711652,0.005,-0.007259542122483253,-0.02577671036124229,-0.9959921836853027,-0.0001277764822589234,-4.152085239184089e-05,-0.004981548059731722,4.962862476531882e-06,-4.632336185750319e-06,-2.679800218174933e-06,,,,,,
0.605647862,,,,,,,,,,,0.05487687513232231,1,0.009406206198036671,1,0.03414860740303993,1
0.609613061,0.005,-0.008255346678197384,-0.02590772323310375,-0.9955368638038635,-0.0001295586844207719,-4.73791551485192e-05,-0.004975285846740007,6.659288374066819e-06,-4.351108145783655e-06,6.262413535296218e-06,,,,,,
0.610625267,,,,,,,,,,,0.05360886082053185,1,-0.0003146333619952202,1,0.03861292451620102,1
0.614491403,0.005,-0.009440419264137745,-0.0260807704180479,-0.9954848289489746,-0.0001320001028943807,-5.40342771273572e-05,-0.004976470023393631,-6.130207111709751e-06,1.169136794487713e-06,5.272475391393527e-06,,,,,,
0.615597844,,,,,,,,,,,0.05192214995622635,1,-0.01191949099302292,1,0.0391223132610321,1
0.619347215,0.005,-0.009386420249938965,-0.02555716782808304,-0.9961437582969666,-0.0001245741877937689,-4.69900514872279e-05,-0.004985691513866186,-2.405826535323285e-06,-2.236376076325541e-06,4.335603989602532e-06,,,,,,
0.620566010,,,,,,,,,,,0.05706486850976944,1,-0.01140378136187792,1,0.03266014903783798,1
0.624180198,0.005,-0.009580118581652641,-0.02496051415801048,-0.9931577444076538,-0.000120715718367137,-4.84240626974497e-05,-0.00494826165959239,7.659785296709742e-06,3.841841134999413e-06,5.508925823960453e-06,,,,,,
0.625529349,,,,,,,,,,,0.06290321797132492,1,-0.01328483503311872,1,0.06194353476166725,1
0.628990471,0.005,-0.01046120561659336,-0.0254887156188488,-0.9940038323402405,-0.0001306528283748776,-5.77104656258598e-05,-0.004972356837242842,-1.018562761601061e-05,2.132513145625126e-06,-7.138042747101281e-06,,,,,,
0.630571246,,,,,,,,,,,0.05771107226610184,1,-0.02192682586610317,1,0.05364662408828735,1
0.634192884,0.005,-0.009542884305119514,-0.02558383718132973,-0.9978513717651367,-0.0001284462632611394,-4.302643719711341e-05,-0.005013023503124714,-5.758372026321013e-06,7.68348945712205e-06,-3.625404133345e-06,,,,,,
0.635608315,,,,,,,,,,,0.05674264952540398,1,-0.01296345703303814,1,0.01591651141643524,1
0.639371276,0.005,-0.01017078012228012,-0.0244141723960638,-0.9956128597259521,-0.0001152446639025584,-5.327301551005803e-05,-0.004966506734490395,8.357948900084011e-06,-2.657835693753441e-06,3.173391860400443e-07,,,,,,
0.640640795,,,,,,,,,,,0.06818209588527679,1,-0.01911416836082935,1,0.03786931931972504,1
0.644527078,0.005,-0.01087034121155739,-0.02581457421183586,-0.9941877126693726,-0.0001363444898743182,-5.945005977991968e-05,-0.004960347432643175,-5.532423529075459e-06,-1.411763241776498e-05,-7.428773642459419e-06,,,,,,
0.645668864,,,,,,,,,,,0.05448638647794724,1,-0.02597483433783054,1,0.05184360593557358,1
0.649657845,0.005,-0.009695827960968018,-0.02616960369050503,-0.9956656694412231,-0.000133864043164067,-4.189971514279023e-05,-0.0049873236566782,-5.637837148242397e-06,1.803729219318484e-06,2.717712277444662e-06,,,,,,
0.650692105,,,,,,,,,,,0.05103708431124687,1,-0.01448401063680649,1,0.03734956309199333,1
0.654764533,0.005,-0.009902549907565117,-0.02614549547433853,-0.9957241415977478,-0.0001300702133448794,-4.966517735738307e-05,-0.004979782737791538,6.176180249894969e-06,-3.928033493139083e-06,-1.911796971398871e-06,,,,,,
0.655710995,,,,,,,,,,,0.05129266530275345,1,-0.01651535183191299,1,0.03677535057067871,1
0.659848452,0.005,-0.00951495673507452,-0.02748019993305206,-0.9937206506729126,-0.0001450534909963608,-4.648696994991042e-05,-0.004957904573529959,-8.062839356171025e-07,-4.067735517310211e-06,-1.049139973474666e-05,,,,,,
0.660724998,,,,,,,,,,,0.0382399782538414,1,-0.01269857957959175,1,0.05642147362232208,1
0.664908826,0.005,-0.009160840883851051,-0.02787216566503048,-0.9916902780532837,-0.0001426134258508682,-4.208099562674761e-05,-0.004943779204040766,1.907893874886213e-06,1.159284420282347e-05,-1.252889319403039e-06,,,,,,
0.665734410,,,,,,,,,,,0.03438067063689232,1,-0.009218073450028896,1,0.07633282244205475,1
0.669945061,0.005,-0.00902232713997364,-0.02694768272340298,-0.99839186668396,-0.000129667081637308,-4.67835197923705e-05,-0.005028597079217434,-1.717109626042657e-05,8.170436558430083e-06,-1.14481963464641e-05,,,,,,
0.670739174,,,,,,,,,,,0.04339537397027016,1,-0.007891840301454067,1,0.01061459444463253,1
0.674957812,0.005,-0.004351133946329355,-0.02647292427718639,-1.003476619720459,-0.000129828491481021,6.737169314874336e-06,-0.005051847081631422,3.527865601427038e-06,-4.028869170724647e-06,9.91551701190474e-07,,,,,,
0.675739110,,,,,,,,,,,0.04802387580275536,1,0.03786677122116089,1,-0.03924762457609177,1
0.679947257,0.005,-0.00561591936275363,-0.02613214030861855,-0.9942632913589478,-0.0001269155618501827,-3.346894663991407e-05,-0.004921333398669958,2.662864426383749e-05,-2.629303344292566e-05,1.078080003935611e-05,,,,,,
0.680734456,,,,,,,,,,,0.05141548067331314,1,0.02553602680563927,1,0.05110230296850204,1
0.684912622,0.005,-0.00688982242718339,-0.0301491916179657,-0.9857149720191956,-0.0001750055816955864,-4.425644146976992e-05,-0.004871529061347246,-7.640842341061216e-06,-1.238876666320721e-05,-8.024089765967801e-06,,,,,,
0.685724914,,,,,,,,,,,0.01215614657849073,1,0.01310807652771473,1,0.1349276900291443,1
0.689854741,0.005,-0.004009184893220663,-0.02849509380757809,-0.9944097399711609,-0.0001349619269603863,-3.73697412214824e-06,-0.005020020063966513,-2.439661511743907e-05,3.201314029865898e-05,-1.207045784212823e-06,,,,,,
0.690710783,,,,,,,,,,,0.02836589142680168,1,0.04130321741104126,1,0.04966215789318085,1
0.694773495,0.005,-0.002384584629908204,-0.02455874532461166,-1.002753138542175,-9.81779012363404e-05,-9.823464779401547e-07,-0.005067683756351471,4.80556855109171e-06,1.276189777854597e-05,5.647414127452066e-06,,,,,,
0.695692003,,,,,,,,,,,0.06673231720924377,1,0.05714873597025871,1,-0.0321512334048748,1
0.699671566,0.005,-0.002868974348530173,-0.02694165892899036,-0.9988818764686584,-0.0001466711837565526,-1.626848097657785e-05,-0.004975410178303719,3.114697392447852e-05,-2.891289841500111e-05,-3.459239223957411e-06,,,,,,
0.700668931,,,,,,,,,,,0.04329870641231537,1,0.05246605351567268,1,0.005814059637486935,1
0.704558313,0.005,-0.004232226405292749,-0.03046102449297905,-0.9922438859939575,-0.0001749688090058044,-2.956630851258524e-05,-0.004919893573969603,8.153766430041287e-06,-1.377002405433814e-07,-9.888054592011031e-06,,,,,,
0.705643535,,,,,,,,,,,0.008802573196589947,1,0.03921772912144661,1,0.07090940326452255,1
0.709422827,0.005,-0.003492664312943816,-0.02839961275458336,-0.9943203330039978,-0.000131225970108062,-1.371055077470373e-05,-0.004981149919331074,-2.122150181094185e-05,1.219979549205163e-05,-4.783581886158572e-08,,,,,,
0.710613489,,,,,,,,,,,0.02897674590349197,1,0.04647885262966156,1,0.05054756999015808,1
0.714264572,0.005,-0.002962343860417604,-0.0268161166459322,-0.9972557425498962,-0.0001229396584676579,-1.052676907420391e-05,-0.005005952902138233,-3.323362136598007e-07,-1.032331783790141e-05,-4.031061848763784e-07,,,,,,
0.715579152,,,,,,,,,,,0.04449098184704781,1,0.05164329707622528,1,0.02176140435039997,1
0.719084561,0.005,-0.005113771185278893,-0.02905524522066116,-0.9940628409385681,-0.0001587534497957677,-3.798006218858063e-05,-0.004953633528202772,1.997479375859257e-05,-4.081658062204951e-06,-1.832124439715699e-06,,,,,,
0.720539927,,,,,,,,,,,0.02256265096366405,1,0.0305878259241581,1,0.05307259783148766,1
0.723881483,0.005,-0.007428412325680256,-0.03010938875377178,-0.9923229813575745,-0.0001574647176312283,-5.136990512255579e-05,-0.004947045352309942,4.23696019424824e-06,3.508264853735454e-06,-2.00547060558165e-06,,,,,,
0.725582063,,,,,,,,,,,0.01223351340740919,1,0.007970607839524746,1,0.07013383507728577,1
0.729085922,0.005,-0.007624829187989235,-0.02991283871233463,-0.9985530972480774,-0.0001492481387685984,-4.032126162201166e-05,-0.005028958432376385,-1.424444144504378e-05,6.934171778993914e-06,-6.569034667336382e-06,,,,,,
0.730619371,,,,,,,,,,,0.014133564196527,1,0.006049339193850756,1,0.009037620387971401,1
0.734266341,0.005,-0.008233063854277134,-0.02863433212041855,-0.9993978142738342,-0.0001352916879113764,-4.380154132377356e-05,-0.005005384795367718,7.916932190710213e-06,4.140602413826855e-06,-6.057712198526133e-06,,,,,,
0.735652626,,,,,,,,,,,0.02662903442978859,1,7.786648347973824e-05,1,0.0007549747824668884,1
0.739424765,0.005,-0.009536177851259708,-0.02840129099786282,-0.9931531548500061,-0.0001401689369231462,-5.630086525343359e-05,-0.004929775837808847,9.2405425675679e-06,-5.933045940764714e-06,1.219578280142741e-05,,,,,,
0.740681231,,,,,,,,,,,0.02890088222920895,1,-0.01264580152928829,1,0.06199435144662857,1
0.744559884,0.005,-0.008954055607318878,-0.03021782264113426,-0.9926633238792419,-0.0001610260806046426,-4.16463881265372e-05,-0.004956543911248446,-9.165524716081563e-06,-9.871873771771789e-06,1.493985291745048e-05,,,,,,
0.745704949,,,,,,,,,,,0.01112265698611736,1,-0.00692700082436204,1,0.06679627299308777,1
0.749670684,0.005,-0.008865566924214363,-0.03078603930771351,-0.9957590699195862,-0.0001590909814694896,-4.299410284147598e-05,-0.004998771008104086,2.857099389075302e-06,7.296253897948191e-06,-1.304286797676468e-06,,,,,,
0.750724077,,,,,,,,,,,0.005564183928072453,1,-0.006065701134502888,1,0.03643767163157463,1
0.754757404,0.005,-0.01101687364280224,-0.02960326336324215,-0.9939175844192505,-0.00014057858788874,-6.768189632566646e-05,-0.00496021518483758,9.071868589671794e-06,2.906287136283936e-06,-2.621158273541369e-06,,,,,,
0.755738378,,,,,,,,,,,0.01714194566011429,1,-0.02711780369281769,1,0.05449685081839561,1
0.759820044,0.005,-0.0116981640458107,-0.03057039901614189,-0.9941428303718567,-0.0001573216577526182,-6.437777483370155e-05,-0.004968708381056786,-1.334717671852559e-05,-4.025863290735288e-06,4.08063669965486e-06,,,,,,
0.760748029,,,,,,,,,,,0.007659331895411015,1,-0.03379885852336884,1,0.05228785797953606,1
0.764859378,0.005,-0.009891205467283726,-0.03099332936108112,-0.9998173713684082,-0.0001588772138347849,-3.854164242511615e-05,-0.005032941233366728,-1.001049531623721e-05,1.36055732582463e-05,4.281234396330547e-06,,,,,,
0.765753329,,,,,,,,,,,0.003483267035335302,1,-0.01614202372729778,1,-0.003358941525220871,1
0.769882381,0.005,-0.009429235011339188,-0.0284915491938591,-0.9985365867614746,-0.0001272342051379383,-4.357302896096371e-05,-0.004988966509699821,1.651533420954365e-05,7.457955319978282e-08,-4.98549979965901e-06,,,,,,
0.770755053,,,,,,,,,,,0.02796387672424316,1,-0.01160707883536816,1,0.009202709421515465,1
0.774881542,0.005,-0.01068563014268875,-0.02969100885093212,-0.9919881820678711,-0.0001536941854283214,-6.064950139261782e-05,-0.0049199303612113,8.630739102954976e-06,-1.665109266468789e-05,-9.034891263581812e-06,,,,,,
0.775752187,,,,,,,,,,,0.01623154059052467,1,-0.02385804988443851,1,0.07341872900724411,1
0.779857159,0.005,-0.009881169535219669,-0.03123738616704941,-0.9927274584770203,-0.0001666561292950064,-4.608006202033721e-05,-0.004964598920196295,-1.694454294920433e-05,1.200533824885497e-05,4.796479515789542e-06,,,,,,
0.780744731,,,,,,,,,,,0.001075846375897527,1,-0.01597060263156891,1,0.06616879254579544,1
0.784809709,0.005,-0.007300715893507004,-0.02864045090973377,-0.9968425035476685,-0.0001281808799831197,-2.120395947713405e-05,-0.005009649787098169,-8.608121788711287e-06,1.152992899733363e-05,1.211418748425785e-06,,,,,,
0.785732627,,,,,,,,,,,0.02647733129560947,1,0.009272271767258644,1,0.02581663616001606,1
0.789739013,0.005,-0.00684506818652153,-0.02821776084601879,-0.9964494705200195,-0.0001368605735478923,-3.044021104869898e-05,-0.004981664475053549,6.643712367804255e-06,-1.231562328030122e-05,-5.758598945249105e-06,,,,,,
0.790715635,,,,,,,,,,,0.03060947358608246,1,0.01372598670423031,1,0.02967127598822117,1
0.794645488,0.005,-0.007448339369148016,-0.02875866927206516,-0.9958980083465576,-0.0001481155341025442,-4.137983341934159e-05,-0.004975059069693089,1.192973627439642e-06,-4.435316441231407e-06,-2.081106686091516e-06,,,,,,
0.795694053,,,,,,,,,,,0.02533235400915146,1,0.007807211950421333,1,0.03507866337895393,1
0.799529195,0.005,-0.006528705824166536,-0.027957359328866,-0.9967925548553467,-0.0001348114310530946,-2.756473804765847e-05,-0.004989389795809984,-4.919238108413992e-06,-2.283121830259915e-06,1.619450358703034e-06,,,,,,
0.800667882,,,,,,,,,,,0.0332147441804409,1,0.01682174205780029,1,0.02630553208291531,1
0.804389894,0.005,-0.00592470308765769,-0.02829635888338089,-0.995542049407959,-0.0001433787401765585,-2.547400799812749e-05,-0.004971416667103767,5.919068371440517e-06,-6.978503733989783e-06,8.141928447003011e-07,,,,,,
0.805637121,,,,,,,,,,,0.02992423437535763,1,0.02274938486516476,1,0.03856753557920456,1
0.809227526,0.005,-0.006014652084559202,-0.02866250835359097,-0.9936919808387756,-0.0001462366199120879,-3.028410719707608e-05,-0.004956810735166073,-1.25255894545262e-06,5.1144088502042e-06,2.218395593445166e-06,,,,,,
0.810601473,,,,,,,,,,,0.02635663375258446,1,0.02187972143292427,1,0.05670977383852005,1
0.814042389,0.005,-0.004938907455652952,-0.02705147117376328,-0.9946668148040771,-0.0001258003758266568,-1.911707840918098e-05,-0.004977960139513016,-1.09458233055193e-05,9.244022294296883e-06,-1.384418283123523e-06,,,,,,
0.815560937,,,,,,,,,,,0.04212126508355141,1,0.03240714967250824,1,0.04715108871459961,1
0.818834960,0.005,-0.00385346869006753,-0.02670353464782238,-0.9964954853057861,-0.0001308405044255778,-1.247347609023564e-05,-0.004994324874132872,-7.155476282605377e-07,5.306936600391055e-06,1.216218038280203e-06,,,,,,
0.820603669,,,,,,,,,,,0.04548482969403267,1,0.04301409795880318,1,0.0292199794203043,1
0.824042737,0.005,-0.004248043056577444,-0.02690104953944683,-0.9970424175262451,-0.000136215501697734,-2.270688128191978e-05,-0.004989363718777895,5.029377462051343e-06,-2.390291456322302e-06,-1.265507535208599e-06,,,,,,
0.825641751,,,,,,,,,,,0.04352079704403877,1,0.03914406895637512,1,0.02385765872895718,1
0.829226494,0.005,-0.004770285915583372,-0.0262250117957592,-0.9959395527839661,-0.0001271018991246819,-2.695587681955658e-05,-0.004973637871444225,5.361623607313959e-06,-3.017172502950416e-06,2.831744950526627e-06,,,,,,
0.830674946,,,,,,,,,,,0.050144013017416,1,0.03404487296938896,1,0.03467253968119621,1
0.834386170,0.005,-0.006442700978368521,-0.02644410915672779,-0.9937267303466797,-0.000133231544168666,-4.200001058052294e-05,-0.004954020492732525,2.575452072051121e-06,-5.002439593226882e-06,2.467970432462607e-07,,,,,,
0.835704088,,,,,,,,,,,0.0480169989168644,1,0.01768043264746666,1,0.05637209117412567,1
0.839525640,0.005,-0.005791168194264174,-0.02652310952544212,-0.9962994456291199,-0.0001345388154732063,-2.631228016980458e-05,-0.004995942581444979,-9.657872396928724e-06,9.225216672348324e-06,3.842545993393287e-06,,,,,,
0.840728819,,,,,,,,,,,0.04723479971289635,1,0.02406548894941807,1,0.03114243224263191,1
0.844641268,0.005,-0.004993322305381298,-0.02571619302034378,-0.9971365332603455,-0.0001222222053911537,-1.777078250597697e-05,-0.004993082955479622,1.159258135885466e-05,8.391391929762904e-06,5.775733825430507e-06,,,,,,
0.845748723,,,,,,,,,,,0.05509116128087044,1,0.0319005474448204,1,0.02293563634157181,1
0.849733114,0.005,-0.007740471977740526,-0.02684150636196136,-0.9937827587127686,-0.0001401005283696577,-5.516230885405093e-05,-0.004949201829731464,1.312677068199264e-05,-3.999280579591868e-06,-3.86457031709142e-06,,,,,,
0.850764275,,,,,,,,,,,0.04402954503893852,1,0.005034929141402245,1,0.05582517012953758,1
0.854801416,0.005,-0.008066746406257153,-0.02708197757601738,-0.9938325881958008,-0.0001382305781589821,-4.268302291166037e-05,-0.004966326057910919,-8.48881700221682e-06,5.816803877678467e-06,-5.098685505799949e-06,,,,,,
0.855774999,,,,,,,,,,,0.04164892062544823,1,0.001859482144936919,1,0.05533692985773087,1
0.859845400,0.005,-0.008874181658029556,-0.02581845037639141,-0.9962436556816101,-0.0001206696397275664,-4.925052780890837e-05,-0.004997584968805313,-4.304908088670345e-06,2.777661620712024e-06,4.245722266205121e-06,,,,,,
0.860781074,,,,,,,,,,,0.05400487780570984,1,-0.006063849665224552,1,0.0316937118768692,1
0.864866555,0.005,-0.009973702952265739,-0.02617030404508114,-0.9963200688362122,-0.0001324691547779366,-5.627747668768279e-05,-0.004982133395969868,4.295855433156248e-06,-1.035607238009106e-05,5.390591013565427e-06,,,,,,
0.865782797,,,,,,,,,,,0.05056090652942657,1,-0.01684094220399857,1,0.03094425983726978,1
0.869864941,0.005,-0.009971866384148598,-0.02737717144191265,-0.9953725934028625,-0.0001441732165403664,-5.009947926737368e-05,-0.004971823655068874,4.260389687260613e-06,-4.290098786441376e-06,1.983663423743565e-06,,,,,,
0.870779932,,,,,,,,,,,0.03876001015305519,1,-0.01680287905037403,1,0.04023382067680359,1
0.874839783,0.005,-0.010805350728333,-0.02779046818614006,-0.9947171807289124,-0.0001417329476680607,-5.923423668718897e-05,-0.004969451110810041,7.610885290887381e-07,2.979654937007581e-06,3.989273409388261e-06,,,,,,
0.875772417,,,,,,,,,,,0.03471630811691284,1,-0.02494982071220875,1,0.04666048288345337,1
0.879792392,0.005,-0.0108027346432209,-0.0274624302983284,-0.9959297776222229,-0.0001349262747680768,-5.472909833770245e-05,-0.004985376261174679,-1.007786067930283e-05,-5.933169632044155e-06,-2.201365987275494e-06,,,,,,
0.880760312,,,,,,,,,,,0.03794247657060623,1,-0.02493094652891159,1,0.03476887941360474,1
0.884721637,0.005,-0.00955481082201004,-0.02892114594578743,-0.9969106316566467,-0.0001535120245534927,-4.001301203970797e-05,-0.004992406815290451,-1.687245230641565e-06,-8.793989536570734e-07,-2.298434537806315e-06,,,,,,
0.885743380,,,,,,,,,,,0.02366305701434612,1,-0.01272757165133953,1,0.02514954470098019,1
0.889628410,0.005,-0.01052565686404705,-0.02863361500203609,-0.9937626123428345,-0.0001415647566318512,-5.810619404655881e-05,-0.004950124770402908,1.162454282166436e-05,7.068611466820585e-06,1.395722961206047e-06,,,,,,
0.890722275,,,,,,,,,,,0.02647418901324272,1,-0.02222353219985962,1,0.05602128058671951,1
0.894514680,0.005,-0.01006692368537188,-0.0289651695638895,-0.9947091937065125,-0.0001460233179386705,-4.87939287268091e-05,-0.0049770288169384,-8.980857273854781e-06,-5.146431249158923e-06,-7.614869446115335e-06,,,,,,
0.895696640,,,,,,,,,,,0.02313065715134144,1,-0.017746951431036,1,0.0467415563762188,1
0.899387121,0.005,-0.008726178668439388,-0.02954968996345997,-0.9970822334289551,-0.0001521158847026527,-3.513834963086993e-05,-0.005000399425625801,5.815844019707583e-07,-5.412477435129404e-07,-2.126064828189556e-06,,,,,,
0.900668144,,,,,,,,,,,0.01733932085335255,1,-0.004640877712517977,1,0.02347137033939362,1
0.904237032,0.005,-0.00840350054204464,-0.02784725837409496,-0.9958957433700562,-0.0001290029904339463,-4.024651207146235e-05,-0.004973736591637135,3.406679070394603e-06,-3.516986453178106e-06,-3.802149194598314e-06,,,,,,
0.905635059,,,,,,,,,,,0.0339990109205246,1,-0.001473733689635992,1,0.03510859236121178,1
0.909064710,0.005,-0.007437445688992739,-0.02909982018172741,-0.9950535297393799,-0.0001513143070042133,-3.170462150592357e-05,-0.004969007335603237,-4.76068180432776e-06,-1.786864777386654e-05,-8.215036359615624e-06,,,,,,
0.910597384,,,,,,,,,,,0.02176239341497421,1,0.00799770001322031,1,0.04336655512452126,1
0.913870573,0.005,-0.006405863910913467,-0.02966076880693436,-0.9957672953605652,-0.0001527857530163601,-2.551455145294312e-05,-0.004983386024832726,1.752353682604735e-06,3.034886731256847e-06,-4.606100446835626e-06,,,,,,
0.915555298,,,,,,,,,,,0.01630857959389687,1,0.01810172572731972,1,0.03636518493294716,1
0.919079185,0.005,-0.006246261298656464,-0.02893467806279659,-0.9949095249176025,-0.0001399687462253496,-3.023718818440102e-05,-0.004970182199031115,8.013263141037896e-06,2.336939132874249e-06,-6.177150680741761e-06,,,,,,
0.920593679,,,,,,,,,,,0.0234347227960825,1,0.0197003185749054,1,0.04477674141526222,1
0.924263954,0.005,-0.005797963589429855,-0.02992840856313705,-0.9939595460891724,-0.0001548179279780015,-2.658802804944571e-05,-0.004963255487382412,-2.81979669125576e-06,-7.743299647700042e-06,-5.278431217448087e-06,,,,,,
0.925627112,,,,,,,,,,,0.01371372770518064,1,0.02411646395921707,1,0.05409201979637146,1
0.929424882,0.005,-0.005105964373797178,-0.02986047230660915,-0.9967126250267029,-0.0001504340907558799,-2.200711787736509e-05,-0.004999550990760326,-6.741277047694894e-06,1.256355426448863e-05,2.558513187977951e-06,,,,,,
0.930656254,,,,,,,,,,,0.01436921767890453,1,0.03088923543691635,1,0.02709419652819633,1
0.934562564,0.005,-0.004269931465387344,-0.02854696661233902,-0.9970076084136963,-0.0001343614858342335,-1.572876135469414e-05,-0.00498806219547987,4.210853148833849e-06,1.081676145986421e-06,-3.308245140942745e-06,,,,,,
0.935680509,,,,,,,,,,,0.02721481956541538,1,0.03908608853816986,1,0.02420312911272049,1
0.939676166,0.005,-0.004839871544390917,-0.02928136475384235,-0.9952231645584106,-0.0001499951031291857,-2.723606303334236e-05,-0.004965693689882755,3.425913746468723e-06,-4.446479579200968e-06,-5.526908353203908e-07,,,,,,
0.940700173,,,,,,,,,,,0.02000971883535385,1,0.03351842239499092,1,0.04170230031013489,1
0.944765925,0.005,-0.004984271712601185,-0.02949828654527664,-0.9947271347045898,-0.0001495130272815004,-2.626174500619527e-05,-0.004970206879079342,-4.065354914928321e-06,7.526725767093012e-06,2.029908500844613e-06,,,,,,
0.945715427,,,,,,,,,,,0.01786362379789352,1,0.03210651874542236,1,0.04656706750392914,1
0.949832201,0.005,-0.00494415033608675,-0.0282620508223772,-0.9949469566345215,-0.0001337256253464147,-2.400307494099252e-05,-0.00497664138674736,7.477362942154286e-07,1.999572532440652e-06,4.177756181888981e-06,,,,,,
0.950725913,,,,,,,,,,,0.02995398081839085,1,0.03249817714095116,1,0.04441218823194504,1
0.954874098,0.005,-0.005539157893508673,-0.02860771678388119,-0.994138777256012,-0.0001445124944439158,-3.137287421850488e-05,-0.004965510219335556,1.632695443731791e-06,-1.667754418122058e-06,2.994688429680537e-06,,,,,,
0.955731690,,,,,,,,,,,0.02654852904379368,1,0.02666483446955681,1,0.05233783274888992,1
0.959892452,0.005,-0.005996246822178364,-0.02888660505414009,-0.9951927661895752,-0.0001462199725210667,-3.295927308499813e-05,-0.004981020465493202,2.281287692085243e-07,6.91166496835649e-06,-9.44444877859496e-08,,,,,,
0.960732698,,,,,,,,,,,0.0237873513251543,1,0.02219961397349834,1,0.04200192540884018,1
0.964888334,0.005,-0.005954120773822069,-0.02793375216424465,-0.9968413710594177,-0.0001340261951554567,-2.948849578388035e-05,-0.004994780756533146,-1.967951675396762e-06,5.188304385228548e-06,5.49683318240568e-06,,,,,,
0.965729296,,,,,,,,,,,0.03308869525790215,1,0.02261264622211456,1,0.02583600394427776,1
0.969860077,0.005,-0.007110294885933399,-0.0273713506758213,-0.9960685968399048,-0.0001330856321146712,-4.184633144177496e-05,-0.004976861178874969,1.746077373354638e-06,-2.630586550367298e-06,3.061978532059584e-06,,,,,,
0.970721543,,,,,,,,,,,0.03857724741101265,1,0.01127407420426607,1,0.03341522812843323,1
0.974811375,0.005,-0.008073810487985611,-0.02737381681799889,-0.9949559569358826,-0.0001373536215396598,-4.656046803575009e-05,-0.00496787391602993,7.725806426606141e-06,-2.84828297480999e-06,3.113151933575864e-06,,,,,,
0.975709200,,,,,,,,,,,0.0385548397898674,1,0.001859857933595777,1,0.04432632774114609,1
0.979755521,0.005,-0.009593551978468895,-0.02676922082901001,-0.9944710731506348,-0.0001298502029385418,-5.616386260953732e-05,-0.004969111643731594,-3.134362941636937e-06,2.440349589960533e-06,6.739586751791649e-06,,,,,,
0.980695307,,,,,,,,,,,0.04447834938764572,1,-0.01302708871662617,1,0.04908165708184242,1
0.984676838,0.005,-0.01036873925477266,-0.02632050961256027,-0.9956513047218323,-0.0001284164754906669,-5.734392470913008e-05,-0.00498538464307785,-5.016016984882299e-06,3.237936880395864e-06,3.515369144224678e-06,,,,,,
0.985677063,,,,,,,,,,,0.0488605834543705,1,-0.02063427679240704,1,0.03750825300812721,1
0.989575684,0.005,-0.01046908646821976,-0.02592834085226059,-0.9962181448936462,-0.0001279189164051786,-5.259313911665231e-05,-0.004984320141375065,1.775281361915404e-06,6.146121904748725e-06,3.790720938923187e-06,,,,,,
0.990654230,,,,,,,,,,,0.05267205461859703,1,-0.02162993885576725,1,0.03195085749030113,1
0.994452477,0.005,-0.0110603105276823,-0.02527191676199436,-0.9955381155014038,-0.0001223229919560254,-5.88800321565941e-05,-0.004973852075636387,3.50366099155508e-06,-9.976510000342387e-07,4.949627964379033e-06,,,,,,
0.995626748,,,,,,,,,,,0.0590839684009552,1,-0.02741757780313492,1,0.03862028941512108,1
0.999306738,0.005,-0.01039802562445402,-0.02566028013825417,-0.9947739839553833,-0.0001304348843405023,-4.863854701397941e-05,-0.004969402682036161,-5.317741397448117e-06,-1.880215563687671e-06,2.419480551907327e-06,,,,,,
1.000594378,,,,,,,,,,,0.05526722222566605,1,-0.02092719450592995,1,0.0461139976978302,1
1.004139781,0.005,-0.01042439229786396,-0.0256394948810339,-0.9959008097648621,-0.0001278613635804504,-5.200287705520168e-05,-0.004985524341464043,-2.446142559620057e-07,-4.275814717402682e-06,3.264956148996134e-06,,,,,,
1.005558014,,,,,,,,,,,0.05547534301877022,1,-0.0211937315762043,1,0.03506405651569366,1
1.008950233,0.005,-0.009405612945556641,-0.02561613172292709,-0.9961678385734558,-0.0001283704477827996,-4.132251342525706e-05,-0.004982768092304468,-2.085783080474357e-06,-1.138683956014575e-06,5.701529062207555e-06,,,,,,
1.010517001,,,,,,,,,,,0.05572190508246422,1,-0.01121222600340843,1,0.03244507685303688,1
1.014075875,0.005,-0.008743946440517902,-0.02550958842039108,-0.9956921339035034,-0.0001261011930182576,-3.948877929360606e-05,-0.004976549651473761,-1.353875290988071e-06,-3.454288162174635e-06,-1.297415224144061e-06,,,,,,
1.015555620,,,,,,,,,,,0.05678052082657814,1,-0.004744959995150566,1,0.03710925206542015,1
1.019262195,0.005,-0.008400999940931797,-0.02587045915424824,-0.9955818057060242,-0.0001317056157859042,-4.041881766170263e-05,-0.004976392723619938,2.812792445183732e-06,5.296315634950588e-07,-4.844791419600369e-06,,,,,,
1.020589828,,,,,,,,,,,0.05326084420084953,1,-0.001371161313727498,1,0.03819042816758156,1
1.024424911,0.005,-0.007079226430505514,-0.02505417913198471,-0.9963718056678772,-0.0001203976644319482,-2.786469303828198e-05,-0.004986774176359177,-6.521979230456054e-06,-2.157640437872033e-06,-5.530934231501305e-06,,,,,,
1.025619507,,,,,,,,,,,0.06127274036407471,1,0.01157753169536591,1,0.03044270165264606,1
1.029563189,0.005,-0.006510046310722828,-0.0252663679420948,-0.9961267709732056,-0.0001269324566237628,-2.872994082281366e-05,-0.004980037920176983,1.769618052094302e-06,-4.632920536096208e-06,-6.944898359506624e-06,,,,,,
1.030644178,,,,,,,,,,,0.05921453237533569,1,0.01715469360351562,1,0.03284498304128647,1
1.034679294,0.005,-0.006445033010095358,-0.0253998227417469,-0.9945417046546936,-0.000128060084534809,-3.15073921228759e-05,-0.004963018465787172,1.290219188376796e-06,9.314830151652131e-08,-7.391214239760302e-06,,,,,,
1.035665154,,,,,,,,,,,0.05792172253131866,1,0.01779499650001526,1,0.04838953539729118,1
1.039774179,0.005,-0.00614690687507391,-0.02510368078947067,-0.9945916533470154,-0.0001232496142620221,-2.924040927609894e-05,-0.004972374998033047,-7.020167913651676e-07,4.435647227296613e-08,-3.639379883679794e-06,,,,,,
1.040681481,,,,,,,,,,,0.0608302503824234,1,0.02072328515350819,1,0.0478997714817524,1
1.044846296,0.005,-0.005392196122556925,-0.02521767653524876,-0.9958345890045166,-0.0001268800115212798,-2.217828296124935e-05,-0.004986595828086138,-1.965756155186682e-06,-2.771549134195084e-06,-3.049463430215837e-06,,,,,,
1.045692921,,,,,,,,,,,0.0597231425344944,1,0.02812366746366024,1,0.03571058809757233,1
1.049894691,0.005,-0.005231466609984636,-0.02546010352671146,-0.9959477782249451,-0.0001286354818148538,-2.569907883298583e-05,-0.0049809655174613,3.165054351939034e-07,-4.133295988140162e-06,-1.989200768548471e-07,,,,,,
1.050700068,,,,,,,,,,,0.05736834183335304,1,0.02969884872436523,1,0.03459888696670532,1
1.054918647,0.005,-0.005251660011708736,-0.02573885396122932,-0.995155394077301,-0.0001301663869526237,-2.596490776340943e-05,-0.004971526563167572,-1.22760741305683e-06,3.098725542827196e-08,-2.311892558282125e-06,,,,,,
1.055702329,,,,,,,,,,,0.05464935675263405,1,0.02950176410377026,1,0.04236940667033195,1
1.059919596,0.005,-0.005884400103241205,-0.02665243856608868,-0.9951375722885132,-0.0001385599171044305,-3.318037852295674e-05,-0.004974748007953167,-2.017287897615461e-06,-1.960726649485878e-06,1.922859837577562e-06,,,,,,
1.060700178,,,,,,,,,,,0.0457036942243576,1,0.0232847947627306,1,0.0425436869263649,1
1.064899564,0.005,-0.006013433448970318,-0.026554174721241,-0.9958800673484802,-0.0001327987702097744,-3.136623490718193e-05,-0.004984142258763313,-2.55209533861489e-06,5.723474714613985e-06,3.242494358346448e-06,,,,,,
1.065693736,,,,,,,,,,,0.04666433483362198,1,0.02201235666871071,1,0.03526276350021362,1
1.069857001,0.005,-0.006173700094223022,-0.02652763389050961,-0.9951747059822083,-0.0001320420851698145,-3.144607035210356e-05,-0.004971737042069435,-4.702832939074142e-06,-7.887971946729522e-07,4.932486262987368e-06,,,,,,
1.070682645,,,,,,,,,,,0.04690856114029884,1,0.02041990868747234,1,0.04218070209026337,1
1.074791193,0.005,-0.006908315233886242,-0.02700191549956799,-0.9953513145446777,-0.000137779104989022,-3.92514921259135e-05,-0.004977169446647167,-1.114621682063444e-06,1.487274630562752e-06,1.358542363050219e-06,,,,,,
1.075666666,,,,,,,,,,,0.04225129261612892,1,0.01319470442831516,1,0.04044889286160469,1
1.079702735,0.005,-0.007049157284200191,-0.02712797932326794,-0.9962685704231262,-0.000136160830152221,-3.631267827586271e-05,-0.004987015388906002,-1.704622945908341e-06,-8.477077244606335e-07,3.360324171808315e-06,,,,,,
1.080646396,,,,,,,,,,,0.04100105538964272,1,0.01179478503763676,1,0.03145388141274452,1
1.084591866,0.005,-0.00727734575048089,-0.02704932168126106,-0.9963722229003906,-0.0001345724303973839,-3.739474050235003e-05,-0.004982865881174803,2.320874500583159e-06,-4.07912830269197e-06,4.989753961126553e-06,,,,,,
1.085621238,,,,,,,,,,,0.04177931323647499,1,0.009553225710988045,1,0.03043760545551777,1
1.089461207,0.005,-0.007631359621882439,-0.02786363661289215,-0.9952074289321899,-0.0001443923683837056,-4.020052801934071e-05,-0.00496941152960062,-7.611890850967029e-07,-5.032553417549934e-06,3.658911282400368e-06,,,,,,
1.090592265,,,,,,,,,,,0.03381719067692757,1,0.006082722917199135,1,0.04186030104756355,1
1.094307542,0.005,-0.00824909470975399,-0.02822302654385567,-0.9947812557220459,-0.0001433337311027572,-4.497955524129793e-05,-0.004970678128302097,-1.05570029518276e-06,-6.6997665726376e-07,2.057068059002631e-06,,,,,,
1.095558405,,,,,,,,,,,0.03019323013722897,1,-1.275487011298537e-05,1,0.04604246094822884,1
1.099130869,0.005,-0.008138570003211498,-0.02825773507356644,-0.9955787658691406,-0.0001415731239831075,-4.004651782452129e-05,-0.004982650745660067,-1.783163156687806e-06,-1.493470904279093e-06,1.941171149155707e-06,,,,,,
1.100519896,,,,,,,,,,,0.02978027425706387,1,0.001037548645399511,1,0.03822380676865578,1
1.103932381,0.005,-0.008290666155517101,-0.02863109111785889,-0.9962688684463501,-0.0001450719719287008,-4.221676863380708e-05,-0.004986053332686424,3.626236548370798e-06,-2.073445102723781e-06,7.994352557716411e-08,,,,,,
1.105476856,,,,,,,,,,,0.02608811669051647,1,-0.000459313188912347,1,0.03145669773221016,1
1.109057307,0.005,-0.008758189156651497,-0.02885769866406918,-0.9955512881278992,-0.0001459343620808795,-4.641972191166133e-05,-0.004973923787474632,-4.945094133290695e-06,3.672793582154554e-06,-1.817256588765304e-06,,,,,,
1.110515952,,,,,,,,,,,0.02384010516107082,1,-0.00505304429680109,1,0.03849458694458008,1
1.114245653,0.005,-0.008889938704669476,-0.02878255024552345,-0.9950348138809204,-0.0001434945734217763,-4.550286757876165e-05,-0.004972015041857958,-4.73669433631585e-06,-3.686116656353988e-07,-4.778979700859054e-08,,,,,,
1.115550756,,,,,,,,,,,0.02455232106149197,1,-0.006370156537741423,1,0.04356148838996887,1
1.119410157,0.005,-0.008724893443286419,-0.02918663620948792,-0.9947162866592407,-0.0001480607606936246,-4.255379826645367e-05,-0.004971713293343782,-3.575306664060918e-06,-5.099517693452071e-06,1.140490780926484e-06,,,,,,
1.120580554,,,,,,,,,,,0.02059553563594818,1,-0.004786446690559387,1,0.04668513312935829,1
1.124549866,0.005,-0.00906157772988081,-0.02940958738327026,-0.9947473406791687,-0.0001483456726418808,-4.723657912109047e-05,-0.004974466748535633,6.315052814898081e-06,-7.85731117503019e-07,-1.82410076376982e-07,,,,,,
1.125605583,,,,,,,,,,,0.01841983385384083,1,-0.008087683469057083,1,0.04637967050075531,1
1.129665852,0.005,-0.009088575839996338,-0.02947016805410385,-0.9953707456588745,-0.000147672020830214,-4.559414810501039e-05,-0.004979938268661499,-5.960741304988915e-07,1.890646039726107e-08,2.030177938650013e-06,,,,,,
1.130626321,,,,,,,,,,,0.01782508939504623,1,-0.008343487046658993,1,0.04026591777801514,1
1.134757638,0.005,-0.008671727031469345,-0.03011943027377129,-0.9960510730743408,-0.0001548941945657134,-4.079395512235351e-05,-0.004984818398952484,2.251861360491603e-06,-4.863918093178654e-06,-2.052986701528425e-06,,,,,,
1.135642171,,,,,,,,,,,0.01147092506289482,1,-0.00424180319532752,1,0.03359391912817955,1
1.139826417,0.005,-0.008280238136649132,-0.02976030483841896,-0.9958798885345459,-0.0001466504763811827,-3.912690226570703e-05,-0.004978647455573082,-2.001980874410947e-06,-2.183703372793389e-06,-5.282739493850386e-06,,,,,,
1.140653610,,,,,,,,,,,0.01501533295959234,1,-0.0003964774659834802,1,0.03527294844388962,1
1.144880652,0.005,-0.008012525737285614,-0.03034686297178268,-0.9956467151641846,-0.0001548876753076911,-3.897451097145677e-05,-0.004976225085556507,6.506587055810087e-07,-5.426237294159364e-06,-2.013034418268944e-06,,,,,,
1.145661950,,,,,,,,,,,0.009290693327784538,1,0.002235390013083816,1,0.03755902871489525,1
1.149911761,0.005,-0.007029905915260315,-0.03068051300942898,-0.9956744909286499,-0.0001561355602461845,-2.9157845347072e-05,-0.004978519398719072,-5.49928518012166e-06,-4.221255949232727e-06,-4.250026904628612e-06,,,,,,
1.150665522,,,,,,,,,,,0.006055234000086784,1,0.01186230778694153,1,0.03728446364402771,1
1.154919982,0.005,-0.0063127800822258,-0.0300808772444725,-0.9953804016113281,-0.0001464324450353161,-2.713872527237982e-05,-0.004975336603820324,-2.920678980444791e-06,3.666971906568506e-06,1.209686388392583e-06,,,,,,
1.155664921,,,,,,,,,,,0.01195027120411396,1,0.01886880025267601,1,0.04016810655593872,1
1.159905553,0.005,-0.00565550709143281,-0.0298143308609724,-0.9955300688743591,-0.0001478787453379482,-2.490168662916403e-05,-0.004978403449058533,-3.014096137121669e-07,-1.725022457321757e-06,-3.983024271292379e-06,,,,,,
1.160659432,,,,,,,,,,,0.01456783153116703,1,0.02530557103455067,1,0.03870082274079323,1
1.164867878,0.005,-0.004834714811295271,-0.02988055720925331,-0.9955481290817261,-0.0001500204380135983,-1.889264240162447e-05,-0.004977544769644737,-1.218350803355861e-06,-4.391968104755506e-06,-7.669038382118742e-07,,,,,,
1.165649414,,,,,,,,,,,0.01393738482147455,1,0.033346027135849,1,0.03852345049381256,1
1.169808149,0.005,-0.004334005061537027,-0.03004241548478603,-0.996040403842926,-0.0001508738496340811,-1.846809209382627e-05,-0.004983311984688044,-1.023423010337865e-06,-3.204427798664256e-07,3.319513098176685e-06,,,,,,
1.170634985,,,,,,,,,,,0.012368343770504,1,0.03824234381318092,1,0.03369526565074921,1
1.174726129,0.005,-0.004123081918805838,-0.03021163679659367,-0.9960772395133972,-0.0001523233368061483,-1.871565109468065e-05,-0.004980860743671656,3.262212430854561e-06,1.123306674344349e-06,2.774896529444959e-06,,,,,,
1.175616264,,,,,,,,,,,0.01071118656545877,1,0.04031055420637131,1,0.03333413973450661,1
1.179621935,0.005,-0.004337004385888577,-0.03032879345118999,-0.9950470328330994,-0.0001521187805337831,-2.246557960461359e-05,-0.004968984052538872,1.06515847164701e-06,4.48188711743569e-06,3.350023689563386e-06,,,,,,
1.180592656,,,,,,,,,,,0.009550980292260647,1,0.03823038935661316,1,0.0434369295835495,1
1.184494615,0.005,-0.004647425841540098,-0.0301545187830925,-0.995029091835022,-0.0001499552745372057,-2.510114973119926e-05,-0.004974638111889362,-4.268498230430851e-07,3.754820227186428e-06,4.298535259295022e-06,,,,,,
1.185564399,,,,,,,,,,,0.01123535353690386,1,0.03519673645496368,1,0.04361362010240555,1
1.189344764,0.005,-0.00539326062425971,-0.02994582802057266,-0.9951028227806091,-0.0001485161192249507,-3.123669739579782e-05,-0.004976163618266582,-3.243983883294277e-06,5.003708338335855e-06,-4.323099034309053e-08,,,,,,
1.190531611,,,,,,,,,,,0.01324909832328558,1,0.02787414006888866,1,0.04289130866527557,1
1.194173932,0.005,-0.006303866393864155,-0.02994286827743053,-0.9952223300933838,-0.0001495546894147992,-3.697332795127295e-05,-0.004977178294211626,2.857573917935952e-06,3.449944870226318e-06,5.138374490343267e-06,,,,,,
1.195494890,,,,,,,,,,,0.01323787774890661,1,0.01894965767860413,1,0.0417206808924675,1
1.198983908,0.005,-0.007102042436599731,-0.02938737347722054,-0.9951245188713074,-0.0001436159363947809,-4.018581239506602e-05,-0.004974897019565105,-5.284836788632674e-06,3.823961378657259e-06,1.491503439865483e-06,,,,,,
1.200453877,,,,,,,,,,,0.01863931119441986,1,0.0111067071557045,1,0.042681735008955,1
1.204026937,0.005,-0.008150405250489712,-0.02909594774246216,-0.9950015544891357,-0.0001431694254279137,-4.695253664976917e-05,-0.004974252544343472,8.695315045770258e-07,-1.717364511932828e-06,1.917368535941932e-06,,,,,,
1.205493212,,,,,,,,,,,0.02147720754146576,1,0.0008186036720871925,1,0.04388834536075592,1
1.209217310,0.005,-0.008712251670658588,-0.02912442944943905,-0.9952308535575867,-0.0001461625215597451,-4.675820673583075e-05,-0.004977297969162464,-8.675714866512862e-07,-2.483721459611843e-07,2.607899432405247e-06,,,,,,
1.210528255,,,,,,,,,,,0.02118603326380253,1,-0.004694282542914152,1,0.04164047539234161,1
1.214385390,0.005,-0.009218731895089149,-0.02873639389872551,-0.9954814910888672,-0.0001414839643985033,-4.909673225483857e-05,-0.00497930683195591,-2.290712245667237e-06,-2.469166929586208e-06,5.191745003685355e-06,,,,,,
1.215558887,,,,,,,,,,,0.02499079704284668,1,-0.009666214697062969,1,0.03918195888400078,1
1.219529271,0.005,-0.009437350556254387,-0.02848316170275211,-0.9954594969749451,-0.0001409869873896241,-4.884016016148962e-05,-0.004976888652890921,2.422365696475026e-06,1.174396473402339e-07,4.186489604762755e-06,,,,,,
1.220584750,,,,,,,,,,,0.02747675217688084,1,-0.01181444060057402,1,0.03939742222428322,1
1.224649429,0.005,-0.009517687372863293,-0.0281382966786623,-0.995397686958313,-0.0001388450182275847,-4.794541746377945e-05,-0.004976811353117228,1.833312694543565e-06,3.691596702992683e-06,3.28737405652646e-06,,,,,,
1.225606441,,,,,,,,,,,0.03084797784686089,1,-0.01259153243154287,1,0.04000396654009819,1
1.229746461,0.005,-0.00931487325578928,-0.02812647260725498,-0.9954366087913513,-0.000140384494443424,-4.548536526272073e-05,-0.004977288655936718,-5.882045428506899e-08,-2.122948643545897e-07,1.275365235642312e-07,,,,,,
1.230623245,,,,,,,,,,,0.03094551339745522,1,-0.01059667766094208,1,0.03962250053882599,1
1.234820127,0.005,-0.008784572593867779,-0.02765794284641743,-0.995594322681427,-0.0001356376596959308,-4.052449730806984e-05,-0.004978877026587725,5.694208198292472e-07,-4.394307779875817e-06,-2.443276798658189e-06,,,,,,
1.235635161,,,,,,,,,,,0.03554881364107132,1,-0.005389523692429066,1,0.03807587176561356,1
1.239871264,0.005,-0.008386119268834591,-0.02743329294025898,-0.9950553178787231,-0.0001357376168016344,-3.938897862099111e-05,-0.004971845075488091,-8.334647645824589e-06,2.146673750758055e-06,3.853587713820161e-06,,,,,,
1.240642786,,,,,,,,,,,0.03775443509221077,1,-0.0014951650518924,1,0.04336171224713326,1
1.244899035,0.005,-0.008063830435276031,-0.0272257886826992,-0.9956001043319702,-0.0001351054961560294,-3.86010724469088e-05,-0.004980622790753841,-8.140087857100298e-07,-5.67196775591583e-06,-7.323235422518337e-07,,,,,,
1.245645881,,,,,,,,,,,0.03979930281639099,1,0.00163853878621012,1,0.03801875188946724,1
1.249903321,0.005,-0.00742418086156249,-0.02709715813398361,-0.9958084225654602,-0.0001345873752143234,-3.294398629805073e-05,-0.00498107448220253,7.465635007974925e-07,3.289895005309518e-07,-3.380007456144085e-06,,,,,,
1.250645995,,,,,,,,,,,0.04107775166630745,1,0.007908805273473263,1,0.03597505763173103,1
1.254895329,0.005,-0.007435723207890987,-0.02695485018193722,-0.9955910444259644,-0.000133960071252659,-3.707793439389206e-05,-0.004976874217391014,2.083542085529189e-06,1.483765004195448e-06,-4.84661813970888e-06,,,,,,
1.255641818,,,,,,,,,,,0.04247230663895607,1,0.007795006968080997,1,0.03810714185237885,1
1.259865880,0.005,-0.007334333844482899,-0.02676455490291119,-0.9952070116996765,-0.0001326782221440226,-3.58703218807932e-05,-0.004973274189978838,2.025533831329085e-06,2.062178054984543e-07,-6.062685770302778e-06,,,,,,
1.260633349,,,,,,,,,,,0.04433880373835564,1,0.008810444734990597,1,0.04187311977148056,1
1.264813304,0.005,-0.007246394641697407,-0.02672669850289822,-0.9955800771713257,-0.000133461580844596,-3.567239400581457e-05,-0.004980080761015415,-4.534644176601432e-06,1.671994255048048e-06,-1.209579863825638e-06,,,,,,
1.265620232,,,,,,,,,,,0.04470450431108475,1,0.009670893661677837,1,0.03821486234664917,1
1.269737720,0.005,-0.007285263855010271,-0.02633549086749554,-0.9955300688743591,-0.000129642547108233,-3.610425847000442e-05,-0.004977282602339983,-4.08336563850753e-06,-7.551294061158842e-07,-2.688733729883097e-06,,,,,,
1.270602465,,,,,,,,,,,0.04853066429495811,1,0.009275483898818493,1,0.03870576620101929,1
1.274639368,0.005,-0.006628166418522596,-0.02525745518505573,-0.995177686214447,-0.000119944968901109,-3.000219112436753e-05,-0.004974391311407089,-1.494202024332481e-06,-2.259259645143175e-06,-4.612598786479793e-06,,,,,,
1.275579929,,,,,,,,,,,0.05910484120249748,1,0.01570164225995541,1,0.04216181859374046,1
1.279517651,0.005,-0.005591736640781164,-0.02417545579373837,-0.9915527105331421,-0.0001143543267971836,-2.172193671867717e-05,-0.004936942830681801,3.968283635913394e-06,8.280375141112017e-07,-1.785549898158934e-06,,,,,,
1.280552745,,,,,,,,,,,0.06971757858991623,1,0.02586620487272739,1,0.07771044224500656,1
1.284373283,0.005,-0.007229934446513653,-0.02503927797079086,-0.9929884076118469,-0.0001297661510761827,-4.544229886960238e-05,-0.004970046225935221,-5.284447979647666e-06,1.467472770855238e-06,-2.374514224356972e-06,,,,,,
1.285520673,,,,,,,,,,,0.06123994290828705,1,0.009797118604183197,1,0.06363158673048019,1
1.289206028,0.005,-0.006767736747860909,-0.02550346590578556,-1.001493096351624,-0.0001301302399951965,-3.196618126821704e-05,-0.005056316498667002,-1.070501275535207e-05,4.726567112811608e-06,-1.768753008946078e-06,,,,,,
1.290483952,,,,,,,,,,,0.05666591227054596,1,0.0142854368314147,1,-0.01977009139955044,1
1.294015527,0.005,-0.005413779988884926,-0.02454760670661926,-1.004122853279114,-0.0001165494759334251,-1.80017977982061e-05,-0.005041898228228092,1.350885759165976e-05,-7.563114195363596e-06,1.108751803258201e-05,,,,,,
1.295442700,,,,,,,,,,,0.06595306098461151,1,0.02752838842570782,1,-0.04555594176054001,1
1.298974991,0.005,-0.008215352892875671,-0.02646267972886562,-0.9925459027290344,-0.0001420699409209192,-5.590826913248748e-05,-0.004896525293588638,2.914701326517388e-05,-2.577466148068197e-05,9.999665962823201e-06,,,,,,
1.300483108,,,,,,,,,,,0.0472014881670475,1,0.0001598978415131569,1,0.06797373294830322,1
1.304170489,0.005,-0.01023834198713303,-0.02962420135736465,-0.9862971901893616,-0.0001680223504081368,-6.57697455608286e-05,-0.004887470044195652,-1.511983828095254e-05,3.3374626582372e-06,-2.01009265765606e-06,,,,,,
1.305519342,,,,,,,,,,,0.0162650290876627,1,-0.01961220055818558,1,0.129249706864357,1
1.309344053,0.005,-0.009390365332365036,-0.02709727548062801,-0.9960924983024597,-0.0001234291266882792,-4.063768574269488e-05,-0.005034602247178555,-2.358817982894834e-05,3.423223097342998e-05,1.1898343473149e-05,,,,,,
1.310551047,,,,,,,,,,,0.04095426946878433,1,-0.01137976441532373,1,0.03319365903735161,1
1.314492702,0.005,-0.009289040230214596,-0.02565227076411247,-1.001479983329773,-0.0001166050205938518,-4.70241138827987e-05,-0.005046166479587555,1.109233744500671e-05,-3.73999841940531e-06,1.461066312913317e-05,,,,,,
1.315577865,,,,,,,,,,,0.05501978099346161,1,-0.01043255440890789,1,-0.01963651366531849,1
1.319617271,0.005,-0.01039400510489941,-0.0294918417930603,-0.9957823753356934,-0.0001703687739791349,-5.689872341463342e-05,-0.004945983644574881,2.539195520512294e-05,-2.588478309917264e-05,1.076753142115194e-05,,,,,,
1.320600271,,,,,,,,,,,0.01740634441375732,1,-0.02119398675858974,1,0.03623638674616814,1
1.324718118,0.005,-0.01233087666332722,-0.03018647246062756,-0.9931637048721313,-0.0001571536413393915,-7.551237649749964e-05,-0.004946647211909294,-1.096784581022803e-05,-6.766297246940667e-06,5.455857262859354e-06,,,,,,
1.325617909,,,,,,,,,,,0.01067141350358725,1,-0.04011873155832291,1,0.06191390007734299,1
1.329795599,0.005,-0.007917243055999279,-0.02892128191888332,-0.9953978061676025,-0.0001372391416225582,-1.437433002138278e-05,-0.004989734850823879,-1.923963645822369e-05,-2.29118563765951e-06,1.215515476360451e-05,,,,,,
1.330630660,,,,,,,,,,,0.02313895523548126,1,0.003094406798481941,1,0.04000358283519745,1
1.334859014,0.005,-0.006566257681697607,-0.02726273983716965,-0.9945671558380127,-0.0001248672924702987,-2.274936559842899e-05,-0.004970457404851913,7.568706678284798e-06,-7.586501851619687e-06,2.500772552593844e-06,,,,,,
1.335641861,,,,,,,,,,,0.03945791348814964,1,0.01630424335598946,1,0.04814823344349861,1
1.339903712,0.005,-0.005518147256225348,-0.02778191864490509,-0.9927695989608765,-0.0001415764563716948,-2.18045934161637e-05,-0.004951529204845428,3.066354111069813e-06,-8.896401595848147e-06,2.306505166416173e-06,,,,,,
1.340648174,,,,,,,,,,,0.03443552553653717,1,0.02659693360328674,1,0.06577406823635101,1
1.344924450,0.005,-0.004710620734840631,-0.02671055868268013,-0.9951373934745789,-0.000127651437651366,-1.733159842842724e-05,-0.004988153930753469,-9.882548965833848e-07,-1.008404865388002e-06,-1.356647135253297e-05,,,,,,
1.345649958,,,,,,,,,,,0.0449896827340126,1,0.03452667221426964,1,0.04255262017250061,1
1.349922776,0.005,-0.004891776479780674,-0.02662310376763344,-0.998403012752533,-0.000132289613247849,-2.58790696534561e-05,-0.005012959241867065,-7.921262294985354e-06,3.322669272165513e-06,-2.54821206908673e-05,,,,,,
1.350647092,,,,,,,,,,,0.04586942493915558,1,0.03273481503129005,1,0.01052739750593901,1
1.354896903,0.005,-0.00530421594157815,-0.02428415603935719,-0.9971375465393066,-0.0001081911977962591,-2.855410457414109e-05,-0.004980206489562988,3.992859092250001e-06,1.107782190956641e-05,-2.272774872835726e-05,,,,,,
1.355639577,,,,,,,,,,,0.06877525895833969,1,0.02868236601352692,1,0.02293842099606991,1
1.359848738,0.005,-0.005751283373683691,-0.0226835273206234,-0.9943143129348755,-0.0001024660814437084,-3.188247501384467e-05,-0.004953374154865742,1.51077915688802e-06,-5.831137968925759e-06,-1.140994663728634e-05,,,,,,
1.360627413,,,,,,,,,,,0.08444495499134064,1,0.0243109930306673,1,0.0506257489323616,1
1.364778519,0.005,-0.005323586519807577,-0.02385969646275043,-0.9945390224456787,-0.0001263931189896539,-2.323674925719388e-05,-0.004973629489541054,6.642963398917345e-06,-3.008228759426856e-06,-1.124627851822879e-05,,,,,,
1.365610719,,,,,,,,,,,0.07292675226926804,1,0.02852777764201164,1,0.04842112585902214,1
1.369684935,0.005,-0.0078970892354846,-0.02315389364957809,-0.995093047618866,-0.0001119737135013565,-5.411759411799721e-05,-0.004979220684617758,1.653252365940716e-05,3.130020331809646e-06,-1.523156606708653e-05,,,,,,
1.370589137,,,,,,,,,,,0.07984252274036407,1,0.003370755817741156,1,0.04298757389187813,1
1.374568224,0.005,-0.009652215056121349,-0.02381573989987373,-0.9940581917762756,-0.0001221150741912425,-5.939930633758195e-05,-0.004965377971529961,2.512713763280772e-06,-5.226866051089019e-06,-2.49507388616621e-06,,,,,,
1.375563025,,,,,,,,,,,0.0733523964881897,1,-0.01375642791390419,1,0.05313528329133987,1
1.379428148,0.005,-0.01062869559973478,-0.02537815272808075,-0.993602991104126,-0.0001357798464596272,-5.827863424201496e-05,-0.004962826147675514,-4.200935563858366e-06,-5.720531135011697e-06,5.053282166045392e-06,,,,,,
1.380532026,,,,,,,,,,,0.05806534364819527,1,-0.02329752780497074,1,0.05759831517934799,1
1.384265423,0.005,-0.01014730893075466,-0.02553383819758892,-0.9979147911071777,-0.0001294984249398112,-4.948982677888125e-05,-0.005016227252781391,-1.43879860843299e-05,8.233760127041023e-06,4.702817022916861e-06,,,,,,
1.385496378,,,,,,,,,,,0.05653613060712814,1,-0.01860520802438259,1,0.01531337853521109,1
1.389082313,0.005,-0.009479220025241375,-0.0249556191265583,-0.9967421293258667,-0.0001198408863274381,-4.158486262895167e-05,-0.004978179931640625,1.436260754417162e-05,-1.013311793940375e-05,1.122375397244468e-05,,,,,,
1.390456319,,,,,,,,,,,0.06221326068043709,1,-0.01204880699515343,1,0.02681354992091656,1
1.393961787,0.005,-0.009967342019081116,-0.02748094126582146,-0.9934837222099304,-0.0001515086332801729,-5.384143514675088e-05,-0.004947955720126629,-3.307314955236507e-06,-9.887596206681337e-06,7.685993296036031e-06,,,,,,
1.395496964,,,,,,,,,,,0.03751358389854431,1,-0.01680779457092285,1,0.0587652288377285,1
1.399158478,0.005,-0.00842688512057066,-0.02825888805091381,-0.9937742948532104,-0.0001471917785238475,-3.356387969688512e-05,-0.004968877416104078,-8.847399840306025e-06,5.383150892157573e-06,9.322970981884282e-06,,,,,,
1.400532722,,,,,,,,,,,0.02991086803376675,1,-0.001727683935314417,1,0.05591468140482903,1
1.404330969,0.005,-0.005098871421068907,-0.02707594260573387,-0.9954426884651184,-0.0001276412222068757,-5.565983428823529e-06,-0.004987699910998344,-1.132275792770088e-05,-7.173417202466226e-07,1.018367856886471e-05,,,,,,
1.405564189,,,,,,,,,,,0.04150689765810966,1,0.03084543347358704,1,0.03955389931797981,1
1.409478903,0.005,-0.003188902977854013,-0.02807061187922955,-0.9960727095603943,-0.0001457378239138052,-4.043927219754551e-06,-0.004984082654118538,-1.249050228580018e-06,-1.035199511534302e-05,-1.51695303429733e-07,,,,,,
1.410591006,,,,,,,,,,,0.03178973495960236,1,0.04952270537614822,1,0.03337494283914566,1
1.414604783,0.005,-0.002442148979753256,-0.02792601101100445,-0.9957926273345947,-0.0001396151346853003,-7.208142051240429e-06,-0.004977751523256302,3.498867044982035e-06,-2.6084396722581e-06,-9.48128104028001e-07,,,,,,
1.415613651,,,,,,,,,,,0.03325064480304718,1,0.05682533234357834,1,0.03612051159143448,1
1.419709206,0.005,-0.002856750972568989,-0.02807658910751343,-0.9951682686805725,-0.0001402459311066195,-1.631905433896463e-05,-0.004971763119101524,9.806375373955234e-07,-7.84314215707127e-06,-6.625643891311483e-06,,,,,,
1.420631766,,,,,,,,,,,0.03181351721286774,1,0.0527668185532093,1,0.04224200174212456,1
1.424790025,0.005,-0.003633481916040182,-0.02966665662825108,-0.9954608678817749,-0.0001578338560648263,-2.261041299789213e-05,-0.004978687968105078,4.988037858311145e-07,2.860376525859465e-06,-6.58595718050492e-06,,,,,,
1.425645351,,,,,,,,,,,0.0162581242620945,1,0.04515550285577774,1,0.03937103599309921,1
1.429848313,0.005,-0.004589699674397707,-0.02866555750370026,-0.9954506158828735,-0.0001389565004501492,-2.893159035011195e-05,-0.004978025797754526,3.462205540927243e-06,1.672538019192871e-05,-7.288769666047301e-06,,,,,,
1.430654168,,,,,,,,,,,0.02603661268949509,1,0.03579406440258026,1,0.03947263583540916,1
1.434882283,0.005,-0.005906281527131796,-0.02756202593445778,-0.9947428703308105,-0.0001302372838836163,-3.730921889655292e-05,-0.004968730732798576,2.974716608150629e-06,7.706142241659109e-06,-3.268814680268406e-06,,,,,,
1.435658216,,,,,,,,,,,0.03678175434470177,1,0.02291242778301239,1,0.04641540721058846,1
1.439891934,0.005,-0.007604385260492563,-0.02849113568663597,-0.995215117931366,-0.0001476057368563488,-4.770213854499161e-05,-0.004978529177606106,1.460938506170351e-06,5.964238425804069e-06,-9.369397048430983e-06,,,,,,
1.440658212,,,,,,,,,,,0.02760419435799122,1,0.006284408736974001,1,0.04178635030984879,1
1.444880128,0.005,-0.009745012037456036,-0.02810931764543056,-0.9969491958618164,-0.0001386907388223335,-6.177020259201527e-05,-0.004995918832719326,4.30358204539516e-06,8.050774340517819e-06,-2.621992962303921e-06,,,,,,
1.445653200,,,,,,,,,,,0.03127129003405571,1,-0.01468350552022457,1,0.02478354051709175,1
1.449844241,0.005,-0.01232216507196426,-0.02862188778817654,-0.9949920177459717,-0.0001449012779630721,-7.64737487770617e-05,-0.00496448902413249,8.636615348223131e-06,-9.447659067518543e-06,-6.108053185016615e-06,,,,,,
1.450643420,,,,,,,,,,,0.02621596679091454,1,-0.03990267589688301,1,0.04397745802998543,1
1.454785585,0.005,-0.01471144985407591,-0.03104919753968716,-0.9939979314804077,-0.0001702859299257398,-8.853372128214687e-05,-0.004962914623320103,-4.296052793506533e-06,-2.852649458873202e-06,1.990159944398329e-06,,,,,,
1.455629110,,,,,,,,,,,0.002430115826427937,1,-0.06329882144927979,1,0.05372504144906998,1
1.459703326,0.005,-0.01401075627654791,-0.03075643070042133,-0.9946772456169128,-0.0001522338425274938,-6.722082616761327e-05,-0.004977159667760134,-8.787508704699576e-06,5.891464752494358e-06,6.771390872017946e-06,,,,,,
1.460609794,,,,,,,,,,,0.005290168337523937,1,-0.05644507706165314,1,0.04706333205103874,1
1.464597702,0.005,-0.0131190363317728,-0.03121223114430904,-0.9963015913963318,-0.0001586382713867351,-5.990901263430715e-05,-0.004991583526134491,1.697877451078966e-06,-4.56004136140109e-06,6.071332336432533e-06,,,,,,
1.465585947,,,,,,,,,,,0.0008152599912136793,1,-0.04771116375923157,1,0.03113456629216671,1
1.469471216,0.005,-0.01144737843424082,-0.03185759484767914,-0.9961985349655151,-0.0001632733328733593,-4.770229497808032e-05,-0.004980792757123709,-3.919175469491165e-06,-6.983109869906912e-06,3.63541767001152e-06,,,,,,
1.470557928,,,,,,,,,,,-0.005487756337970495,1,-0.03133482113480568,1,0.03214487805962563,1
1.474322200,0.005,-0.01023788470774889,-0.03169200196862221,-0.9952445030212402,-0.0001576322392793372,-4.40028052253183e-05,-0.004971201065927744,-6.679444140900159e-06,-6.202252734510694e-06,1.439981701878423e-06,,,,,,
1.475525141,,,,,,,,,,,-0.003821489401161671,1,-0.01950232312083244,1,0.04149964079260826,1
1.479150295,0.005,-0.007799102924764156,-0.03200273960828781,-0.9939870834350586,-0.0001613555650692433,-2.472789492458105e-05,-0.00496168527752161,-1.427680763299577e-05,-6.430035682569724e-06,2.726539207742462e-07,,,,,,
1.480487704,,,,,,,,,,,-0.006820545997470617,1,0.00434212340041995,1,0.05382978916168213,1
1.483955979,0.005,-0.00520628783851862,-0.03185980021953583,-0.9944551587104797,-0.000159144401550293,-1.08298881968949e-05,-0.00497469212859869,-1.214776784763671e-05,-2.212093477282906e-06,1.703694010757317e-06,,,,,,
1.485445380,,,,,,,,,,,-0.005377853754907846,1,0.02967800572514534,1,0.04923871904611588,1
1.488826871,0.005,-0.003207979258149862,-0.03073828853666782,-0.9954794049263,-0.0001468277623644099,-3.520411610224983e-06,-0.004983524326235056,-4.421614448801847e-06,-4.416390311234863e-06,5.965811311625657e-08,,,,,,
1.490486264,,,,,,,,,,,0.005655160639435053,1,0.0491875633597374,1,0.03919380530714989,1
1.494024992,0.005,-0.002444155048578978,-0.03115002624690533,-0.9954848289489746,-0.0001579709642101079,-7.056309186737053e-06,-0.004978170618414879,5.262849072096287e-07,-3.916920377378119e-06,-8.85207555256784e-07,,,,,,
1.495522618,,,,,,,,,,,0.001556479488499463,1,0.05662284046411514,1,0.03914316743612289,1
1.499199033,0.005,-0.002577878069132566,-0.0318935252726078,-0.9954835176467896,-0.0001639089168747887,-1.398931271978654e-05,-0.004976965021342039,-3.657346724139643e-06,7.425077797051927e-07,-5.464962669066153e-06,,,,,,
1.500554204,,,,,,,,,,,-0.005787068046629429,1,0.05527698621153831,1,0.03915778174996376,1
1.504349470,0.005,-0.002755213994532824,-0.03169697523117065,-0.9955058693885803,-0.0001572390174260363,-1.475564113206929e-05,-0.004978183191269636,-8.407469067606144e-06,5.328015049599344e-06,-3.497568059174228e-06,,,,,,
1.505581260,,,,,,,,,,,-0.003906721249222755,1,0.05348321795463562,1,0.03894024714827538,1
1.509475827,0.005,-0.003502064384520054,-0.0316610187292099,-0.9960978627204895,-0.0001581153483130038,-2.176689486077521e-05,-0.00498373806476593,-2.522072009014664e-06,1.218656598211965e-05,-3.310878810225404e-06,,,,,,
1.510603786,,,,,,,,,,,-0.00362102990038693,1,0.04611162468791008,1,0.03313713520765305,1
1.514584541,0.005,-0.0038605029694736,-0.0315207876265049,-0.9959254860877991,-0.0001565494603710249,-2.12809354707133e-05,-0.00497876200824976,-9.522831305730506e-07,5.157809937372804e-06,-6.718204076605616e-06,,,,,,
1.515622616,,,,,,,,,,,-0.002321418141946197,1,0.04256590083241463,1,0.03483033552765846,1
1.519669533,0.005,-0.00541943684220314,-0.03207159042358398,-0.9960739016532898,-0.0001628033205633983,-3.60248886863701e-05,-0.004981307312846184,7.345572157646529e-06,-1.270631173611037e-06,-1.422782929694222e-06,,,,,,
1.520636678,,,,,,,,,,,-0.007774697616696358,1,0.027275325730443,1,0.03337644040584564,1
1.524730682,0.005,-0.006467057857662439,-0.03239895030856133,-0.9958553314208984,-0.0001642865245230496,-3.868002386298031e-05,-0.004977442789822817,4.632638137991307e-06,1.039754124576575e-06,-2.023758440827805e-07,,,,,,
1.525646329,,,,,,,,,,,-0.01101372763514519,1,0.01703670620918274,1,0.03552047908306122,1
1.529768705,0.005,-0.007494713645428419,-0.03202762454748154,-0.9957668781280518,-0.0001577974762767553,-4.343439650256187e-05,-0.004978772718459368,8.583691851526964e-06,-6.782950094930129e-06,4.330549018050078e-06,,,,,,
1.530651093,,,,,,,,,,,-0.007368919905275106,1,0.007005582097917795,1,0.03638741746544838,1
1.534783721,0.005,-0.008038825355470181,-0.0319763571023941,-0.9951885342597961,-0.0001596529327798635,-4.417514719534665e-05,-0.004972795024514198,1.410428353665338e-06,1.355379708911642e-06,5.396200776885962e-06,,,,,,
1.535651326,,,,,,,,,,,-0.006861192639917135,1,0.001717760926112533,1,0.04205862060189247,1
1.539775491,0.005,-0.007026526611298323,-0.03121315129101276,-0.9952700734138489,-0.0001521910162409768,-2.929155925812665e-05,-0.004976195748895407,-3.841669240500778e-06,-1.523508331047196e-06,1.869150651145901e-06,,,,,,
1.540647149,,,,,,,,,,,0.0006298955995589495,1,0.01165786013007164,1,0.04125895723700523,1
1.544744730,0.005,-0.006040195468813181,-0.03031935356557369,-0.9970827102661133,-0.0001464406668674201,-2.430391577945556e-05,-0.004996424075216055,9.730457577461493e-07,2.804965149039162e-08,1.481431581851211e-06,,,,,,
1.545638084,,,,,,,,,,,0.009397245943546295,1,0.02134140580892563,1,0.02348317205905914,1
1.549690366,0.005,-0.005197207909077406,-0.02971559017896652,-0.9954890012741089,-0.0001449627743568271,-2.077495446428657e-05,-0.004968714900314808,5.094533662486356e-06,-6.022309662512271e-06,6.701770416839281e-06,,,,,,
1.550624490,,,,,,,,,,,0.0153319388628006,1,0.02962949685752392,1,0.03911097347736359,1
1.554613233,0.005,-0.005247495602816343,-0.02959681116044521,-0.994550883769989,-0.0001473394222557545,-2.677902921277564e-05,-0.004966808948665857,-2.575556436568149e-06,-3.729867103174911e-06,7.44114231565618e-07,,,,,,
1.555606246,,,,,,,,,,,0.01652842946350574,1,0.02915693446993828,1,0.04830990359187126,1
1.559512854,0.005,-0.004635246470570564,-0.02873554639518261,-0.994577944278717,-0.0001387822849210352,-1.966590207302943e-05,-0.004972442984580994,-4.0257668842969e-06,4.5973665692145e-06,8.402006642427295e-06,,,,,,
1.560583472,,,,,,,,,,,0.02498412132263184,1,0.03514810279011726,1,0.0480443462729454,1
1.564390182,0.005,-0.004429297987371683,-0.02766151912510395,-0.9955065250396729,-0.0001319634029641747,-2.055076765827835e-05,-0.004983956459909678,-2.696326873774524e-06,5.713325663236901e-06,4.189137143839616e-06,,,,,,
1.565556526,,,,,,,,,,,0.03549899160861969,1,0.03715172782540321,1,0.03893916681408882,1
1.569246769,0.005,-0.00571862980723381,-0.02681561931967735,-0.9956823587417603,-0.0001288113417103887,-3.560203185770661e-05,-0.004979227669537067,2.624253738758853e-06,1.212449092236056e-06,-7.657266678506858e-07,,,,,,
1.570524693,,,,,,,,,,,0.04376401379704475,1,0.02450383082032204,1,0.03721592575311661,1
1.574080467,0.005,-0.007166109513491392,-0.02649414725601673,-0.9956207871437073,-0.0001312727836193517,-4.490437277127057e-05,-0.004978354088962078,3.572456989786588e-06,1.139680261985632e-05,4.376141532702604e-06,,,,,,
1.575488567,,,,,,,,,,,0.04686910286545753,1,0.01031714770942926,1,0.03782078623771667,1
1.578891754,0.005,-0.008303193375468254,-0.02586228772997856,-0.9953168034553528,-0.0001251240028068423,-4.84066731587518e-05,-0.00497454172000289,3.221074166503968e-06,1.021981097437674e-05,4.765788162330864e-06,,,,,,
1.580447435,,,,,,,,,,,0.05298671871423721,1,-0.0008047146257013083,1,0.04080469906330109,1
1.583767533,0.005,-0.00982870627194643,-0.02559509314596653,-0.9953054785728455,-0.0001263681333512068,-5.823552783112973e-05,-0.00497567281126976,-7.466737770300824e-06,-3.115842162060289e-07,2.962140342788189e-06,,,,,,
1.585488677,,,,,,,,,,,0.05554867163300514,1,-0.01576815918087959,1,0.04091779887676239,1
1.588967204,0.005,-0.01039760839194059,-0.02539964765310287,-0.9962009191513062,-0.0001261226134374738,-5.558600605581887e-05,-0.004987020045518875,1.248750436388946e-06,5.971289738226915e-07,4.182498287264025e-06,,,,,,
1.590524912,,,,,,,,,,,0.05742884054780006,1,-0.02135876379907131,1,0.03213685005903244,1
1.594142437,0.005,-0.01145878061652184,-0.02522970922291279,-0.9959049224853516,-0.000124710873933509,-6.358718383125961e-05,-0.004977998323738575,1.936706212291028e-06,-8.918495041143615e-06,3.566708073776681e-06,,,,,,
1.595556855,,,,,,,,,,,0.05910597741603851,1,-0.03176239505410194,1,0.03503917902708054,1
1.599293470,0.005,-0.01216578297317028,-0.02648431248962879,-0.9948570728302002,-0.0001400438777636737,-6.524319906020537e-05,-0.004968266468495131,2.535599605835159e-06,-6.468460014730226e-06,2.012404962670189e-07,,,,,,
1.600583911,,,,,,,,,,,0.04684020578861237,1,-0.03868072852492332,1,0.04531357064843178,1
1.604421616,0.005,-0.01271113473922014,-0.02659075893461704,-0.9945005178451538,-0.0001342077302979305,-6.724440754624084e-05,-0.004969789180904627,-1.306562012359791e-06,1.404020281370322e-06,-1.572006794958725e-06,,,,,,
1.605607152,,,,,,,,,,,0.04582070559263229,1,-0.04401524364948273,1,0.04880956932902336,1
1.609529853,0.005,-0.01199865899980068,-0.02610368281602859,-0.9947786331176758,-0.000127727136714384,-5.615956979454495e-05,-0.004975705407559872,-4.336257006798405e-06,4.785388682648772e-06,1.46466493333719e-06,,,,,,
1.610626101,,,,,,,,,,,0.05058420076966286,1,-0.03703166171908379,1,0.04608225077390671,1
1.614615321,0.005,-0.01052948087453842,-0.02575809508562088,-0.9961335062980652,-0.0001262690784642473,-4.385337524581701e-05,-0.004988252185285091,-2.145010739695863e-06,-6.101397957536392e-06,-3.042380512852105e-06,,,,,,
1.615640283,,,,,,,,,,,0.0539807491004467,1,-0.02263661473989487,1,0.03279542922973633,1
1.619677186,0.005,-0.008332074619829655,-0.02519479393959045,-0.9973894953727722,-0.0001232965296367183,-2.864649286493659e-05,-0.004995345138013363,-1.147287434832833e-06,-2.514449761292781e-06,-2.25517919716367e-06,,,,,,
1.620649934,,,,,,,,,,,0.05952532589435577,1,-0.001108391676098108,1,0.02047759667038918,1
1.624716759,0.005,-0.006939520593732595,-0.02469154074788094,-0.9954582452774048,-0.0001193070347653702,-2.598655737529043e-05,-0.004966718144714832,9.543975465930998e-06,-1.474186410632683e-05,-4.797705059900181e-07,,,,,,
1.625655532,,,,,,,,,,,0.06451035290956497,1,0.01257084310054779,1,0.03941487520933151,1
1.629735112,0.005,-0.005672644358128309,-0.02510472759604454,-0.9936363101005554,-0.0001286498882109299,-2.1117955839145e-05,-0.004956415854394436,-1.006713227980072e-05,-3.841297257167753e-06,1.115560408493366e-07,,,,,,
1.630656481,,,,,,,,,,,0.06052909791469574,1,0.02499494515359402,1,0.05727964639663696,1
1.634732246,0.005,-0.004199964459985495,-0.02395172603428364,-0.9947121143341064,-0.0001129046868300065,-1.213994164572796e-05,-0.004979611374437809,-1.096609230444301e-05,4.456425131138531e-07,1.956301503014402e-06,,,,,,
1.635653377,,,,,,,,,,,0.07187069207429886,1,0.03939059749245644,1,0.04672934114933014,1
1.639707088,0.005,-0.003224610583856702,-0.02376624010503292,-0.9962821006774902,-0.0001173100099549629,-9.853975825535599e-06,-0.004990418441593647,-3.18957245326601e-06,-1.567561639603809e-06,-2.418144049443072e-06,,,,,,
1.640645385,,,,,,,,,,,0.07371311634778976,1,0.0488976389169693,1,0.03133270144462585,1
1.644658446,0.005,-0.003025654936209321,-0.02401585318148136,-0.9970784783363342,-0.0001216775126522407,-1.315668032475514e-05,-0.004991095513105392,4.004769834864419e-06,4.134902610530844e-06,-4.673977855418343e-06,,,,,,
1.645632982,,,,,,,,,,,0.07127061486244202,1,0.05083206295967102,1,0.02352326549589634,1
1.649586916,0.005,-0.004450421780347824,-0.02418989129364491,-0.9962835907936096,-0.0001217637618537992,-3.026746344403364e-05,-0.004976651631295681,8.418275569965772e-07,1.817062639020151e-06,-8.092541975202039e-06,,,,,,
1.650615811,,,,,,,,,,,0.06954656541347504,1,0.03686978667974472,1,0.03131891041994095,1
1.654492974,0.005,-0.005032704211771488,-0.02452921867370605,-0.9961508512496948,-0.0001249837514478713,-2.933343603217509e-05,-0.004979459103196859,-1.746193902363302e-06,5.325865458871704e-06,-4.367448582343059e-06,,,,,,
1.655593991,,,,,,,,,,,0.06619930267333984,1,0.03115454874932766,1,0.03262119367718697,1
1.659377098,0.005,-0.005751785356551409,-0.02440188266336918,-0.9960358738899231,-0.0001211387134389952,-3.279710654169321e-05,-0.004980646073818207,7.944783646962605e-06,5.521048933587736e-07,2.482049694663147e-07,,,,,,
1.660568118,,,,,,,,,,,0.06741931289434433,1,0.02412287145853043,1,0.03374907001852989,1
1.664239407,0.005,-0.006542420014739037,-0.02495995722711086,-0.9940627813339233,-0.000128119412693195,-3.695979103213176e-05,-0.004958664067089558,4.227718818583526e-06,-5.129535111336736e-06,-3.349369535499136e-06,,,,,,
1.665537238,,,,,,,,,,,0.06194071844220161,1,0.01641198620200157,1,0.05309891328215599,1
1.669078469,0.005,-0.008238334208726883,-0.02537347376346588,-0.9935151338577271,-0.0001293388340855017,-5.107303877593949e-05,-0.004963196814060211,-1.432216436114686e-06,-7.722064765403047e-07,-1.070969688043988e-06,,,,,,
1.670501947,,,,,,,,,,,0.05789198726415634,1,-0.0001919867936521769,1,0.05846943333745003,1
1.673900843,0.005,-0.009242614731192589,-0.02541586384177208,-0.9954391717910767,-0.0001272440567845479,-5.256075382931158e-05,-0.004988432861864567,-4.518511104834033e-06,-8.204957566704252e-07,-1.468957179895369e-06,,,,,,
1.675464392,,,,,,,,,,,0.05748529732227325,1,-0.01003912836313248,1,0.03960068896412849,1
1.678791881,0.005,-0.009574963711202145,-0.02596063353121281,-0.9963739514350891,-0.0001329596125287935,-5.001975659979507e-05,-0.004988191183656454,7.58414353185799e-06,1.070531311597733e-06,-4.678286131820641e-07,,,,,,
1.680506349,,,,,,,,,,,0.05214742571115494,1,-0.01328708976507187,1,0.03043354861438274,1
1.683994889,0.005,-0.009359481744468212,-0.02637418545782566,-0.9964341521263123,-0.0001344327756669372,-4.593440462485887e-05,-0.00498303072527051,5.853214020135056e-07,1.066650497705268e-06,1.179635091830278e-06,,,,,,
1.685543656,,,,,,,,,,,0.04808592051267624,1,-0.01114466600120068,1,0.02984334714710712,1
1.689174533,0.005,-0.008833613246679306,-0.02655756287276745,-0.9956194162368774,-0.0001341794850304723,-4.104174513486214e-05,-0.004973500035703182,-2.699673814277048e-06,-8.596948077865818e-07,5.544874056795379e-06,,,,,,
1.690576434,,,,,,,,,,,0.0462786853313446,1,-0.005984523333609104,1,0.03783266991376877,1
1.694330931,0.005,-0.008344819769263268,-0.02580980025231838,-0.9955980181694031,-0.0001253314840141684,-4.003744106739759e-05,-0.004977467469871044,-3.60896524398413e-06,2.186037363571813e-06,3.779262897296576e-06,,,,,,
1.695604682,,,,,,,,,,,0.05349688604474068,1,-0.001237365417182446,1,0.03804652020335197,1
1.699468851,0.005,-0.005764658097177744,-0.0238115880638361,-0.9954529404640198,-0.0001075266700354405,-1.224839070346206e-05,-0.004976871889084578,-3.879844371112995e-06,1.58577836373297e-06,3.679040219140006e-06,,,,,,
1.700629234,,,,,,,,,,,0.07298977673053741,1,0.02400668151676655,1,0.03947269544005394,1
1.704582930,0.005,-0.006987235508859158,-0.02333048358559608,-0.9912170767784119,-0.0001122823377954774,-4.136726420256309e-05,-0.004932371433824301,9.84002781478921e-06,-8.137688382703345e-06,4.549656296148896e-06,,,,,,
1.705648899,,,,,,,,,,,0.07767985016107559,1,0.01201858371496201,1,0.08101397007703781,1
1.709673524,0.005,-0.007655586581677198,-0.02511597238481045,-0.991503119468689,-0.0001365912321489304,-4.343849650467746e-05,-0.004953002091497183,-1.610486833669711e-05,9.03492582438048e-06,-3.718944299180293e-06,,,,,,
1.710664153,,,,,,,,,,,0.06014982610940933,1,0.005443243309855461,1,0.07820892333984375,1
1.714739680,0.005,-0.007552831899374723,-0.02213578298687935,-1.001603484153748,-9.417660476174206e-05,-3.70469169865828e-05,-0.005068252794444561,-1.583956509421114e-05,2.666746331669856e-05,-6.201474207045976e-06,,,,,,
1.715674639,,,,,,,,,,,0.0892520472407341,1,0.006350813899189234,1,-0.02083702757954597,1
1.719781637,0.005,-0.007493914104998112,-0.0225609615445137,-1.001891493797302,-0.0001125539420172572,-3.74612609448377e-05,-0.005017545074224472,1.7889298760565e-05,-1.470730239816476e-05,5.118905846757116e-06,,,,,,
1.720680475,,,,,,,,,,,0.08501042425632477,1,0.006899253465235233,1,-0.02365883439779282,1
1.724800825,0.005,-0.009301238693296909,-0.02608981728553772,-0.9932560324668884,-0.0001516568008810282,-5.653035259456374e-05,-0.004915033932775259,1.833903115766589e-05,-1.654850711929612e-05,-1.324991103501816e-06,,,,,,
1.725681663,,,,,,,,,,,0.0504491925239563,1,-0.01073422841727734,1,0.06102373823523521,1
1.729797602,0.005,-0.01088628731667995,-0.02737540006637573,-0.9921126365661621,-0.0001457492326153442,-6.556224980158731e-05,-0.004949602298438549,-1.737755155772902e-05,7.965390068420675e-06,-5.829054771311348e-06,,,,,,
1.730678320,,,,,,,,,,,0.03786961734294891,1,-0.02625398710370064,1,0.07223492860794067,1
1.734770417,0.005,-0.008578438311815262,-0.02634390629827976,-0.9952655434608459,-0.0001257412077393383,-2.960790880024433e-05,-0.004995427094399929,-9.013881935970858e-06,1.265148512175074e-05,7.81944709160598e-06,,,,,,
1.735670328,,,,,,,,,,,0.04794290289282799,1,-0.003674526698887348,1,0.04131712764501572,1
1.739720225,0.005,-0.009245059452950954,-0.02743526734411716,-0.9957900047302246,-0.0001420377229806036,-4.859964610659517e-05,-0.004983154125511646,9.329110071121249e-06,-1.046175475494238e-05,-1.086829979612958e-05,,,,,,
1.740657687,,,,,,,,,,,0.03722157701849937,1,-0.01022039912641048,1,0.03617444261908531,1
1.744646668,0.005,-0.01022386085242033,-0.0292790774255991,-0.9959651827812195,-0.0001581839605933055,-5.827196946484037e-05,-0.004980302415788174,9.265862104257394e-07,-3.017883955180878e-06,-5.433162186818663e-06,,,,,,
1.745640159,,,,,,,,,,,0.01916271075606346,1,-0.01979647949337959,1,0.03445605933666229,1
1.749550343,0.005,-0.008701206184923649,-0.02819349057972431,-0.9965550303459167,-0.0001351988757960498,-3.464410110609606e-05,-0.004986294079571962,-4.507769972406095e-06,-2.757898755589849e-06,5.56193015199824e-07,,,,,,
1.750618577,,,,,,,,,,,0.02982032857835293,1,-0.004859959241002798,1,0.02867155894637108,1
1.754433751,0.005,-0.006951842457056046,-0.02909715101122856,-0.9981384873390198,-0.0001499041391070932,-2.483853313606232e-05,-0.005001084413379431,-4.187106696917908e-06,-1.624748438189272e-05,-1.47286145875114e-05,,,,,,
1.755592227,,,,,,,,,,,0.02102700993418694,1,0.01227831561118364,1,0.01314135733991861,1
1.759294152,0.005,-0.005475711077451706,-0.0288823377341032,-0.9951674938201904,-0.0001440550549887121,-1.796223114070017e-05,-0.004959323909133673,1.556508095745812e-06,-4.461562923552265e-07,2.620006966935762e-07,,,,,,
1.760561466,,,,,,,,,,,0.02319011278450489,1,0.02674637734889984,1,0.04227539896965027,1
1.764131784,0.005,-0.003298728028312325,-0.02865399979054928,-0.9932858347892761,-0.0001408224634360522,-3.846947493002517e-06,-0.004953260533511639,-1.219757564285828e-06,-1.104244074667804e-05,8.979050107882358e-06,,,,,,
1.765525818,,,,,,,,,,,0.02548692189157009,1,0.0480964407324791,1,0.06072638928890228,1
1.768946409,0.005,-0.002224623458459973,-0.03058304637670517,-0.9949964284896851,-0.000164738274179399,-3.631716481322655e-06,-0.004984293598681688,-2.124256525348756e-06,-3.741576392712886e-06,-6.93574577326217e-07,,,,,,
1.770485520,,,,,,,,,,,0.006636148318648338,1,0.0586143396794796,1,0.04394930228590965,1
1.773825288,0.005,-0.003331487067043781,-0.02958041615784168,-0.9955055713653564,-0.0001434066361980513,-2.296405909874011e-05,-0.004982122220098972,-1.876890451057989e-06,6.865294380986597e-06,1.989623569897958e-06,,,,,,
1.775527477,,,,,,,,,,,0.01648822613060474,1,0.04774722829461098,1,0.03895507752895355,1
1.779028535,0.005,-0.00362189719453454,-0.02909964881837368,-0.9948887825012207,-0.0001411605335306376,-1.953388527908828e-05,-0.004970265552401543,-6.662244686594931e-06,2.604659812277532e-06,2.098154936902574e-06,,,,,,
1.780564785,,,,,,,,,,,0.02118422836065292,1,0.04487431049346924,1,0.04500464722514153,1
1.784208417,0.005,-0.00460014957934618,-0.03008452244102955,-0.9964852929115295,-0.0001569719897815958,-2.886581023631152e-05,-0.004990893881767988,-8.707207598490641e-06,2.336449682616148e-07,-1.446359419787768e-06,,,,,,
1.785597444,,,,,,,,,,,0.01152332313358784,1,0.03522782772779465,1,0.02934933826327324,1
1.789364219,0.005,-0.005298337899148464,-0.02885549142956734,-0.9968658089637756,-0.0001373541308566928,-3.094663043157198e-05,-0.004988422617316246,5.847492047905689e-06,4.67185782326851e-06,2.003623421842349e-06,,,,,,
1.790625572,,,,,,,,,,,0.02354782447218895,1,0.02836037985980511,1,0.0256184171885252,1
1.794497013,0.005,-0.007008257322013378,-0.0288701243698597,-0.994706392288208,-0.0001424489601049572,-4.324990368331783e-05,-0.004960661754012108,4.007883944723289e-06,-9.100132956518792e-06,-1.470144866289047e-06,,,,,,
1.795650005,,,,,,,,,,,0.02340816520154476,1,0.01160391233861446,1,0.04679488018155098,1
1.799610853,0.005,-0.008004666306078434,-0.03112836368381977,-0.9956758618354797,-0.0001693849626462907,-4.785178680322133e-05,-0.004981939680874348,-1.287712279918196e-06,-1.091815875042812e-06,-1.071276074071648e-06,,,,,,
1.800669909,,,,,,,,,,,0.001296169124543667,1,0.001849258900620043,1,0.03728676959872246,1
1.804701924,0.005,-0.007659869734197855,-0.0296041015535593,-0.997468113899231,-0.0001403381611453369,-3.646065306384116e-05,-0.00500033050775528,4.623475433618296e-06,7.406063105008798e-06,1.529221549390058e-06,,,,,,
1.805685520,,,,,,,,,,,0.01621825993061066,1,0.005232466850429773,1,0.01971128955483437,1
1.809771299,0.005,-0.009489601477980614,-0.03010786138474941,-0.9925112128257751,-0.0001515407057013363,-5.694011269952171e-05,-0.004931735340505838,1.088341105059953e-05,-1.403463284077588e-05,-5.009148935641861e-07,,,,,,
1.810696483,,,,,,,,,,,0.01129814237356186,1,-0.01265516504645348,1,0.06832079589366913,1
1.814817071,0.005,-0.009714843705296516,-0.03175066411495209,-0.9949743151664734,-0.0001696478429948911,-5.238285302766599e-05,-0.004988785833120346,-1.787425026122946e-05,4.39169343735557e-06,-4.115850515518105e-06,,,,,,
1.815703034,,,,,,,,,,,-0.004775042179971933,1,-0.01486657559871674,1,0.04416503757238388,1
1.819838762,0.005,-0.009665491059422493,-0.02876542694866657,-0.9987155199050903,-0.0001261391880689189,-4.648435788112693e-05,-0.005014796275645494,1.741038090585789e-06,1.142264409281779e-05,1.901358132272435e-06,,,,,,
1.820704818,,,,,,,,,,,0.02445399016141891,1,-0.01441818848252296,1,0.007478135637938976,1
1.824840188,0.005,-0.008868402801454067,-0.0300229899585247,-0.9968867897987366,-0.0001571927132317796,-4.0066683141049e-05,-0.004977278411388397,6.059103270672495e-06,-1.27063558466034e-05,4.654183612728957e-06,,,,,,
1.825702429,,,,,,,,,,,0.01212931144982576,1,-0.006587631534785032,1,0.02541134878993034,1
1.829818130,0.005,-0.00952544528990984,-0.03131795674562454,-0.9937933087348938,-0.0001644421136006713,-5.11145408381708e-05,-0.004948250483721495,6.192948148964206e-06,-2.847356654456235e-06,-7.15536089046509e-06,,,,,,
1.830695391,,,,,,,,,,,-0.0005392441526055336,1,-0.01299102976918221,1,0.05574667453765869,1
1.834773779,0.005,-0.007896621711552143,-0.02964208461344242,-0.9946194291114807,-0.0001399184257024899,-3.114264836767688e-05,-0.004977561999112368,-8.630273441667669e-06,8.439532393822446e-06,7.192175871750806e-06,,,,,,
1.835683584,,,,,,,,,,,0.01588777080178261,1,0.002988894004374743,1,0.04764517396688461,1
1.839706063,0.005,-0.005815188866108656,-0.0285505224019289,-0.9950273036956787,-0.0001342246541753411,-1.54978915816173e-05,-0.004977879114449024,-2.774490212686942e-06,-1.317775877396343e-05,1.569402115819685e-06,,,,,,
1.840667129,,,,,,,,,,,0.02660880610346794,1,0.02337327785789967,1,0.04364480450749397,1
1.844614625,0.005,-0.006448754109442234,-0.02983750961720943,-0.9966355562210083,-0.000156741967657581,-3.602047945605591e-05,-0.00499196769669652,4.687850378104486e-06,-7.934185305202845e-06,-6.151004981802544e-06,,,,,,
1.845645785,,,,,,,,,,,0.01404806599020958,1,0.01717041805386543,1,0.02787104249000549,1
1.849501729,0.005,-0.006234025117009878,-0.02924168109893799,-0.994983434677124,-0.0001441728818463162,-2.918870086432435e-05,-0.004966476000845432,4.664608241000678e-06,6.308835963864112e-06,6.037662387825549e-06,,,,,,
1.850620389,,,,,,,,,,,0.01990603841841221,1,0.01928719133138657,1,0.04407304897904396,1
1.854367018,0.005,-0.007967827841639519,-0.02988871373236179,-0.9955076575279236,-0.0001511789741925895,-5.036392758483998e-05,-0.004978553391993046,-1.728344841467333e-06,-4.793032076122472e-06,-3.365401198607287e-06,,,,,,
1.855590343,,,,,,,,,,,0.01357691921293736,1,0.002314335666596889,1,0.03893174603581429,1
1.859209180,0.005,-0.00761147728189826,-0.02969494089484215,-0.9963285326957703,-0.0001497564662713557,-3.595111047616228e-05,-0.004988234955817461,-7.904978701844811e-06,1.330979739577742e-05,-5.399585006671259e-06,,,,,,
1.860555530,,,,,,,,,,,0.01545839756727219,1,0.0057858363725245,1,0.0308817345649004,1
1.864028692,0.005,-0.008446217514574528,-0.02761441096663475,-0.9955637454986572,-0.0001247674808837473,-4.721168807009235e-05,-0.00497282762080431,3.603072627811343e-06,1.09832235466456e-05,-1.993513478737441e-06,,,,,,
1.865516067,,,,,,,,,,,0.03578201308846474,1,-0.002398151904344559,1,0.03838473185896873,1
1.868825316,0.005,-0.007613246329128742,-0.02740708738565445,-0.9947506785392761,-0.0001348810037598014,-3.359328184160404e-05,-0.004969356581568718,-5.073743977845879e-06,-4.771225576405413e-06,-5.312814664648613e-06,,,,,,
1.870558262,,,,,,,,,,,0.03777658939361572,1,0.005756950471550226,1,0.04635923355817795,1
1.874030590,0.005,-0.00822755042463541,-0.0279216505587101,-0.9953045248985291,-0.0001438526669517159,-4.379261736175977e-05,-0.004978446289896965,1.54424888023641e-05,9.438182360099745e-07,-2.619821998450789e-06,,,,,,
1.875596046,,,,,,,,,,,0.03271685913205147,1,-0.000232982449233532,1,0.04092780500650406,1
1.879212499,0.005,-0.00789822731167078,-0.0270678885281086,-0.9944468140602112,-0.0001297002891078591,-3.879829819197766e-05,-0.004969396628439426,-1.298195229537669e-06,-7.561072834505467e-06,1.275577005799278e-06,,,,,,
1.880628943,,,,,,,,,,,0.04108335077762604,1,0.003039538161829114,1,0.04933935403823853,1
1.884371400,0.005,-0.007905122824013233,-0.02789238467812538,-0.9947481155395508,-0.0001440760242985561,-3.907418431481346e-05,-0.004973695613443851,-4.655049451685045e-06,-1.359584348392673e-05,-1.747423198139586e-06,,,,,,
1.885657907,,,,,,,,,,,0.03305916860699654,1,0.002976726973429322,1,0.04638265818357468,1
1.889507532,0.005,-0.006399130448698997,-0.02814343199133873,-0.9962817430496216,-0.0001432202843716368,-2.394729017396457e-05,-0.004991048481315374,-4.236129825585522e-06,2.228884795840713e-06,4.630890998669202e-06,,,,,,
1.890682340,,,,,,,,,,,0.03064271435141563,1,0.01772800832986832,1,0.03134149685502052,1
1.894619942,0.005,-0.005841905251145363,-0.02695517800748348,-0.9966772198677063,-0.0001269147760467604,-2.529578523535747e-05,-0.004986485932022333,8.142435035551898e-06,-5.524310836335644e-06,5.416977728600614e-06,,,,,,
1.895702004,,,,,,,,,,,0.04223854839801788,1,0.02317801117897034,1,0.02746544778347015,1
1.899709463,0.005,-0.006041163112968206,-0.02791463397443295,-0.9953985810279846,-0.0001448529947083443,-3.147879397147335e-05,-0.004969438537955284,-3.718060725077521e-06,-7.043202913337154e-06,1.430984184480621e-06,,,,,,
1.900717020,,,,,,,,,,,0.03281455114483833,1,0.0212214607745409,1,0.04000481590628624,1
