FILE_INFO
ListSeparator=,
DecimalSeparator=.

SESSION_INFO
TimeZone,UTC
TimeZoneOffset,0
DateTimeFormat,MM/DD/YY h:mm:ss.nnnnnnnnn
StartTime,01/01/70 00:00:00.000000000
TimeFormat,Relative

DEVICE_INFO
Address,*

CHANNEL_INFO
Channel,Type,SampleRate,Equation,Coefficients,Unit,UnitSymbol,WhereApplied,WhenApplied
inertial-6286.188861:timeInfo_deltaTime_ahrsImu,Timeseries,200Hz,,,,,,
inertial-6286.188861:scaledAccelY,Timeseries,200Hz,,,,,,
inertial-6286.188861:scaledAccelX,Timeseries,200Hz,,,,,,
inertial-6286.188861:scaledAccelZ,Timeseries,200Hz,,,,,,
inertial-6286.188861:deltaVelX,Timeseries,200Hz,,,,,,
inertial-6286.188861:deltaVelY,Timeseries,200Hz,,,,,,
inertial-6286.188861:deltaVelZ,Timeseries,200Hz,,,,,,
inertial-6286.188861:deltaThetaX,Timeseries,200Hz,,,,,,
inertial-6286.188861:deltaThetaY,Timeseries,200Hz,,,,,,
inertial-6286.188861:deltaThetaZ,Timeseries,200Hz,,,,,,
inertial-6286.188861:estLinearAccelX,Timeseries,200Hz,,,,,,
inertial-6286.188861:estLinearAccelX:valid,ValidFlag,200Hz,,,,,,
inertial-6286.188861:estLinearAccelY,Timeseries,200Hz,,,,,,
inertial-6286.188861:estLinearAccelY:valid,ValidFlag,200Hz,,,,,,
inertial-6286.188861:estLinearAccelZ,Timeseries,200Hz,,,,,,
inertial-6286.188861:estLinearAccelZ:valid,ValidFlag,200Hz,,,,,,

DATA_START
Time,inertial-6286.188861:timeInfo_deltaTime_ahrsImu,inertial-6286.188861:scaledAccelY,inertial-6286.188861:scaledAccelX,inertial-6286.188861:scaledAccelZ,inertial-6286.188861:deltaVelX,inertial-6286.188861:deltaVelY,inertial-6286.188861:deltaVelZ,inertial-6286.188861:deltaThetaX,inertial-6286.188861:deltaThetaY,inertial-6286.188861:deltaThetaZ,inertial-6286.188861:estLinearAccelX,inertial-6286.188861:estLinearAccelX:valid,inertial-6286.188861:estLinearAccelY,inertial-6286.188861:estLinearAccelY:valid,inertial-6286.188861:estLinearAccelZ,inertial-6286.188861:estLinearAccelZ:valid
0.000000000,0.005,0.0008413102477788925,-0.1396324336528778,-1.171753168106079,-0.001491767121478915,0.0006751053733751178,-0.007432537619024515,-0.001378026907332242,0.0004315251717343926,-0.0001476931793149561,,,,,,
0.001199616,,,,,,,,,,,-1.025821328163147,1,0.153526782989502,1,-1.691417813301086,1
0.005148928,0.005,0.07661439478397369,-0.01299719884991646,-1.122269153594971,0.0005278161261230707,0.0009251509327441454,-0.005584721453487873,0.0001910071587190032,0.001493329997174442,-0.000121991804917343,,,,,,
0.006226688,,,,,,,,,,,0.2109594345092773,1,0.8913388252258301,1,-1.205894470214844,1
0.010278656,0.005,-0.0756620466709137,0.104116678237915,-1.057933330535889,0.00140990293584764,-0.001391345518641174,-0.004958264995366335,5.712667916668579e-05,-0.00119741540402174,-0.0008172515081241727,,,,,,
0.011249664,,,,,,,,,,,1.35727870464325,1,-0.6023654937744141,1,-0.5748928785324097,1
0.015384576,0.005,0.02248713746666908,-0.08544518798589706,-0.8787854313850403,-0.001656049629673362,0.000773065141402185,-0.003112940350547433,-0.0004531770246103406,-0.000839838816318661,-0.0002409238659311086,,,,,,
0.016268289,,,,,,,,,,,-0.4971543550491333,1,0.357206255197525,1,1.181832790374756,1
0.020467456,0.005,-0.002517791464924812,-0.05600887909531593,-1.039945840835571,-0.000343177089234814,-0.000318736070767045,-0.006480577401816845,-0.0004083516250830144,0.0009863278828561306,-1.082835387933301e-05,,,,,,
0.021282304,,,,,,,,,,,-0.208231508731842,1,0.1090429276227951,1,-0.398579329252243,1
0.025527040,0.005,-0.06285139918327332,0.1322543323040009,-0.9695804119110107,0.001948217046447098,-0.000564887304790318,-0.004257506225258112,0.0006235722685232759,-0.001529057044535875,-0.0002317170292371884,,,,,,
0.026291456,,,,,,,,,,,1.639678359031677,1,-0.4831043779850006,1,0.2914190590381622,1
0.030564096,0.005,-0.04902395233511925,-0.1657263338565826,-0.7340366840362549,-0.002543532755225897,-0.0002863253466784954,-0.002532729180529714,-7.640034891664982e-05,-0.001257033785805106,-0.0002388581488048658,,,,,,
0.031296257,,,,,,,,,,,-1.27332067489624,1,-0.3469075262546539,1,2.60097599029541,1
0.035578366,0.005,-0.1283945739269257,-0.2130639553070068,-1.078470230102539,-0.001482953783124685,-0.001112968777306378,-0.006888424511998892,-0.0007199457613751292,0.002126584993675351,-5.440385211841203e-05,,,,,,
0.036296450,,,,,,,,,,,-1.737118244171143,1,-1.126028299331665,1,-0.7767659425735474,1
0.040569600,0.005,0.116432324051857,0.005807168781757355,-1.181917786598206,0.001271500485017896,0.002054624259471893,-0.006745449267327785,-0.000828487565740943,0.001823067083023489,-0.0003983260539826006,,,,,,
0.041292287,,,,,,,,,,,0.3997185230255127,1,1.26863431930542,1,-1.79082465171814,1
0.045537282,0.005,0.008343981578946114,0.02441704832017422,-1.230669736862183,0.0004677306569647044,-0.0006636331090703607,-0.006545035634189844,0.0002690498367883265,-0.0005508301546797156,-0.0005518558318726718,,,,,,
0.046283264,,,,,,,,,,,0.5760917663574219,1,0.206759586930275,1,-2.268678665161133,1
0.050481409,0.005,0.003830131143331528,0.03304148092865944,-0.7969185709953308,0.0001838203461375087,0.0001861767377704382,-0.001186811248771846,0.0006209666025824845,-0.0005192513926886022,-0.0004325410700403154,,,,,,
0.051269632,,,,,,,,,,,0.6595314145088196,1,0.1625758707523346,1,1.98500919342041,1
0.055401985,0.005,-0.101726695895195,-0.1131722331047058,-0.8480151891708374,-0.001334315165877342,-0.001341461786068976,-0.004577081650495529,-0.0008005271665751934,-0.0007795452838763595,-0.0004063458181917667,,,,,,
0.056251135,,,,,,,,,,,-0.7711523771286011,1,-0.8726544380187988,1,1.483814477920532,1
0.060300544,0.005,0.008469938300549984,-0.09390636533498764,-1.09505820274353,-0.0004894079174846411,0.0007529245922341943,-0.006709990091621876,-0.0008135471143759787,0.001170206465758383,0.0001438195613445714,,,,,,
0.061228544,,,,,,,,,,,-0.5828491449356079,1,0.2036656141281128,1,-0.9387726187705994,1
0.065177858,0.005,0.1814592778682709,0.04886875301599503,-1.046419262886047,0.0009519818122498691,0.001944908406585455,-0.005376596469432116,3.544797073118389e-05,0.001235797419212759,-4.748610444949009e-05,,,,,,
0.066201091,,,,,,,,,,,0.8111218214035034,1,1.895529508590698,1,-0.4615241885185242,1
0.070032895,0.005,-0.02502153068780899,0.1382654756307602,-0.8276528120040894,0.001434401725418866,-0.001326758763752878,-0.002789324149489403,0.0009748140582814813,-0.001886172220110893,-0.000593824777752161,,,,,,
0.071169026,,,,,,,,,,,1.686959028244019,1,-0.1270759403705597,1,1.683844566345215,1
0.074865155,0.005,-0.05576484650373459,-0.1687362790107727,-0.6496429443359375,-0.002743011806160212,-0.0005376292392611504,-0.002077987184748054,-0.0004668425535783172,-0.001213755458593369,-0.0002458775998093188,,,,,,
0.076132610,,,,,,,,,,,-1.315438151359558,1,-0.4281881153583527,1,3.429236173629761,1
0.079684608,0.005,-0.06421516835689545,-0.1425966024398804,-1.132099390029907,-0.0006183300283737481,-0.0004499854403547943,-0.008450498804450035,-0.0008222999167628586,0.001656281179748476,0.0001598004746483639,,,,,,
0.081094652,,,,,,,,,,,-1.058339834213257,1,-0.5132015347480774,1,-1.302043318748474,1
0.084572420,0.005,0.04927041009068489,0.01960685290396214,-1.14216685295105,0.001043543103151023,0.001016102498397231,-0.005991363897919655,0.0005486717564053833,0.001171462005004287,-0.0002504517615307122,,,,,,
0.086135805,,,,,,,,,,,0.5257598757743835,1,0.5976620316505432,1,-1.400522589683533,1
0.089771517,0.005,-0.02417023479938507,-0.0356830358505249,-1.172358274459839,-0.0005084730219095945,-0.0006887470954097807,-0.006099737714976072,0.000425122503656894,-6.677663623122498e-05,-0.0004799157322850078,,,,,,
0.091172099,,,,,,,,,,,-0.02079582959413528,1,-0.1202215254306793,1,-1.696479558944702,1
0.094945535,0.005,-0.04958713799715042,0.0631270706653595,-0.936701774597168,0.000888664391823113,-0.000311088835587725,-0.003308511571958661,0.0008250298560597003,-0.0002588266797829419,-0.0005899769021198153,,,,,,
0.096203774,,,,,,,,,,,0.9459909796714783,1,-0.3653708696365356,1,0.6145466566085815,1
0.100097284,0.005,-0.1124978885054588,0.009371673688292503,-0.6912357211112976,-0.0001899566123029217,-0.001067778095602989,-0.001940159010700881,0.0002490768383722752,-0.00119303329847753,-0.0004697434778790921,,,,,,
0.101231359,,,,,,,,,,,0.4219433069229126,1,-0.9775420427322388,1,3.021581411361694,1
0.105225727,0.005,-0.1212490499019623,-0.03009252622723579,-0.9520828127861023,-0.0002948269539047033,-0.0005896706134080887,-0.005975948646664619,-0.0001092065213015303,-0.0008925283909775317,6.271392339840531e-05,,,,,,
0.106254339,,,,,,,,,,,0.04092645645141602,1,-1.061270833015442,1,0.4633138179779053,1
0.110330366,0.005,-0.07114067673683167,-0.1322037428617477,-1.018082618713379,-0.001321841380558908,-4.499094211496413e-05,-0.005735686048865318,0.0004298400308471173,0.0006181572680361569,4.404223545861896e-06,,,,,,
0.111272708,,,,,,,,,,,-0.9565944075584412,1,-0.5680981874465942,1,-0.1840774118900299,1
0.115411967,0.005,-0.1558678597211838,-0.104577548801899,-1.314158082008362,-0.0004277114639990032,-0.001381104229949415,-0.00842150766402483,-0.0001441044296370819,0.002025381429120898,-0.0007436819141730666,,,,,,
0.116286211,,,,,,,,,,,-0.6912517547607422,1,-1.396461725234985,1,-3.087430477142334,1
0.120469756,0.005,-0.00654226541519165,0.01017092168331146,-1.393751382827759,0.0006979158497415483,0.0008140885038301349,-0.00734686991199851,-0.001230687485076487,0.0001428878458682448,-0.0005076488014310598,,,,,,
0.121295102,,,,,,,,,,,0.4262956380844116,1,0.06556373834609985,1,-3.867681980133057,1
0.125505030,0.005,0.2888231575489044,-0.01326494291424751,-1.425845623016357,-0.0004024191584903747,0.003177100094035268,-0.007950936444103718,-0.0007977602072060108,-0.0002578577841632068,0.0003303293196950108,,,,,,
0.126299649,,,,,,,,,,,0.1945509016513824,1,2.954661130905151,1,-4.182260036468506,1
0.130517498,0.005,-0.1872727572917938,0.1953968703746796,-0.9731780290603638,0.002584827831014991,-0.003390649799257517,-0.001720542088150978,0.002199171343818307,-0.003462617052718997,-0.0005769534618593752,,,,,,
0.131299585,,,,,,,,,,,2.247520446777344,1,-1.710081219673157,1,0.2566118836402893,1
0.135506690,0.005,0.003404445946216583,-0.1456494331359863,-0.5079720616340637,-0.002716105664148927,0.0005925429868511856,-0.0001312053063884377,-0.002289979718625546,-0.002511822618544102,-0.0007973329047672451,,,,,,
0.136294916,,,,,,,,,,,-1.077418088912964,1,0.1560966968536377,1,4.818068504333496,1
0.140472576,0.005,0.07698287814855576,-0.06939315050840378,-0.265111118555069,-0.0002152756205759943,0.0009847813053056598,0.0003147708775941283,0.002445670776069164,0.001211147289723158,0.0004965235129930079,,,,,,
0.141285375,,,,,,,,,,,-0.3201134204864502,1,0.8803439140319824,1,7.199349403381348,1
0.145416185,0.005,-0.06725991517305374,-0.1731579750776291,-0.9328508377075195,-0.00135841453447938,-0.001228904002346098,-0.008298732340335846,-0.0002296728198416531,0.001088572200387716,-0.0002265955263283104,,,,,,
0.146273792,,,,,,,,,,,-1.336135745048523,1,-0.5286096334457397,1,0.6509380340576172,1
0.150347769,0.005,-0.007497210055589676,-0.07122717797756195,-1.49441933631897,0.0004339194274507463,0.0004157574730925262,-0.01095929741859436,-0.0003073998959735036,0.00212671747431159,-0.0005025812424719334,,,,,,
0.151257351,,,,,,,,,,,-0.3448782861232758,1,0.05727878957986832,1,-4.85585880279541,1
0.155256569,0.005,-0.005682677030563354,0.2189874798059464,-1.159689426422119,0.002152378438040614,0.0004413596470840275,-0.003102498594671488,0.002967034000903368,0.002749006962403655,-0.0002544894814491272,,,,,,
0.156236291,,,,,,,,,,,2.484188079833984,1,0.08401775360107422,1,-1.57282543182373,1
0.160142332,0.005,0.02750527299940586,-0.0035286545753479,-1.21028470993042,-0.0006249175639823079,9.331190085504204e-05,-0.006829472724348307,-0.00151463970541954,-0.003834419883787632,-0.0005866611027158797,,,,,,
0.161210626,,,,,,,,,,,0.3015816211700439,1,0.4143824875354767,1,-2.069041013717651,1
0.165005311,0.005,-0.02209136635065079,0.001495316624641418,-0.9489380121231079,-0.0003952105762436986,-0.0005129434284754097,-0.003685757983475924,0.000907416339032352,0.000702340854331851,-0.0002258214371977374,,,,,,
0.166180357,,,,,,,,,,,0.3533980846405029,1,-0.0683627724647522,1,0.4937620162963867,1
0.169845507,0.005,-0.1291158944368362,0.194989949464798,-1.001752614974976,0.002364387968555093,-0.001166775124147534,-0.004599752835929394,-0.000264730624621734,-0.00190427852794528,-0.0005064312135800719,,,,,,
0.171145216,,,,,,,,,,,2.2559654712677,1,-1.115278124809265,1,-0.0243837833404541,1
0.174663424,0.005,0.1083029881119728,-0.2560833394527435,-0.9463158845901489,-0.003989791497588158,0.001977295149117708,-0.004754812456667423,-0.000181313807843253,-0.0005196359124965966,0.0001422659261152148,,,,,,
0.176105723,,,,,,,,,,,-2.157651662826538,1,1.211821317672729,1,0.518929123878479,1
0.179544061,0.005,-0.0154015626758337,-0.1032469645142555,-0.880795955657959,3.206060500815511e-05,-0.0007813374977558851,-0.004347392823547125,0.002116689225658774,0.003943835850805044,1.201697432406945e-05,,,,,,
0.181146875,,,,,,,,,,,-0.665231466293335,1,0.006335318088531494,1,1.161566019058228,1
0.184742406,0.005,-0.1869431883096695,0.07329961657524109,-0.877656102180481,0.001779258018359542,-0.001973296981304884,-0.003673458704724908,-0.0002927996392827481,-0.0002058250975096598,-0.001436298131011426,,,,,,
0.186183169,,,,,,,,,,,1.055208683013916,1,-1.668570637702942,1,1.192612886428833,1
0.189916164,0.005,0.1083794310688972,0.01605365425348282,-1.033230304718018,-0.0004591050965245813,0.002277262974530458,-0.006159942597150803,-0.002342684427276254,-0.0001284819591091946,-2.556312756496482e-05,,,,,,
0.191214845,,,,,,,,,,,0.4905660450458527,1,1.221588373184204,1,-0.3328333795070648,1
0.195065856,0.005,0.02717995643615723,0.04726960137486458,-1.587759971618652,0.0004958818317390978,-0.0002614261757116765,-0.01129092555493116,0.001196453813463449,-0.0004164141719229519,0.0004903654917143285,,,,,,
0.196242437,,,,,,,,,,,0.795126736164093,1,0.423397421836853,1,-5.770822048187256,1
0.200194567,0.005,0.04958837851881981,-0.001554360147565603,-1.409627676010132,-0.0002813936735037714,0.0002700313925743103,-0.006453867070376873,0.0001022561191348359,-0.0007656176458112895,-0.0001581938995514065,,,,,,
0.201265410,,,,,,,,,,,0.318926990032196,1,0.6437366008758545,1,-4.024035453796387,1
0.205300227,0.005,0.03620634227991104,-0.01678024418652058,-0.5324139595031738,-0.0001357212167931721,0.0002917959936894476,0.0026046356651932,0.001838257652707398,-0.0008333798032253981,-0.0003058752918150276,,,,,,
0.206283525,,,,,,,,,,,0.1739520132541656,1,0.5182168483734131,1,4.578248500823975,1
0.210381821,0.005,-0.2011527717113495,-0.05510896816849709,-0.7272282242774963,-0.0005439000087790191,-0.002680388977751136,-0.004494724795222282,-0.0009505451307632029,-0.0003094133862759918,-0.0004244091105647385,,,,,,
0.211297274,,,,,,,,,,,-0.1963738799095154,1,-1.804100513458252,1,2.667487859725952,1
0.215440124,0.005,0.01896055042743683,-0.1153262630105019,-1.015971064567566,-0.001035432098433375,0.001483315834775567,-0.00675450311973691,-0.0006676779012195766,0.00194483099039644,0.0001581891265232116,,,,,,
0.216306180,,,,,,,,,,,-0.7885363698005676,1,0.3504721820354462,1,-0.1639858484268188,1
0.220475644,0.005,0.0728500634431839,0.1103593185544014,-0.9397907853126526,0.002018761821091175,0.000661583268083632,-0.004528159741312265,0.0008370965952053666,0.001153650693595409,1.017205886455486e-05,,,,,,
0.221310467,,,,,,,,,,,1.415318965911865,1,0.8802079558372498,1,0.5833850502967834,1
0.225487873,0.005,-0.08262579888105392,-0.008924365043640137,-1.144093871116638,-0.0006480513256974518,-0.00137575960252434,-0.006912336219102144,-0.0001579615491209552,-0.001072588725946844,-0.0007006636005826294,,,,,,
0.226310402,,,,,,,,,,,0.2430620789527893,1,-0.6419880390167236,1,-1.420099139213562,1
0.230478331,0.005,0.05926908552646637,-0.1155286282300949,-1.058219194412231,-0.001320211915299296,0.001253787660971284,-0.004511669743806124,-0.0006525298813357949,0.00059290393255651,-0.0001781095052137971,,,,,,
0.231305987,,,,,,,,,,,-0.8031522631645203,1,0.7471109628677368,1,-0.577886700630188,1
0.235444739,0.005,-0.005453555379062891,0.1237636432051659,-1.141078948974609,0.002108533633872867,-0.0003932876279577613,-0.006297314539551735,0.0001882138312794268,7.579445082228631e-05,-4.505296601564623e-05,,,,,,
0.236296698,,,,,,,,,,,1.540321826934814,1,0.111735962331295,1,-1.390344619750977,1
0.240388095,0.005,-0.0776846781373024,0.06298332661390305,-0.7769550681114197,0.000214768631849438,-0.0007285588653758168,-0.00171362969558686,0.0007392182014882565,-0.002622464671730995,-3.795120210270397e-05,,,,,,
0.241282821,,,,,,,,,,,0.9503826498985291,1,-0.5948158502578735,1,2.180252552032471,1
0.245308667,0.005,-0.09320998191833496,-0.3329457938671112,-0.8081399202346802,-0.004098123870790005,-0.000638769764918834,-0.003913533873856068,-0.0006455403636209667,-3.926124918507412e-06,0.0004287058836780488,,,,,,
0.246264070,,,,,,,,,,,-2.922693967819214,1,-0.7466941475868225,1,1.874091267585754,1
0.250215679,0.005,0.05653896927833557,0.01665237545967102,-1.142401218414307,0.001796787139028311,0.001175806275568902,-0.008055762387812138,-2.048917622232693e-06,0.003590916050598025,-6.519600719911978e-05,,,,,,
0.251243263,,,,,,,,,,,0.4982024431228638,1,0.7200769186019897,1,-1.403604984283447,1
0.255102456,0.005,-0.1422707438468933,0.1309170126914978,-0.9572921991348267,0.001851209439337254,-0.001803316990844905,-0.003508496098220348,0.0007328582578338683,-0.001471728086471558,-0.0008687916561029851,,,,,,
0.256217867,,,,,,,,,,,1.612620115280151,1,-1.226885080337524,1,0.4118573069572449,1
0.259967744,0.005,0.09612664580345154,-0.1672403216362,-1.348949432373047,-0.002984297927469015,0.001566593651659787,-0.009163896553218365,-0.002740107709541917,0.0002514987136237323,0.0003140110347885638,,,,,,
0.261188090,,,,,,,,,,,-1.310551047325134,1,1.105195999145508,1,-3.428914546966553,1
0.264811009,0.005,0.1511599570512772,0.05662306770682335,-1.232830762863159,0.001634206506423652,0.001414644997566938,-0.005642612930387259,0.001195824472233653,0.0008445102139376104,0.0004820031463168561,,,,,,
0.266153485,,,,,,,,,,,0.880346417427063,1,1.639230251312256,1,-2.289938926696777,1
0.269632012,0.005,-0.05816753581166267,0.04571134597063065,-0.8416711091995239,0.0004294112150091678,-0.001673023565672338,-0.001751042786054313,-0.0004323354514781386,-0.002007702831178904,-0.0004583449044730514,,,,,,
0.271114498,,,,,,,,,,,0.775661289691925,1,-0.4131364226341248,1,1.545945167541504,1
0.274516225,0.005,0.07238402962684631,-0.09758180379867554,-0.7252734899520874,-0.00142258929554373,0.001174222445115447,-0.002850777935236692,-0.0009705218253657222,-0.0006055807461962104,0.0002766498946584761,,,,,,
0.276155919,,,,,,,,,,,-0.6222788691520691,1,0.8613845705986023,1,2.687258243560791,1
0.279717118,0.005,-0.05137531086802483,-0.08324810862541199,-0.89183509349823,-0.0002419022930553183,-0.0009663589298725128,-0.005242536310106516,-2.150196087313816e-05,0.0005584629252552986,0.0004267921904101968,,,,,,
0.281192690,,,,,,,,,,,-0.4788842797279358,1,-0.355551689863205,1,1.053802967071533,1
0.284893453,0.005,0.03507623448967934,-0.1045235693454742,-0.9972573518753052,-0.0006152907153591514,0.0007138377986848354,-0.005556974094361067,-0.000927266723010689,0.001041827374137938,0.0002105014573317021,,,,,,
0.286224633,,,,,,,,,,,-0.6896513104438782,1,0.4868915975093842,1,0.02011615037918091,1
0.290044427,0.005,0.09795344620943069,-0.05033830553293228,-0.9941478967666626,1.000933116301894e-05,0.0008855847408995032,-0.005212767515331507,5.989968121866696e-05,0.001578617608174682,0.0001224953157361597,,,,,,
0.291251957,,,,,,,,,,,-0.1666376888751984,1,1.09888231754303,1,0.05095413327217102,1
0.295170814,0.005,-0.118169903755188,0.05401827394962311,-1.041230320930481,0.001097625121474266,-0.001692817080765963,-0.005068541038781404,0.0001900219795061275,-0.0006141636986285448,-0.0004973391769453883,,,,,,
0.296274424,,,,,,,,,,,0.8505491018295288,1,-1.021117568016052,1,-0.4105528593063354,1
0.300277233,0.005,0.01568253710865974,-0.07117842137813568,-1.056735515594482,-0.001095096115022898,0.0007011577254161239,-0.005576084367930889,-0.001650240854360163,-0.0008478189120069146,2.545571260270663e-05,,,,,,
0.301292807,,,,,,,,,,,-0.3760557770729065,1,0.2859266400337219,1,-0.5625659227371216,1
0.305359364,0.005,0.05065549910068512,-0.07729621231555939,-1.054151773452759,-0.0005264992360025644,0.0005197996506467462,-0.005307635758072138,1.82551120815333e-05,0.0009893601527437568,0.0006475112168118358,,,,,,
0.306306571,,,,,,,,,,,-0.4368432462215424,1,0.6231793165206909,1,-0.537126898765564,1
0.310417414,0.005,-0.03180711716413498,0.1621405333280563,-0.8993275165557861,0.002318256767466664,-0.0005623097531497478,-0.003372305072844028,0.0001129186639445834,-0.0006539789610542357,-6.115046562626958e-05,,,,,,
0.311315447,,,,,,,,,,,1.909233450889587,1,-0.1876231729984283,1,0.9812753200531006,1
0.315451652,0.005,0.01153547503054142,-0.1073890775442123,-0.7369726896286011,-0.001931800972670317,0.0002129491767846048,-0.002897713799029589,-0.0004574572667479515,-0.002112640766426921,0.0002598804712761194,,,,,,
0.316319495,,,,,,,,,,,-0.7255155444145203,1,0.2341866791248322,1,2.573190212249756,1
0.320461571,0.005,-0.08707685023546219,-0.2537946105003357,-1.058949112892151,-0.002349556889384985,-0.0008647788781672716,-0.006528544705361128,4.834127321373671e-05,0.001654042978771031,0.0007066819234751165,,,,,,
0.321318924,,,,,,,,,,,-2.157952070236206,1,-0.7344955205917358,1,-0.5844089984893799,1
0.325448960,0.005,-0.0001239366829395294,-0.05787945538759232,-1.601206302642822,0.0007001269259490073,0.000332178664393723,-0.01176084578037262,-0.00125377404037863,0.002290966222062707,1.322318166785408e-05,,,,,,
0.326313466,,,,,,,,,,,-0.2455484867095947,1,0.1126099228858948,1,-5.901778697967529,1
0.330412030,0.005,-0.009402656927704811,0.01733800768852234,-1.395092964172363,0.0006797213573008776,4.84760821564123e-05,-0.005895775742828846,0.001460101339034736,-7.732988160569221e-05,4.331723630457418e-06,,,,,,
0.331303418,,,,,,,,,,,0.4840489625930786,1,0.0213397890329361,1,-3.880232334136963,1
0.335351557,0.005,-0.06738597899675369,0.08351955562829971,-0.6889381408691406,0.0008214442059397697,-0.0006538605084642768,0.0007714866660535336,0.000653150025755167,-0.0011649657972157,-0.000244740309426561,,,,,,
0.336288512,,,,,,,,,,,1.131694793701172,1,-0.5430510640144348,1,3.04477858543396,1
0.340267509,0.005,-0.1713892072439194,-0.04803378134965897,-0.6230378150939941,-0.001009214669466019,-0.001678404398262501,-0.002759094815701246,-0.001190050039440393,-0.001899243099614978,-1.903992233565077e-05,,,,,,
0.341268986,,,,,,,,,,,-0.1509301960468292,1,-1.562235593795776,1,3.690788984298706,1
0.345160186,0.005,-0.05382044240832329,-0.2182012796401978,-0.8908771276473999,-0.002460754476487637,0.0004872780409641564,-0.005779413040727377,-0.001032854896038771,0.001885363948531449,0.0007700459682382643,,,,,,
0.346244603,,,,,,,,,,,-1.816341876983643,1,-0.4148529171943665,1,1.06413722038269,1
0.350029826,0.005,0.1374521702528,0.07314765453338623,-1.075693011283875,0.002293364144861698,0.001866031903773546,-0.006695887073874474,-0.0008420716039836407,0.001664546667598188,0.0003828333574347198,,,,,,
0.351215631,,,,,,,,,,,1.031874299049377,1,1.453423142433167,1,-0.7479180097579956,1
0.354877710,0.005,0.07989500463008881,0.1129127219319344,-1.009278178215027,0.0007086185505613685,0.0002042009000433609,-0.004866526927798986,0.001088633784092963,1.765052388691402e-06,-0.0001703343878034502,,,,,,
0.356182277,,,,,,,,,,,1.414855003356934,1,0.8873741030693054,1,-0.09636950492858887,1
0.359702528,0.005,-0.04308205097913742,0.001078668981790543,-0.735132098197937,-0.0006118534947745502,-0.0009653809247538447,-0.001803264021873474,-0.0002143694582628086,-0.0008016788633540273,-0.0002447896986268461,,,,,,
0.361144066,,,,,,,,,,,0.3173954784870148,1,-0.3180758953094482,1,2.592107772827148,1
0.364504576,0.005,-0.02539046481251717,-0.02332883886992931,-0.9695031046867371,-0.0001813247363315895,-0.0001918245397973806,-0.006271333899348974,-0.001181343453936279,-0.0005816629272885621,0.0003040734445676208,,,,,,
0.366101235,,,,,,,,,,,0.08011068403720856,1,-0.148195743560791,1,0.2936869561672211,1
0.369373441,0.005,0.01519144885241985,-0.123599536716938,-1.300790548324585,-0.001267972402274609,0.0003418980049900711,-0.008405118249356747,-0.0001026566242217086,0.0005873626796528697,0.0008016428328119218,,,,,,
0.371143430,,,,,,,,,,,-0.901917040348053,1,0.2455153465270996,1,-2.955130338668823,1
0.374577671,0.005,0.0866965651512146,0.0110438484698534,-1.22075343132019,0.0007959693903103471,0.0008554338710382581,-0.00580925215035677,0.0003938326553907245,0.0009846292668953538,0.0002562550653237849,,,,,,
0.376181006,,,,,,,,,,,0.4142163693904877,1,0.944756031036377,1,-2.170079469680786,1
0.379758596,0.005,0.008261211216449738,0.07326843589544296,-0.8184669613838196,0.0008113610092550516,-0.0002933885552920401,-0.001688253367319703,0.00123988592531532,-0.0009092066902667284,-0.0002640192105900496,,,,,,
0.381213695,,,,,,,,,,,1.023357748985291,1,0.1791543066501617,1,1.775001287460327,1
0.384915978,0.005,-0.08375021070241928,-0.04471064731478691,-0.5414585471153259,-0.0007749883225187659,-0.001030559418722987,-0.0009351684711873531,-5.186716953176074e-05,-0.001186727895401418,-0.0003028498613275588,,,,,,
0.386241794,,,,,,,,,,,-0.1287997663021088,1,-0.7190898060798645,1,4.491331577301025,1
0.390049785,0.005,-0.04818447679281235,-0.03020255267620087,-0.8371734619140625,-0.000133599853143096,0.0001260451390407979,-0.005574296228587627,-0.0004328509385231882,-6.868295167805627e-05,0.0005049143801443279,,,,,,
0.391265541,,,,,,,,,,,0.01797245442867279,1,-0.3702945411205292,1,1.591215968132019,1
0.395159543,0.005,0.02001136541366577,-0.1455084383487701,-1.078647971153259,-0.001243981998413801,0.0003666780539788306,-0.007250773720443249,0.0003322592529002577,-0.0001891393912956119,0.0003207749978173524,,,,,,
0.396284401,,,,,,,,,,,-1.109337091445923,1,0.2993627488613129,1,-0.7769596576690674,1
0.400246531,0.005,-0.1304336041212082,-0.1147130504250526,-1.290111780166626,-0.0005902722477912903,-0.001420869841240346,-0.007487497292459011,0.0008024924318306148,0.001867005252279341,9.222212975146249e-05,,,,,,
0.401299208,,,,,,,,,,,-0.8106914758682251,1,-1.171905755996704,1,-2.850648164749146,1
0.405310720,0.005,0.04588959366083145,-0.06850459426641464,-1.375363349914551,-8.419698860961944e-05,0.0009846413740888238,-0.007581330835819244,-0.002076138043776155,0.0006330072064884007,-0.0004136793140787631,,,,,,
0.406309128,,,,,,,,,,,-0.3646037578582764,1,0.5543804168701172,1,-3.686427116394043,1
0.410351098,0.005,0.2366870045661926,0.009571731090545654,-1.485372066497803,0.0002562676090747118,0.002440865617245436,-0.008256945759057999,-0.0004432244459167123,0.000884686189237982,0.0005682742921635509,,,,,,
0.411314189,,,,,,,,,,,0.3947041630744934,1,2.418020963668823,1,-4.764975070953369,1
0.415368438,0.005,-0.01387140154838562,0.2912187278270721,-0.8640689849853516,0.003577085444703698,-0.001192521071061492,-0.0005971544305793941,0.002065579639747739,-0.003183868248015642,-0.0002638415899127722,,,,,,
0.416314870,,,,,,,,,,,3.15788745880127,1,-0.03752255439758301,1,1.327875137329102,1
0.420362741,0.005,0.02490370720624924,-0.112551748752594,-0.4750267267227173,-0.003197977086529136,-0.0002177393180318177,-0.0003516641445457935,-0.001637930399738252,-0.002291900105774403,-0.0002344727981835604,,,,,,
0.421310961,,,,,,,,,,,-0.785563588142395,1,0.3426381349563599,1,5.142552375793457,1
0.425334275,0.005,0.1233515068888664,-0.078876793384552,-0.2812545895576477,-0.0003463826433289796,0.001459108665585518,9.595614392310381e-05,0.001640802947804332,0.001102448324672878,0.0007734393002465367,,,,,,
0.426302969,,,,,,,,,,,-0.4473753273487091,1,1.309413194656372,1,7.042538642883301,1
0.430285305,0.005,0.003980162553489208,-0.1459644734859467,-0.8462694883346558,-0.0009307959116995335,-0.0006815252709202468,-0.007182184606790543,-0.000580691616050899,0.0008151456713676453,0.0002597903367131948,,,,,,
0.431290358,,,,,,,,,,,-1.104678750038147,1,0.1421380043029785,1,1.501587510108948,1
0.435213834,0.005,0.2056121826171875,-0.1308130025863647,-1.165084600448608,-0.0004687218461185694,0.002141516888514161,-0.0083773173391819,-0.0002959464909508824,0.001802199170924723,0.000150461943121627,,,,,,
0.436273158,,,,,,,,,,,-0.9627233147621155,1,2.116500377655029,1,-1.624671697616577,1
0.440119296,0.005,-0.1117411479353905,0.08358189463615417,-1.467342615127563,0.001377939246594906,-0.002120870631188154,-0.008342897519469261,0.002636017045006156,0.002499016700312495,-4.723237361758947e-05,,,,,,
0.441251338,,,,,,,,,,,1.125303506851196,1,-0.9867028594017029,1,-4.588459014892578,1
0.445001990,0.005,0.0946076363325119,-0.01793037541210651,-1.048799753189087,-0.0005495980149134994,0.001645243144594133,-0.002836160361766815,-0.001379594439640641,-0.001205824548378587,-0.0002737672184593976,,,,,,
0.446224898,,,,,,,,,,,0.1232421696186066,1,1.03962254524231,1,-0.4837764799594879,1
0.449862391,0.005,0.008547965437173843,0.1676889359951019,-0.8606922030448914,0.001820475794374943,-0.0003639998030848801,-0.003325686091557145,0.001198966638185084,-0.0007304401369765401,0.0003821348072960973,,,,,,
0.451193869,,,,,,,,,,,1.941677808761597,1,0.1987937688827515,1,1.360956192016602,1
0.454716682,0.005,-0.0901593416929245,0.1118178367614746,-1.071393013000488,0.0005389044526964426,-0.001282243058085442,-0.006590557750314474,-0.00135580962523818,-0.003933058120310307,5.670917016686872e-05,,,,,,
0.456161529,,,,,,,,,,,1.406038761138916,1,-0.7681836485862732,1,-0.7057130336761475,1
0.459548682,0.005,0.0820566713809967,-0.4181767106056213,-1.026121973991394,-0.005450897850096226,0.001716036815196276,-0.004752794280648232,0.001125072361901402,0.0007327013299800456,0.001029606093652546,,,,,,
0.461124599,,,,,,,,,,,-3.777706623077393,1,0.9191969037055969,1,-0.2621858716011047,1
0.464358389,0.005,0.05681857094168663,0.03476762771606445,-0.7625292539596558,0.00245247595012188,7.676592940697446e-05,-0.002648630645126104,0.001364678610116243,0.004871489945799112,3.212863521184772e-05,,,,,,
0.466166526,,,,,,,,,,,0.653433084487915,1,0.6793609857559204,1,2.323026180267334,1
0.469563127,0.005,-0.1430141031742096,0.1672528982162476,-0.4884250462055206,0.002126517472788692,-0.001695014070719481,-0.0002385101979598403,0.0005384584073908627,-0.001793774194084108,-0.001011114683933556,,,,,,
0.471204102,,,,,,,,,,,1.943215489387512,1,-1.272695779800415,1,5.011271476745605,1
0.474745095,0.005,-0.04353933036327362,-0.2961938679218292,-1.512127876281738,-0.004283614922314882,5.758920451626182e-05,-0.01350685674697161,-0.003328712657094002,-1.158437135018175e-05,0.0006572611746378243,,,,,,
0.476237565,,,,,,,,,,,-2.600014686584473,1,-0.3025767207145691,1,-5.027797222137451,1
0.479905546,0.005,0.2197465896606445,0.1801463216543198,-1.580715656280518,0.003543564584106207,0.002795565873384476,-0.008802725933492184,0.001561403856612742,0.001450307434424758,0.001383463037200272,,,,,,
0.481266171,,,,,,,,,,,2.063615798950195,1,2.274222850799561,1,-5.700110912322998,1
0.485042930,0.005,0.01394506730139256,-0.02018720284104347,-1.206013917922974,-0.001186866080388427,-0.00142610096372664,-0.00414260383695364,0.001166998059488833,-0.002517015673220158,6.272963946685195e-05,,,,,,
0.486290425,,,,,,,,,,,0.1026993095874786,1,0.2618222534656525,1,-2.025722980499268,1
0.490157306,0.005,-0.1003971695899963,-0.1084490716457367,-0.5322868824005127,-0.001132567878812551,-0.0009498486178927124,0.001918830210343003,0.001174071454443038,-0.0006550712278112769,-0.0002133639500243589,,,,,,
0.491310328,,,,,,,,,,,-0.7560111880302429,1,-0.8538404107093811,1,4.580996990203857,1
0.495248139,0.005,-0.1503803282976151,-0.1254209131002426,-0.8549095988273621,-0.0005691636470146477,-0.001327729551121593,-0.005988966207951307,-0.001585764111950994,0.0002744552330113947,0.0001500920625403523,,,,,,
0.496325374,,,,,,,,,,,-0.9187226891517639,1,-1.342317342758179,1,1.417011857032776,1
0.500315368,0.005,0.1510120034217834,-0.07473268359899521,-1.096920132637024,-0.0003872032975777984,0.002685202518478036,-0.007026607170701027,0.0004390559915918857,0.002522733062505722,0.0009212175500579178,,,,,,
0.501335800,,,,,,,,,,,-0.4270334243774414,1,1.610217213630676,1,-0.956089973449707,1
0.505366027,0.005,-0.007041573524475098,0.1562308967113495,-0.9812521934509277,0.002704349346458912,-0.0009167937096208334,-0.004215105436742306,0.001066316850483418,-0.001526245498098433,0.0001233493676409125,,,,,,
0.506343424,,,,,,,,,,,1.832721471786499,1,0.06435549259185791,1,0.1783320009708405,1
0.510394394,0.005,0.01593055576086044,-0.2282695025205612,-1.067331671714783,-0.003653243184089661,0.0001255482493434101,-0.00582966161891818,-0.0007186427828855813,-0.0002630663220770657,0.0001926034747157246,,,,,,
0.511346459,,,,,,,,,,,-1.933789491653442,1,0.2906283438205719,1,-0.6659592986106873,1
0.515400171,0.005,0.04153729230165482,-0.07414105534553528,-1.097747206687927,0.0005752044962719083,0.0003296439826954156,-0.00570597080513835,-0.0002150927903130651,0.001162835629656911,0.0003851706278510392,,,,,,
0.516344845,,,,,,,,,,,-0.4254146218299866,1,0.5406193733215332,1,-0.9641197919845581,1
0.520383239,0.005,0.01140267215669155,0.05575811862945557,-1.144944667816162,0.001017033355310559,-0.0001269983476959169,-0.00612407922744751,0.0001497779740020633,-0.0006813438958488405,0.0003736992657650262,,,,,,
0.521338880,,,,,,,,,,,0.8471964001655579,1,0.2446398437023163,1,-1.426922678947449,1
0.525343001,0.005,0.003600642085075378,-0.01018360070884228,-0.7428082227706909,-0.0003813393996097147,0.0001027824764605612,-0.001383119379170239,0.0007089424761943519,-0.001386462594382465,0.0004214488435536623,,,,,,
0.526328087,,,,,,,,,,,0.2056560069322586,1,0.1697725057601929,1,2.516506910324097,1
0.530280471,0.005,-0.07053264230489731,-0.1766983717679977,-0.7022278904914856,-0.001885410165414214,-0.0009747901349328458,-0.003155032405629754,-0.0004908328410238028,0.0003173180448357016,0.0005463501438498497,,,,,,
0.531312883,,,,,,,,,,,-1.422546863555908,1,-0.5552290678024292,1,2.914287090301514,1
0.535195649,0.005,0.00394419115036726,-0.07685615122318268,-1.15456211566925,0.0001515882613603026,0.0005475434008985758,-0.008246689103543758,-0.0008881389512680471,0.001771537004970014,0.0005797994672320783,,,,,,
0.536292851,,,,,,,,,,,-0.4470939636230469,1,0.1715317815542221,1,-1.521432042121887,1
0.540088058,0.005,0.08652133494615555,0.03246686607599258,-1.152326345443726,0.0008967408211901784,0.001013694796711206,-0.006068381015211344,0.0002338498597964644,0.0005659268354065716,0.0003066536737605929,,,,,,
0.541268468,,,,,,,,,,,0.6180188655853271,1,0.9781125783920288,1,-1.499248743057251,1
0.544957936,0.005,-0.00579378753900528,0.05775083974003792,-0.9212486743927002,0.0006039532599970698,-0.0005088181351311505,-0.003064676653593779,0.0004063303058501333,-0.001373351318761706,0.0002034464123426005,,,,,,
0.546239257,,,,,,,,,,,0.865458071231842,1,0.0738149881362915,1,0.7668533325195312,1
0.549804807,0.005,-0.0443822368979454,-0.08483962714672089,-0.9006454348564148,-0.001269203261472285,-0.0004399237514007837,-0.00423051230609417,-0.0006396908429451287,-0.0007052788278087974,0.0001293810782954097,,,,,,
0.551205397,,,,,,,,,,,-0.528067946434021,1,-0.3057891726493835,1,0.9687702059745789,1
0.554629385,0.005,-0.0007243789732456207,-0.08118648827075958,-1.005465626716614,-0.0005396006745286286,0.0001649477781029418,-0.005716311745345592,-0.0007399448077194393,0.000812905840575695,0.0005862431135028601,,,,,,
0.556167424,,,,,,,,,,,-0.4912877678871155,1,0.1186102032661438,1,-0.05914521217346191,1
0.559435248,0.005,0.06422648578882217,-0.03905483335256577,-1.176063656806946,0.0001405181101290509,0.0007076628971844912,-0.006955927237868309,-0.0005376542685553432,-8.021036046557128e-05,0.0006717657670378685,,,,,,
0.561209619,,,,,,,,,,,-0.07907141745090485,1,0.7504376173019409,1,-1.732046484947205,1
0.564640760,0.005,0.04772207513451576,-0.05097779631614685,-1.059332132339478,-0.0004172199405729771,0.000179235779796727,-0.004806745331734419,0.0004894726444035769,0.0002533562656026334,0.0003952861006837338,,,,,,
0.566247165,,,,,,,,,,,-0.1965447068214417,1,0.5864139795303345,1,-0.5872567296028137,1
0.569821417,0.005,-0.0508456863462925,0.05968194082379341,-0.8627864122390747,0.001021580654196441,-0.0008669804665260017,-0.003065848490223289,8.822058589430526e-05,-0.0004395196738187224,0.00014236438437365,,,,,,
0.571280122,,,,,,,,,,,0.8883752822875977,1,-0.3796848058700562,1,1.34020209312439,1
0.574979842,0.005,-0.02418158948421478,-0.1665544211864471,-0.9621022939682007,-0.002180140698328614,4.085952241439372e-05,-0.005145934410393238,-0.0009022012236528099,-0.000489604368340224,0.0005636996938847005,,,,,,
0.576308727,,,,,,,,,,,-1.326620817184448,1,-0.1211129054427147,1,0.3661667704582214,1
0.580114186,0.005,0.03703855723142624,-0.06334757804870605,-1.246622562408447,0.0001849036343628541,0.0005091957282274961,-0.0081521887332201,-0.000785187934525311,0.001368454424664378,0.0006115854484960437,,,,,,
0.581332505,,,,,,,,,,,-0.3167881667613983,1,0.4735621511936188,1,-2.423888444900513,1
0.585224211,0.005,0.08059369027614594,0.05837029591202736,-1.064580917358398,0.001116595696657896,0.0007180518587119877,-0.004363184794783592,0.0004201440315227956,-0.0003025350742973387,0.0002640885359141976,,,,,,
0.586351871,,,,,,,,,,,0.8737444877624512,1,0.8976894617080688,1,-0.6385401487350464,1
0.590310931,0.005,0.05264373868703842,-0.05351955071091652,-0.8203978538513184,-0.0009194117737933993,0.0001443088403902948,-0.002506911987438798,-0.0001460391067666933,-0.001121512497775257,0.0002798579807858914,,,,,,
0.591366410,,,,,,,,,,,-0.2206211239099503,1,0.6225768327713013,1,1.756000280380249,1
0.595373333,0.005,-0.003430157899856567,-0.09619612991809845,-0.9524731636047363,-0.0008627977222204208,-0.0004837803426198661,-0.005634463857859373,-0.000621292507275939,0.0003943773626815528,0.0004815183056052774,,,,,,
0.596376300,,,,,,,,,,,-0.6366048455238342,1,0.06975677609443665,1,0.4607366323471069,1
0.600413442,0.005,0.040361188352108,0.04473844170570374,-1.013485431671143,0.001134478487074375,0.0004484806850086898,-0.005391440354287624,-0.0001825190120143816,-2.527026663301513e-05,0.0006810662453062832,,,,,,
0.601381660,,,,,,,,,,,0.7452049255371094,1,0.4961022138595581,1,-0.1375484019517899,1
0.605430543,0.005,0.0226302407681942,-0.08236950635910034,-0.7959327697753906,-0.00113683904055506,9.348343883175403e-05,-0.002650894923135638,0.0008816493791528046,-0.0005922883283346891,0.0005267199594527483,,,,,,
0.606382072,,,,,,,,,,,-0.4987743198871613,1,0.3225383758544922,1,1.995832562446594,1
0.610423803,0.005,-0.09454961121082306,-0.1419162154197693,-1.057655453681946,-0.0009291106835007668,-0.001241369522176683,-0.00636505801230669,-0.0009270124137401581,6.831384962424636e-05,0.0003768960013985634,,,,,,
0.611377895,,,,,,,,,,,-1.080547332763672,1,-0.8268373012542725,1,-0.5708568096160889,1
0.615393519,0.005,0.06727952510118484,-0.1745444536209106,-1.239395141601562,-0.001233516726642847,0.001273403177037835,-0.00757148303091526,-0.0009440643480047584,0.001754591939970851,0.0005045431898906827,,,,,,
0.616368890,,,,,,,,,,,-1.404301285743713,1,0.7541043758392334,1,-2.352938890457153,1
0.620340228,0.005,0.01536368485540152,0.06445838510990143,-1.264248490333557,0.001864860649220645,-0.0001504419487901032,-0.006470697000622749,0.0003220174694433808,0.0004907040856778622,0.0002956611569970846,,,,,,
0.621355236,,,,,,,,,,,0.9315627813339233,1,0.242151752114296,1,-2.59639573097229,1
0.625274360,0.005,0.008144641295075417,0.07931482791900635,-0.799645721912384,0.000610768620390445,0.0001278896961594,-0.001222411636263132,0.0005566508043557405,-0.001992545323446393,8.61226799315773e-05,,,,,,
0.626339555,,,,,,,,,,,1.078704237937927,1,0.1712457537651062,1,1.959760189056396,1
0.630188286,0.005,-0.149711474776268,-0.182233914732933,-0.7440465092658997,-0.002384590450674295,-0.001816747477278113,-0.003283392870798707,-0.0006024790345691144,-0.0009061999735422432,0.0004123462131246924,,,,,,
0.631319523,,,,,,,,,,,-1.478414535522461,1,-1.376803517341614,1,2.50475811958313,1
0.635079920,0.005,-0.05138595029711723,-0.1242595165967941,-0.9532579779624939,-0.0004634906945284456,0.0003537791781127453,-0.005539992824196815,-0.001161895575933158,0.001554075512103736,0.0008554919040761888,,,,,,
0.636295140,,,,,,,,,,,-0.9092400074005127,1,-0.4173588454723358,1,0.4531189203262329,1
0.639948785,0.005,0.162232518196106,-0.02040262520313263,-1.224041223526001,0.000490903970785439,0.001942932140082121,-0.008288979530334473,-0.0007174376514740288,0.001255210023373365,0.0006176502793096006,,,,,,
0.641265929,,,,,,,,,,,0.1032088249921799,1,1.669978857040405,1,-2.202110052108765,1
0.644794643,0.005,0.03137709572911263,0.104944683611393,-0.9879428148269653,0.001368185272440314,-0.000408095249440521,-0.003361085196956992,0.001340064452961087,-0.0006689135334454477,0.0003503856132738292,,,,,,
0.646232069,,,,,,,,,,,1.328328728675842,1,0.3866576850414276,1,0.1133541464805603,1
0.649617910,0.005,-0.0651828944683075,-0.07631471008062363,-0.7024396061897278,-0.001331835752353072,-0.0008715795120224357,-0.001718159182928503,0.0001443475484848022,-0.001574183348566294,-3.582612407626584e-05,,,,,,
0.651193619,,,,,,,,,,,-0.444459468126297,1,-0.5584284067153931,1,2.913023710250854,1
0.654419482,0.005,-0.06367138028144836,-0.1191810667514801,-0.9382760524749756,-0.0008686337387189269,-0.0004446094972081482,-0.006017479579895735,-0.0009121697512455285,0.000432941596955061,0.0004857236344832927,,,,,,
0.656236291,,,,,,,,,,,-0.8615102767944336,1,-0.5444799661636353,1,0.6001633405685425,1
0.659627497,0.005,-0.01717966794967651,-0.1146624535322189,-1.339020013809204,-0.0006529962411150336,0.0003120682085864246,-0.008997795172035694,0.000428927771281451,0.001282235374674201,0.0007381949108093977,,,,,,
0.661274135,,,,,,,,,,,-0.8192601799964905,1,-0.09059974551200867,1,-3.329710721969604,1
0.664810479,0.005,0.03460846841335297,0.02382623590528965,-1.043278932571411,0.001080352580174804,0.0004277781117707491,-0.003742769360542297,0.0005589068168774247,0.0005810825969092548,6.184975791256875e-05,,,,,,
0.666307569,,,,,,,,,,,0.5330748558044434,1,0.4192084670066833,1,-0.4293199777603149,1
0.669970155,0.005,0.01255637407302856,0.05778480693697929,-0.6831138134002686,0.0004366133944131434,0.0001067973498720676,-0.0009408585610799491,0.0007653090870007873,-0.0005857447977177799,3.657229535747319e-05,,,,,,
0.671336472,,,,,,,,,,,0.863965630531311,1,0.2071040272712708,1,3.102724075317383,1
0.675105512,0.005,-0.1035155430436134,0.02067190036177635,-0.8955451250076294,-3.330312028992921e-05,-0.001326939673162997,-0.005708260461688042,-0.0005423395778052509,-0.001724670175462961,-3.392309372429736e-05,,,,,,
0.676360428,,,,,,,,,,,0.5045643448829651,1,-0.9290197491645813,1,1.01932680606842,1
0.680217326,0.005,0.04949314892292023,-0.1169702112674713,-0.8705625534057617,-0.001348669873550534,0.001046928344294429,-0.004410882480442524,-6.427097105188295e-05,-0.0006719621014781296,0.0008307435782626271,,,,,,
0.681379855,,,,,,,,,,,-0.8371173739433289,1,0.5713226795196533,1,1.264068603515625,1
0.685305059,0.005,0.003675393294543028,-0.04113974049687386,-1.046431183815002,7.217927486635745e-05,-0.0003387241449672729,-0.006314845290035009,0.0009271769667975605,0.001336235436610878,0.0005030741449445486,,,,,,
0.686394393,,,,,,,,,,,-0.09264865517616272,1,0.1248300820589066,1,-0.4606638848781586,1
0.690368235,0.005,-0.07567286491394043,0.03600858896970749,-0.858034074306488,0.0007588215521536767,-0.0006944354390725493,-0.002891339361667633,0.0009527563815936446,-0.0009259962826035917,-0.0001596048241481185,,,,,,
0.691404045,,,,,,,,,,,0.6654620170593262,1,-0.6484031677246094,1,1.386785984039307,1
0.695412755,0.005,-0.2299135029315948,-0.2729494571685791,-1.351326823234558,-0.003207180881872773,-0.002391785383224487,-0.00985767412930727,-0.001532722963020205,0.0004427852400112897,-7.177586667239666e-05,,,,,,
0.696410596,,,,,,,,,,,-2.361064672470093,1,-2.160493850708008,1,-3.450873613357544,1
0.700435460,0.005,0.1799663454294205,-0.1161765456199646,-1.510033011436462,0.0001792152907000855,0.003402092959731817,-0.008319901302456856,-0.001709640491753817,0.002310338895767927,0.001053052139468491,,,,,,
0.701412380,,,,,,,,,,,-0.8308568000793457,1,1.850477457046509,1,-5.006948947906494,1
0.705434084,0.005,0.2781834900379181,0.3653189241886139,-1.124088764190674,0.004610475152730942,0.002127851592376828,-0.003908938262611628,0.001186356646940112,-0.0008161229779943824,0.0005157540435902774,,,,,,
0.706409454,,,,,,,,,,,3.883783578872681,1,2.809385061264038,1,-1.221869707107544,1
0.710410237,0.005,-0.2373412251472473,-0.09785807132720947,-0.6485174298286438,-0.002748844679445028,-0.004172089509665966,1.855823211371899e-05,0.0007231932249851525,-0.005227221641689539,-0.0003703233669511974,,,,,,
0.711401701,,,,,,,,,,,-0.6427602767944336,1,-2.241799831390381,1,3.441344976425171,1
0.715362310,0.005,0.02775818482041359,-0.2037822306156158,-0.4617491662502289,-0.001863792655058205,0.001672864425927401,-0.001011687447316945,-0.001176801859401166,0.0007945106481201947,0.0005168065545149148,,,,,,
0.716389358,,,,,,,,,,,-1.666872978210449,1,0.3543013036251068,1,5.272460460662842,1
0.720290542,0.005,0.08782463520765305,-0.001543513615615666,-0.6105870604515076,0.001293329638428986,0.0009639888885430992,-0.003802727442234755,0.001205162261612713,0.000839053827803582,0.001036742934957147,,,,,,
0.721372426,,,,,,,,,,,0.3180458545684814,1,0.944952666759491,1,3.812803030014038,1
0.725197315,0.005,0.0578867644071579,-0.1488422304391861,-1.256040096282959,-0.001777858240529895,-0.0002855540369637311,-0.01060309819877148,-0.0005858669755980372,0.001017068512737751,0.0003358655667398125,,,,,,
0.726350844,,,,,,,,,,,-1.127359628677368,1,0.651935338973999,1,-2.516895771026611,1
0.730081558,0.005,-0.03386420011520386,-0.02488955110311508,-1.344009280204773,0.000280096719507128,-0.0001341556198894978,-0.006338528357446194,0.002313160337507725,0.003048534970730543,0.000329809554386884,,,,,,
0.731324434,,,,,,,,,,,0.07651501893997192,1,-0.2427425980567932,1,-3.379243850708008,1
0.734942734,0.005,0.09746234118938446,-0.0269230343401432,-1.030707955360413,0.0002109755296260118,0.0009837878169491887,-0.003981373738497496,-0.001191467279568315,-0.0009444517781957984,-0.0002034387434832752,,,,,,
0.736293375,,,,,,,,,,,0.04750579595565796,1,1.049084663391113,1,-0.3065506219863892,1
0.739780605,0.005,0.04706570506095886,0.1433098912239075,-0.9832441210746765,0.001402835128828883,6.396415119525045e-05,-0.00492317508906126,0.0005255353171378374,-0.0007058430346660316,0.0007192392367869616,,,,,,
0.741257489,,,,,,,,,,,1.714964747428894,1,0.5563924312591553,1,0.1589652895927429,1
0.744595706,0.005,-0.1366017311811447,0.02213855087757111,-1.057908296585083,-0.0002578598214313388,-0.001807180233299732,-0.005434400402009487,-0.000120320386486128,-0.003811769420281053,0.00027623659116216,,,,,,
0.746216953,,,,,,,,,,,0.5386043190956116,1,-1.242494344711304,1,-0.5736540555953979,1
0.749390364,0.005,0.03621259331703186,-0.2089741080999374,-0.8120483756065369,-0.002709631808102131,0.001156963873654604,-0.002905652159824967,0.0002690831897780299,0.001001538475975394,0.0007013476570136845,,,,,,
0.751172364,,,,,,,,,,,-1.716049909591675,1,0.4524520635604858,1,1.837011694908142,1
0.754599929,0.005,0.1001560986042023,-0.07161344587802887,-0.462895929813385,0.0006037283455953002,0.0008982275030575693,-8.507282473146915e-05,0.0005593800451606512,0.001666359137743711,0.0007103961543180048,,,,,,
0.756210685,,,,,,,,,,,-0.3718235790729523,1,1.08234977722168,1,5.261102199554443,1
0.759785712,0.005,0.04452581331133842,0.07391875982284546,-0.8551323413848877,0.001230790163390338,-0.0002639768645167351,-0.006685465108603239,-0.0006596599123440683,0.0006585188093595207,0.0001228111214004457,,,,,,
0.761244416,,,,,,,,,,,1.049391388893127,1,0.5373577475547791,1,1.414773941040039,1
0.764947712,0.005,-0.01414230279624462,-0.009315961971879005,-1.363113284111023,-0.0007746280170977116,-0.0004482986405491829,-0.009812993928790092,2.440706157358363e-05,0.0002955060335807502,0.0003936787834390998,,,,,,
0.766274333,,,,,,,,,,,0.2293333113193512,1,-0.03793491423130035,1,-3.566689014434814,1
0.770088434,0.005,0.182394340634346,-0.06421389430761337,-1.427166342735291,-0.0006118484889157116,0.001968851545825601,-0.00777768436819315,-0.000210951387998648,0.0006181113421916962,0.0008922475972212851,,,,,,
0.771299303,,,,,,,,,,,-0.3134694695472717,1,1.88707447052002,1,-4.194667339324951,1
0.775205374,0.005,0.06698353588581085,0.1068015843629837,-1.00203013420105,0.001507937675341964,-0.0001387399242958054,-0.002502939896658063,0.002045668195933104,-0.0006545560900121927,0.0006016505067236722,,,,,,
0.776319742,,,,,,,,,,,1.360703706741333,1,0.760072648525238,1,-0.02546119689941406,1
0.780298233,0.005,-0.1479293704032898,0.003160968422889709,-0.8323280215263367,-0.0002903167915064842,-0.002235108520835638,-0.002985014114528894,-0.0005165656330063939,-0.002756247296929359,-0.0001277321134693921,,,,,,
0.781335533,,,,,,,,,,,0.3530979752540588,1,-1.342245697975159,1,1.638401985168457,1
0.785368323,0.005,0.04480002447962761,-0.1326446682214737,-0.6594699621200562,-0.001788683235645294,0.001334060681983829,-0.002369723282754421,-0.0005073723732493818,0.0009826587047427893,0.0008046342409215868,,,,,,
0.786346734,,,,,,,,,,,-0.9719511270523071,1,0.5470181107521057,1,3.333346843719482,1
0.790414572,0.005,-0.02673092484474182,0.006855702959001064,-0.9648948907852173,0.0009939601877704263,-0.0003951616236008704,-0.006207157857716084,0.0005774364690296352,0.0002845839771907777,0.0008865616982802749,,,,,,
0.791353345,,,,,,,,,,,0.395977258682251,1,-0.1532182991504669,1,0.3381451368331909,1
0.795438588,0.005,0.07592500746250153,-0.03998757898807526,-1.184610366821289,-0.0004217585665173829,0.0008323891088366508,-0.007725467439740896,-0.0003825276216957718,-0.0005349231068976223,0.000509879959281534,,,,,,
0.796355307,,,,,,,,,,,-0.06131798028945923,1,0.8529722690582275,1,-1.816590785980225,1
0.800438285,0.005,-0.01770687103271484,-0.08298398554325104,-1.030406951904297,-0.0008333014557138085,-0.000472598650958389,-0.004155487753450871,0.001300921314395964,0.0008681927574798465,0.0005020190728828311,,,,,,
0.801352680,,,,,,,,,,,-0.4837297797203064,1,-0.06165286898612976,1,-0.3043859899044037,1
0.805414915,0.005,-0.03836788237094879,-0.04568447172641754,-1.048187255859375,3.953119448851794e-05,-0.0003615652676671743,-0.005206514149904251,-0.0002572993980720639,0.0003396142856217921,1.116237581300084e-05,,,,,,
0.806345224,,,,,,,,,,,-0.1209085881710052,1,-0.2609179317951202,1,-0.4786906838417053,1
0.810367465,0.005,-0.0115348594263196,-0.01479820534586906,-0.999463677406311,0.0001714480749797076,7.585464481962845e-05,-0.00503090675920248,6.384856533259153e-05,2.616493293317035e-05,0.0002373627212364227,,,,,,
0.811333120,,,,,,,,,,,0.1796554028987885,1,0.00315399095416069,1,-0.0008081197738647461,1
0.815297544,0.005,-0.06636333465576172,-0.1143474206328392,-1.03005576133728,-0.001217217301018536,-0.0007160724489949644,-0.005106453783810139,-0.0002380340447416529,0.0005956789245828986,0.0008148946217261255,,,,,,
0.816316187,,,,,,,,,,,-0.798908531665802,1,-0.5332272052764893,1,-0.3007521629333496,1
0.820206821,0.005,0.1592553704977036,-0.07955098897218704,-1.457474827766418,-0.0002992639783769846,0.001861117780208588,-0.01002639066427946,-0.001740398816764355,0.001415418460965157,0.0007906281389296055,,,,,,
0.821295381,,,,,,,,,,,-0.4637861251831055,1,1.672913312911987,1,-4.492032527923584,1
0.825094640,0.005,0.1299147307872772,0.117659404873848,-0.8915829062461853,0.001751634059473872,0.0007232797215692699,-0.001154672005213797,0.001460862113162875,7.591128087369725e-05,0.0005061812116764486,,,,,,
0.826269686,,,,,,,,,,,1.462839961051941,1,1.382910132408142,1,1.057730674743652,1
0.829959452,0.005,-0.04628060013055801,0.05691569671034813,-1.064948439598083,4.067692498210818e-05,-0.00168396788649261,-0.006318281404674053,-0.001552994246594608,-0.002235612133517861,0.0001631217746762559,,,,,,
0.831239939,,,,,,,,,,,0.8704236745834351,1,-0.3460938334465027,1,-0.6424951553344727,1
0.834820092,0.005,0.150665283203125,-0.07139575481414795,-0.6758632659912109,-0.001221043523401022,0.00213612150400877,-0.001093605998903513,0.0004614118952304125,-0.0008563243318349123,0.0009579352918080986,,,,,,
0.836209178,,,,,,,,,,,-0.3794687688350677,1,1.580459117889404,1,3.172904491424561,1
0.839659035,0.005,0.01476933155208826,-0.154146745800972,-0.7484151124954224,-0.001186911482363939,-0.0009604563238099217,-0.004128049593418837,-0.0008566849282942712,0.0003008030180353671,0.0009845824679359794,,,,,,
0.841173768,,,,,,,,,,,-1.18578314781189,1,0.2458384037017822,1,2.461264133453369,1
0.844476700,0.005,0.12087781727314,-0.0224168598651886,-0.9037307500839233,0.000580682186409831,0.001421554246917367,-0.005287810228765011,-0.0004908738192170858,0.001549429958686233,0.0005984905874356627,,,,,,
0.846134007,,,,,,,,,,,0.1032742559909821,1,1.280453443527222,1,0.93828946352005,1
0.849605143,0.005,0.03815390169620514,-0.02751559764146805,-0.8951934576034546,-0.0001545913401059806,-0.0002806541742756963,-0.004607253707945347,0.0004465591919142753,0.0004736540140584111,0.0003822018916253,,,,,,
0.851172864,,,,,,,,,,,0.0480482392013073,1,0.4671260118484497,1,1.022203683853149,1
0.854792714,0.005,-0.02944049797952175,-0.06415942311286926,-1.225788593292236,-0.0004859670880250633,-0.0006973264971747994,-0.007933596149086952,-0.001200097496621311,-1.974634869839065e-05,0.0005578068667091429,,,,,,
0.856207371,,,,,,,,,,,-0.3147178292274475,1,-0.1985712051391602,1,-2.219689846038818,1
0.859957516,0.005,0.07307304441928864,-0.04580181464552879,-1.116636037826538,-0.0001956201303983107,0.001134750549681485,-0.005164950620383024,-0.0001274800742976367,0.0004812249389942735,0.0009493289981037378,,,,,,
0.861237228,,,,,,,,,,,-0.1377118229866028,1,0.8006593585014343,1,-1.149120330810547,1
0.865098476,0.005,-0.08064378798007965,0.0854821652173996,-1.031227469444275,0.001412557088769972,-0.001408261945471168,-0.0044717020355165,-6.745104474248365e-05,-0.001217045588418841,0.0005629397346638143,,,,,,
0.866262257,,,,,,,,,,,1.149641752243042,1,-0.7081584334373474,1,-0.3115304112434387,1
0.870215952,0.005,-0.007340103387832642,-0.1540609449148178,-0.9897696375846863,-0.002161372220143676,0.0005086774472147226,-0.004487595520913601,-0.0004908621194772422,-0.001446230686269701,0.0009175129816867411,,,,,,
0.871282935,,,,,,,,,,,-1.19109058380127,1,0.005852937698364258,1,0.09479784965515137,1
0.875309587,0.005,-0.1246909275650978,-0.1928254812955856,-1.119986534118652,-0.001234708586707711,-0.001468384522013366,-0.006636805832386017,0.0003943150804843754,0.001299305004067719,0.0006060975720174611,,,,,,
0.876300037,,,,,,,,,,,-1.568702101707458,1,-1.146069049835205,1,-1.182264924049377,1
0.880385816,0.005,-0.1102152168750763,0.04958625882863998,-1.056674242019653,0.00153217208571732,-0.0003094397834502161,-0.004750577267259359,0.0005344884702935815,0.001632133848033845,0.0003376633394509554,,,,,,
0.881312788,,,,,,,,,,,0.8017904162406921,1,-1.002686500549316,1,-0.5611758828163147,1
0.885439754,0.005,-0.0541452094912529,-0.036554966121912,-0.9040684700012207,-0.0004161592223681509,-1.893358421511948e-05,-0.003755132900550961,-0.0004588925221469253,-0.001002761069685221,0.0004193326749373227,,,,,,
0.886320889,,,,,,,,,,,-0.04550206661224365,1,-0.4525815844535828,1,0.9354568719863892,1
0.890471935,0.005,-0.1302852779626846,-0.1417609453201294,-0.9729928970336914,-0.001450372394174337,-0.001020713360048831,-0.00492176553234458,-1.557982977828942e-05,0.001320347771979868,0.0007461188943125308,,,,,,
0.891324699,,,,,,,,,,,-1.080319404602051,1,-1.200102210044861,1,0.2596446871757507,1
0.895481586,0.005,0.02362919971346855,0.07772020995616913,-0.9972894191741943,0.001749614952132106,0.001059591770172119,-0.005121859256178141,-0.0006230584112927318,0.0001829085813369602,0.0003605739329941571,,,,,,
0.896324098,,,,,,,,,,,1.065982341766357,1,0.305309534072876,1,0.02159646153450012,1
0.900468230,0.005,-0.01097944751381874,-0.01138907298445702,-0.9427725076675415,-0.0004388188244774938,-0.000128869607578963,-0.004625431261956692,0.0006461055018007755,-0.001330569270066917,0.0005514484364539385,,,,,,
0.901318908,,,,,,,,,,,0.1935552954673767,1,-0.03470245003700256,1,0.5561867952346802,1
0.905434370,0.005,-0.1058870181441307,-0.1587016880512238,-0.8212189674377441,-0.001652643084526062,-0.001091337762773037,-0.003089331788942218,-0.0003369969199411571,0.000304015789879486,0.0004678323457483202,,,,,,
0.906309605,,,,,,,,,,,-1.248435258865356,1,-0.9648568034172058,1,1.748133659362793,1
0.910378516,0.005,0.01992461085319519,-0.1207003816962242,-1.148618936538696,-0.0005103476578369737,0.0006477297865785658,-0.007923855446279049,-0.001328990212641656,0.002059632213786244,0.0005437450599856675,,,,,,
0.911295772,,,,,,,,,,,-0.881453275680542,1,0.263959676027298,1,-1.462354302406311,1
0.915299833,0.005,0.04815364629030228,0.05299510806798935,-1.209550976753235,0.001340241869911551,0.000592025404330343,-0.006373578682541847,0.0005701198824681342,0.0005542204598896205,0.0004643099091481417,,,,,,
0.916277528,,,,,,,,,,,0.8132785558700562,1,0.5372133255004883,1,-2.05961012840271,1
0.920198917,0.005,0.04090170934796333,0.06935112178325653,-0.8841843605041504,0.0003278336953371763,7.008848479017615e-05,-0.002670647576451302,1.712321864033584e-05,-0.0006455709226429462,0.0002295625454280525,,,,,,
0.921254396,,,,,,,,,,,0.9704444408416748,1,0.4653777778148651,1,1.131251454353333,1
0.925075710,0.005,-0.0580853708088398,0.03470341488718987,-0.8079531788825989,6.017417763359845e-05,-0.0009527738438919187,-0.003652724204584956,-0.0003563360369298607,-0.001347439363598824,0.0003186157846357673,,,,,,
0.926226974,,,,,,,,,,,0.6336517333984375,1,-0.5062888860702515,1,1.878743052482605,1
0.929932296,0.005,-0.0927213579416275,-0.06342479586601257,-0.7787830233573914,-0.001023398828692734,-0.0006502821343019605,-0.003491985611617565,-0.0006276071071624756,-0.000198406443814747,0.0007245338638313115,,,,,,
0.931195915,,,,,,,,,,,-0.3238508403301239,1,-0.8489710688591003,1,2.164678573608398,1
0.934769690,0.005,0.04701985418796539,-0.1354849338531494,-1.160547375679016,-0.001172009506262839,0.0008640203741379082,-0.008332515135407448,-0.001236582407727838,0.001154739642515779,0.0008884039125405252,,,,,,
0.936160266,,,,,,,,,,,-1.03045642375946,1,0.5142403244972229,1,-1.579112887382507,1
0.939584494,0.005,0.07305014133453369,0.06391151994466782,-1.241918683052063,0.001564049860462546,0.0006085145869292319,-0.006766779348254204,0.0008580591529607773,0.0007980737718753517,0.0006184559897519648,,,,,,
0.941120267,,,,,,,,,,,0.919605016708374,1,0.7664294242858887,1,-2.376915454864502,1
0.944712460,0.005,-0.02860942110419273,0.0607924796640873,-0.7796463370323181,0.0003727139555849135,-0.0005849296576343477,-0.001019230694510043,0.001549188629724085,-0.001326911267824471,9.296210919274017e-05,,,,,,
0.946159363,,,,,,,,,,,0.8889956474304199,1,-0.226643443107605,1,2.156408786773682,1
0.949900568,0.005,-0.1409585624933243,-0.07775794714689255,-0.6874798536300659,-0.001290619722567499,-0.001560685108415782,-0.002956819022074342,-0.0001249229244422168,-0.0008529021870344877,0.0002066979504888877,,,,,,
0.951193869,,,,,,,,,,,-0.4642577767372131,1,-1.323376178741455,1,3.060058116912842,1
0.955064833,0.005,-0.05315568670630455,-0.11986193805933,-0.923878014087677,-0.0008532303618267179,0.0002354596508666873,-0.005929021630436182,-0.000497104658279568,0.0008539865375496447,0.0007736284751445055,,,,,,
0.956223488,,,,,,,,,,,-0.8755154609680176,1,-0.4618692398071289,1,0.7417332530021667,1
0.960203528,0.005,0.039873156696558,-0.009686872363090515,-1.054385781288147,0.0005451195174828172,0.0007845982327125967,-0.006269696168601513,-6.447647319873795e-05,0.0008003916009329259,0.0005920903640799224,,,,,,
0.961249292,,,,,,,,,,,0.2010082453489304,1,0.4496468603610992,1,-0.5379855036735535,1
0.965322733,0.005,-0.1064203903079033,-0.1118796467781067,-1.162465810775757,-0.001104865921661258,-0.001382735092192888,-0.006295460741966963,0.0001697807310847566,-0.0007014215225353837,4.514019383350387e-05,,,,,,
0.966270447,,,,,,,,,,,-0.8012557029724121,1,-0.9847379922866821,1,-1.59788703918457,1
0.970418155,0.005,-0.007370224222540855,-0.04631973803043365,-1.164567589759827,-0.0001199099351651967,0.0005155525868758559,-0.006137322634458542,-0.0004344792105257511,0.001372266677208245,-2.340193896088749e-05,,,,,,
0.971287012,,,,,,,,,,,-0.1613810062408447,1,-0.01540429890155792,1,-1.618394732475281,1
0.975491345,0.005,-0.1085093393921852,0.0837760791182518,-0.7366316318511963,0.001368688186630607,-0.001122123561799526,-0.0013617102522403,0.001226340071298182,-0.0008428848232142627,-0.0001026503960019909,,,,,,
0.976298988,,,,,,,,,,,1.111600756645203,1,-1.004561066627502,1,2.578291893005371,1
0.980540395,0.005,-0.2537862658500671,-0.09354312717914581,-0.7549431920051575,-0.001312737818807364,-0.002061278792098165,-0.003256270429119468,-2.994542228407227e-05,-0.002320875646546483,0.0003197091282345355,,,,,,
0.981306136,,,,,,,,,,,-0.6193264126777649,1,-2.425099611282349,1,2.398446798324585,1
0.985565186,0.005,-0.004221130162477493,-0.2923019230365753,-0.9305356740951538,-0.002855026628822088,0.001323685864917934,-0.005985400639474392,-0.0006117050652392209,0.001337658846750855,0.0008335647871717811,,,,,,
0.986308634,,,,,,,,,,,-2.56340217590332,1,0.02087864279747009,1,0.6763266921043396,1
0.990567923,0.005,-0.0007428040262311697,-0.1130004972219467,-1.498030424118042,0.000293660064926371,5.085734301246703e-05,-0.01085218694061041,0.0008260983740910888,0.003189122537150979,0.000483926385641098,,,,,,
0.991306484,,,,,,,,,,,-0.8148026466369629,1,0.05673385784029961,1,-4.888615131378174,1
0.995547116,0.005,0.1142461001873016,0.02516086772084236,-1.058407664299011,0.001191808376461267,0.001181345898658037,-0.002999655902385712,0.0004028405528515577,-0.0009348226594738662,-0.0004266513860784471,,,,,,
0.996299505,,,,,,,,,,,0.5313072204589844,1,1.187307238578796,1,-0.5771493911743164,1
1.000502825,0.005,0.08627768605947495,-0.1921041011810303,-1.365301012992859,-0.002478852635249496,0.0001692399091552943,-0.008339645341038704,-0.00167587143369019,-0.000161845120601356,0.0006062921602278948,,,,,,
1.001288176,,,,,,,,,,,-1.599725246429443,1,0.9111509323120117,1,-3.586717367172241,1
1.005434871,0.005,0.1246192455291748,0.09280362725257874,-0.9712373614311218,0.002175448462367058,0.0008994759409688413,-0.002714841859415174,0.0009668461862020195,-1.012577558867633e-05,-6.91919558448717e-05,,,,,,
1.006271958,,,,,,,,,,,1.191410064697266,1,1.284723281860352,1,0.2778266072273254,1
1.010343671,0.005,-0.06878626346588135,0.01671592518687248,-0.7160188555717468,-0.0001744849869282916,-0.001510396366938949,-0.002143462421372533,-0.0007193181081674993,-0.002986784093081951,0.0004502324445638806,,,,,,
1.011251211,,,,,,,,,,,0.4538534283638,1,-0.6122708916664124,1,2.780412673950195,1
1.015233517,0.005,-0.07535713911056519,-0.1761987656354904,-0.3793114125728607,-0.001969391712918878,-0.0002154543180949986,0.0006489980733022094,0.000667043321300298,-0.0007292765658348799,0.000516917381901294,,,,,,
1.016228557,,,,,,,,,,,-1.425673723220825,1,-0.6769683957099915,1,6.082008838653564,1
1.020112872,0.005,-0.1020354032516479,-0.2003065496683121,-0.9511146545410156,-0.001284363796003163,-0.0008150226203724742,-0.00803845189511776,-0.00078401347855106,0.001743724104017019,0.0005946624442003667,,,,,,
1.021201611,,,,,,,,,,,-1.659706830978394,1,-0.9399054050445557,1,0.4744746685028076,1
1.024970293,0.005,-0.03756851330399513,-0.01121189445257187,-1.558942079544067,0.0009922957979142666,0.0001310510851908475,-0.01178231742233038,0.000658711651340127,0.001999308820813894,6.87201609252952e-05,,,,,,
1.026170373,,,,,,,,,,,0.1869269609451294,1,-0.3081943690776825,1,-5.48603630065918,1
1.029805303,0.005,-0.1105622127652168,-0.009819243103265762,-0.8371808528900146,-0.0001054551103152335,-0.0004617863451130688,0.001002194825559855,0.00272089964710176,0.0008555024978704751,-0.0002212465333286673,,,,,,
1.031134486,,,,,,,,,,,0.1912998855113983,1,-1.016121029853821,1,1.59224271774292,1
1.034618139,0.005,-0.07763262093067169,-0.1484724581241608,-1.424936890602112,-0.001129932934418321,-0.0008607357740402222,-0.01126802340149879,-0.00301414355635643,-0.001129568670876324,-0.0002865119313355535,,,,,,
1.036093950,,,,,,,,,,,-1.171631813049316,1,-0.6906598806381226,1,-4.171595573425293,1
1.039662361,0.005,0.2134124636650085,0.1291243731975555,-1.202281713485718,0.001940967049449682,0.003262905403971672,-0.00504717044532299,0.001409329590387642,0.0008138540433719754,0.001219221507199109,,,,,,
1.041133285,,,,,,,,,,,1.546744108200073,1,2.160738229751587,1,-1.987959742546082,1
1.044853449,0.005,-0.09397728741168976,0.218700647354126,-0.8397896289825439,0.001715300255455077,-0.002373634371906519,-0.00198457925580442,0.001325383200310171,-0.003131397999823093,8.174125832738355e-05,,,,,,
1.046168327,,,,,,,,,,,2.431062936782837,1,-0.8454643487930298,1,1.566639065742493,1
1.050021172,0.005,0.004455599933862686,-0.2926653623580933,-0.6411304473876953,-0.004409122746437788,0.0004220570554025471,-0.001789317582733929,-0.001671475125476718,-0.001806755317375064,-0.0001650103222345933,,,,,,
1.051198721,,,,,,,,,,,-2.567287445068359,1,0.1190878450870514,1,3.514320850372314,1
1.055164695,0.005,-0.01559128612279892,-0.1158005446195602,-0.9208536744117737,0.0002711109700612724,7.223276770673692e-05,-0.005972886458039284,0.0008330515120178461,0.002213157014921308,0.0007529090507887304,,,,,,
1.056224465,,,,,,,,,,,-0.8297431468963623,1,-0.07674485445022583,1,0.7710810899734497,1
1.060283899,0.005,0.03153382986783981,-0.1291709393262863,-1.004600763320923,-0.0005795960896648467,0.0005768454284407198,-0.0056206239387393,0.0009512783144600689,0.000754623266402632,-8.503338904120028e-05,,,,,,
1.061246514,,,,,,,,,,,-0.9640789031982422,1,0.3880377411842346,1,-0.050113245844841,1
1.065383911,0.005,-0.0994533970952034,-0.03888777643442154,-1.204795479774475,0.0002238178858533502,-0.001380974310450256,-0.007259681355208158,0.0003893692628480494,0.001267421874217689,-0.0001757930731400847,,,,,,
1.066263795,,,,,,,,,,,-0.08616945147514343,1,-0.890261173248291,1,-2.013177633285522,1
1.070460916,0.005,-0.03812950849533081,-0.04975707456469536,-1.477652668952942,-0.0001730888470774516,2.631061943247914e-05,-0.009035983122885227,-0.0007073343149386346,-0.0003718455554917455,-0.0001224193838424981,,,,,,
1.071276546,,,,,,,,,,,-0.1969341039657593,1,-0.2880580425262451,1,-4.688871383666992,1
1.075514317,0.005,-0.0837085098028183,0.2039544731378555,-0.8849908709526062,0.002404725877568126,-0.0005080882692709565,-0.001013384200632572,0.001468968810513616,-0.0005154769169166684,-0.0001453950244467705,,,,,,
1.076284647,,,,,,,,,,,2.289199829101562,1,-0.7317614555358887,1,1.123184561729431,1
1.080543756,0.005,-0.06503546237945557,-0.06245210021734238,-0.4309425950050354,-0.001602032221853733,-0.0002647831570357084,0.0009538894519209862,-0.0006957182195037603,-0.003019019495695829,0.0001818069431465119,,,,,,
1.081287980,,,,,,,,,,,-0.313097357749939,1,-0.545802891254425,1,5.575536727905273,1
1.085550308,0.005,-0.008759621530771255,-0.2134993076324463,-1.115969657897949,-0.002221370581537485,6.182663491927087e-05,-0.01006332505494356,-0.001244103536009789,0.001228836947120726,0.0008237861911766231,,,,,,
1.086286545,,,,,,,,,,,-1.787174820899963,1,0.002518296241760254,1,-1.142472267150879,1
1.090534091,0.005,0.09049029648303986,-0.1274173557758331,-0.9474146366119385,-0.0002055905206361786,0.001366210868582129,-0.003704880829900503,0.001557063544169068,0.002465992933139205,0.0004155623028054833,,,,,,
1.091280699,,,,,,,,,,,-0.9475963711738586,1,0.9760940670967102,1,0.5106297731399536,1
1.095494628,0.005,-0.02742528170347214,0.09927376359701157,-1.15532398223877,0.001699020154774189,-0.001156582846306264,-0.007066956255584955,-0.000425264734076336,0.001350716920569539,-0.0006666606641374528,,,,,,
1.096270323,,,,,,,,,,,1.26413893699646,1,-0.1763595342636108,1,-1.527962446212769,1
1.100431919,0.005,0.07830233871936798,0.0312011893838644,-0.9752233028411865,-0.0001560766686452553,0.001305873855017126,-0.003696094499900937,0.0006250321166589856,-0.0014688849914819,8.83102766238153e-05,,,,,,
1.101254940,,,,,,,,,,,0.5936902165412903,1,0.8609833717346191,1,0.2383072227239609,1
1.105345845,0.005,-0.1250970810651779,-0.08375970274209976,-1.020354986190796,-0.0009564136271364987,-0.002062927698716521,-0.005406551528722048,-0.0002651452959980816,-0.001033995533362031,0.0004791049286723137,,,,,,
1.106235147,,,,,,,,,,,-0.5300682187080383,1,-1.130220770835876,1,-0.2044213563203812,1
1.110236645,0.005,-0.07413677126169205,-0.1183321550488472,-1.122754812240601,-0.0009534857235848904,0.0001012620923575014,-0.005940268747508526,-0.000359502446372062,0.0004741104494314641,0.0006238625501282513,,,,,,
1.111210704,,,,,,,,,,,-0.8664235472679138,1,-0.6325460076332092,1,-1.208678960800171,1
1.115107059,0.005,-0.06316463649272919,-0.01816609874367714,-0.8815746307373047,0.0006129820831120014,-0.0003407402837183326,-0.003368692938238382,-0.0002077576355077326,-0.000107760148239322,4.64889126305934e-05,,,,,,
1.116182327,,,,,,,,,,,0.1157969832420349,1,-0.5260704755783081,1,1.156505703926086,1
1.119956732,0.005,-0.1238562017679214,-0.08852117508649826,-1.143999218940735,-0.0008742358768358827,-0.001057463348843157,-0.007113137282431126,-0.0001794107956811786,-0.0001422354398528114,9.041110752150416e-05,,,,,,
1.121149421,,,,,,,,,,,-0.5725324153900146,1,-1.122256755828857,1,-1.417037487030029,1
1.124783397,0.005,-0.02524759061634541,-0.02311709336936474,-0.8539133071899414,0.0001724766771076247,0.0006472809473052621,-0.002522351685911417,0.0007288541528396308,0.0002084938314510509,0.0002147981722373515,,,,,,
1.126111746,,,,,,,,,,,0.06855762004852295,1,-0.1558181345462799,1,1.427748441696167,1
1.129587412,0.005,-0.05201758444309235,-0.09441426396369934,-0.9103437066078186,-0.0007443021750077605,-0.0007208341266959906,-0.005106789059937,-0.0005321718053892255,-0.0007294560200534761,0.0001512890448793769,,,,,,
1.131069422,,,,,,,,,,,-0.6288439035415649,1,-0.4170649349689484,1,0.8742889165878296,1
1.134544134,0.005,0.02663414552807808,-0.1286015957593918,-1.102156162261963,-0.0009839857229962945,0.0008011268218979239,-0.006158427335321903,-0.0002299384213984013,0.0004302425659261644,0.0004592561745084822,,,,,,
1.136109829,,,,,,,,,,,-0.9625195860862732,1,0.3522982001304626,1,-1.006778120994568,1
1.139738679,0.005,0.08408273756504059,-0.02752025052905083,-1.125326633453369,0.0004171421751379967,0.0005559331038966775,-0.006531499791890383,-0.0002875682839658111,0.0008358593331649899,-8.688109664944932e-05,,,,,,
1.141145825,,,,,,,,,,,0.02586552500724792,1,0.9133884906768799,1,-1.233894944190979,1
1.144910812,0.005,-0.01033672317862511,0.02600137703120708,-0.7297590970993042,0.0005218888400122523,-0.0004115733609069139,-0.0009173762518912554,0.0008808962302282453,-0.0009545122156850994,-3.840341378236189e-05,,,,,,
1.146177292,,,,,,,,,,,0.5500583648681641,1,-0.01091119647026062,1,2.64530348777771,1
1.150060058,0.005,-0.07555611431598663,-0.09178996831178665,-0.9842923879623413,-0.001086377422325313,-0.0008861509850248694,-0.006252969149500132,-0.001129106269218028,-0.00123316200915724,0.0002075646916637197,,,,,,
1.151204109,,,,,,,,,,,-0.59906005859375,1,-0.6518346071243286,1,0.1490104794502258,1
1.155186176,0.005,-0.07808247208595276,-0.1258289664983749,-1.122528910636902,-0.0008260253234766424,-0.0003378461697138846,-0.006508197635412216,-4.207966776448302e-05,0.0006374802906066179,0.0004391712136566639,,,,,,
1.156226516,,,,,,,,,,,-0.9298217296600342,1,-0.6797072291374207,1,-1.206692695617676,1
1.160290003,0.005,0.02031007036566734,-0.07116797566413879,-1.072284698486328,-0.000241852190811187,0.0007078901981003582,-0.005038219969719648,1.637796412978787e-05,0.001675013569183648,0.0002906839945353568,,,,,,
1.161245227,,,,,,,,,,,-0.3981557488441467,1,0.283225417137146,1,-0.7138144373893738,1
1.165374517,0.005,-0.03260912373661995,0.0720900222659111,-1.087037682533264,0.001472572446800768,-0.0004860193002969027,-0.005749798379838467,-6.113951531006023e-05,-0.0009532810654491186,-0.0003896479902323335,,,,,,
1.166259170,,,,,,,,,,,1.00346577167511,1,-0.2363841086626053,1,-0.8583868741989136,1
1.170435309,0.005,-0.05035308748483658,-0.04028759151697159,-1.000327825546265,-0.001041813520714641,-0.0002969997876789421,-0.004404834471642971,3.491835013846867e-05,-0.0002724617079365999,-4.763654942507856e-05,,,,,,
1.171268582,,,,,,,,,,,-0.09666204452514648,1,-0.4106946587562561,1,-0.008108071982860565,1
1.175471902,0.005,-0.02743619680404663,-0.02109658159315586,-0.8903053998947144,0.000131616965518333,-6.210945139173418e-05,-0.00394325377419591,-0.0003662929811980575,-0.000526120827998966,0.0001145051719504409,,,,,,
1.176273465,,,,,,,,,,,0.09355372190475464,1,-0.187055841088295,1,1.070791721343994,1
1.180486202,0.005,-0.06523515284061432,-0.07133352756500244,-1.070847988128662,-0.0007236178498715162,-0.0005565002793446183,-0.006194143556058407,-0.0005300398333929479,-0.0002250992256449535,0.0004024446243420243,,,,,,
1.181273580,,,,,,,,,,,-0.3959570229053497,1,-0.559914231300354,1,-0.6998050808906555,1
1.185476065,0.005,0.07586556673049927,-0.07672575116157532,-1.07948112487793,-0.0004935943288728595,0.001225579180754721,-0.005612856708467007,-0.0003460100560914725,0.0007099354988895357,0.0002115560637321323,,,,,,
1.186268926,,,,,,,,,,,-0.4482881724834442,1,0.819012463092804,1,-0.7844462394714355,1
1.190443754,0.005,-0.01418657042086124,0.03233296424150467,-0.9776799082756042,0.001003230921924114,-0.0006546751246787608,-0.00448840344324708,0.0004212136554997414,-4.3665411794791e-05,-0.0002243649942101911,,,,,,
1.191259861,,,,,,,,,,,0.6189601421356201,1,-0.06441263109445572,1,0.2139553427696228,1
1.195388436,0.005,-0.02619064226746559,-0.08947733789682388,-0.8247148990631104,-0.001245143706910312,-0.0001277599076274782,-0.002808501478284597,-0.0002601625164970756,-0.0006652588490396738,0.0001666798780206591,,,,,,
1.196246028,,,,,,,,,,,-0.5733377933502197,1,-0.1826833784580231,1,1.713964700698853,1
1.200309753,0.005,-0.02718446403741837,-0.07047381997108459,-1.112558484077454,-0.0002986487816087902,-0.0002107025502482429,-0.007551043294370174,-0.0007881329511292279,0.0006670804577879608,0.000212838698644191,,,,,,
1.201227546,,,,,,,,,,,-0.3870044350624084,1,-0.1961610913276672,1,-1.108788728713989,1
1.205208302,0.005,0.04074328392744064,-0.04858039692044258,-0.9929293990135193,-8.10718338470906e-05,0.000748383579775691,-0.004124495200812817,0.0004369414527900517,0.0002831049496307969,0.000274854595772922,,,,,,
1.206204176,,,,,,,,,,,-0.1743308007717133,1,0.4679854512214661,1,0.06444885581731796,1
1.210083842,0.005,-0.07825936377048492,0.01210078224539757,-0.8060091137886047,0.000601003528572619,-0.001078459667041898,-0.00307697057723999,0.0004407734959386289,-0.0007192567572928965,-0.0003325456054881215,,,,,,
1.211176395,,,,,,,,,,,0.4205282628536224,1,-0.6976154446601868,1,1.897507548332214,1
1.214938641,0.005,-0.1326847076416016,-0.1433981359004974,-0.791326642036438,-0.001776951132342219,-0.001061138929799199,-0.003729993477463722,-0.0005193135584704578,-0.0001882705837488174,-0.0001719848514767364,,,,,,
1.216144443,,,,,,,,,,,-1.101617813110352,1,-1.230961918830872,1,2.041405200958252,1
1.219771624,0.005,-0.04799310490489006,-0.1558648645877838,-1.368362069129944,-0.001000843942165375,0.0001291880034841597,-0.01035045366734266,-0.001031571649946272,0.00174446206074208,0.0001648267934797332,,,,,,
1.221107721,,,,,,,,,,,-1.227309465408325,1,-0.4043524861335754,1,-3.617247581481934,1
1.224581599,0.005,0.1691154986619949,0.02018602192401886,-1.114595770835876,0.001089974190108478,0.002342974068596959,-0.004310527350753546,0.0006387986359186471,0.0008567820768803358,0.0003891389933414757,,,,,,
1.226066470,,,,,,,,,,,0.4910926520824432,1,1.721423983573914,1,-1.128388047218323,1
1.229455352,0.005,-0.03181493282318115,0.08227752149105072,-0.935884952545166,0.0009864824824035168,-0.001338135218247771,-0.003544176230207086,0.0005698277964256704,-0.001749790040776134,-0.0002668587840162218,,,,,,
1.231106758,,,,,,,,,,,1.099314212799072,1,-0.2461755573749542,1,0.624170184135437,1
1.234651446,0.005,-0.02515994012355804,-0.1640817672014236,-0.7890251278877258,-0.002234545536339283,-9.114165732171386e-05,-0.002786837052553892,-0.0008867239230312407,-0.001150920754298568,-6.152933201519772e-05,,,,,,
1.236142874,,,,,,,,,,,-1.309095025062561,1,-0.1820518374443054,1,2.06415057182312,1
1.239823818,0.005,-0.05385848134756088,-0.07088670879602432,-1.014163017272949,0.0001298274000873789,-0.0005310812266543508,-0.006401604041457176,-0.0006576369632966816,0.0008965044980868697,0.000438827381003648,,,,,,
1.241174221,,,,,,,,,,,-0.3931106626987457,1,-0.4669035673141479,1,-0.1437377035617828,1
1.244972587,0.005,0.02354136668145657,-0.06957514584064484,-1.181809067726135,-0.0002295738231623545,0.0006786652957089245,-0.006901678629219532,-0.0003286818391643465,1.514628002041718e-05,0.0003553173446562141,,,,,,
1.246201038,,,,,,,,,,,-0.3804360628128052,1,0.2874173521995544,1,-1.78774881362915,1
1.250101805,0.005,0.05690673738718033,-0.0896492600440979,-1.06354284286499,-0.0006964899366721511,0.0004719728021882474,-0.004817873705178499,0.0004788938094861805,0.0009456860134378076,-5.683777544618351e-06,,,,,,
1.251224041,,,,,,,,,,,-0.5798346996307373,1,0.6132006049156189,1,-0.6278669238090515,1
1.255207658,0.005,-0.03847399353981018,0.05509310215711594,-1.00531280040741,0.001250362023711205,-0.0007019804324954748,-0.004540873691439629,0.0005052855121903121,-0.0002880928514059633,-0.0004128364671487361,,,,,,
1.256242394,,,,,,,,,,,0.8365382552146912,1,-0.3202456831932068,1,-0.05674183368682861,1
1.260289788,0.005,-0.1020887121558189,-0.02960178628563881,-0.8001875281333923,-0.0006129938410595059,-0.0008798048947937787,-0.00278852297924459,0.0004155925707891583,-0.0009965986246243119,-0.0001682693400653079,,,,,,
1.261256218,,,,,,,,,,,0.008564591407775879,1,-0.9413528442382812,1,1.95475435256958,1
1.265348911,0.005,-0.111171618103981,-0.08974025398492813,-0.7744125127792358,-0.0008498457609675825,-0.0006816059467382729,-0.003677376080304384,-0.0003927530779037625,0.0002633846888784319,0.0002315581950824708,,,,,,
1.266265392,,,,,,,,,,,-0.578857421875,1,-1.028984308242798,1,2.207441091537476,1
1.270385146,0.005,0.03043971210718155,-0.008792439475655556,-0.9271337985992432,0.0004330021620262414,0.001035335706546903,-0.005390689708292484,-0.0005397832719609141,0.0001312218664679676,0.0002400039811618626,,,,,,
1.271269679,,,,,,,,,,,0.2146168500185013,1,0.3577587604522705,1,0.7097797393798828,1
1.275398135,0.005,0.006251472979784012,-0.1075850650668144,-1.230664253234863,-0.00109767378307879,-0.0001606319274287671,-0.008081316947937012,0.0002413107868051156,-6.478826253442094e-05,0.0001108651849790476,,,,,,
1.276269555,,,,,,,,,,,-0.7532123923301697,1,0.119433119893074,1,-2.266860723495483,1
1.280387044,0.005,0.05928438901901245,-0.001747608184814453,-1.213253259658813,0.0004805951612070203,0.0006379310507327318,-0.00609308946877718,5.834266994497739e-05,0.001154413912445307,-0.0001121884561143816,,,,,,
1.281264663,,,,,,,,,,,0.2807621359825134,1,0.6391013860702515,1,-2.095994234085083,1
1.285352230,0.005,0.03737203031778336,0.01085490640252829,-0.7788033485412598,0.0001760693412506953,0.0001652843930060044,-0.00138302706182003,0.001010757405310869,-0.0007502837688662112,-0.0003554100985638797,,,,,,
1.286255121,,,,,,,,,,,0.4025724232196808,1,0.4272393882274628,1,2.16454029083252,1
1.290293813,0.005,-0.168218582868576,0.03179899975657463,-0.8748169541358948,0.0004436084418557584,-0.002155463909730315,-0.004729464184492826,-0.0003216102486476302,-0.00177598197478801,-0.0003190730349160731,,,,,,
1.291240454,,,,,,,,,,,0.6138335466384888,1,-1.58513069152832,1,1.222761631011963,1
1.295211554,0.005,0.04875637963414192,-0.1468232721090317,-0.7177277207374573,-0.002018832368776202,0.001640913193114102,-0.002585503738373518,0.0001222432474605739,5.211140887695365e-05,0.0005946808378212154,,,,,,
1.296221137,,,,,,,,,,,-1.130226969718933,1,0.5426128506660461,1,2.763041496276855,1
1.300105929,0.005,-0.06587745249271393,-0.06965561211109161,-1.180135726928711,0.0001501523365732282,-0.001173024764284492,-0.008862494491040707,0.0005304228398017585,0.001114588347263634,0.0001118907312047668,,,,,,
1.301197529,,,,,,,,,,,-0.3739387392997742,1,-0.5783700942993164,1,-1.771635770797729,1
1.304978967,0.005,0.003365423530340195,-0.02817581593990326,-0.8577653765678406,0.0001267758198082447,0.0006967339431867003,-0.00199816795065999,0.001081557129509747,-7.155285402404843e-06,-0.0003245366096962243,,,,,,
1.306169033,,,,,,,,,,,0.03075303137302399,1,0.1055862903594971,1,1.389767050743103,1
1.309828401,0.005,-0.07568992674350739,-0.1716520488262177,-1.326643943786621,-0.001632698345929384,-0.001087896758690476,-0.009552541188895702,-0.0009560056496411562,0.0002712113200686872,-0.0003291142347734421,,,,,,
1.311135769,,,,,,,,,,,-1.377079725265503,1,-0.6672937870025635,1,-3.208351373672485,1
1.314654231,0.005,0.03460989147424698,-0.1333731710910797,-1.403619408607483,-0.0004077439079992473,0.0008985307067632675,-0.007408818230032921,-0.0001760018349159509,0.000882231630384922,0.0001505615655332804,,,,,,
1.316097736,,,,,,,,,,,-1.006348729133606,1,0.4133937656879425,1,-3.96307110786438,1
1.319457293,0.005,0.148495614528656,-0.02123842388391495,-1.327871203422546,0.0002963184961117804,0.001332588260993361,-0.00651157321408391,-0.000485493044834584,0.00112995330709964,0.0003000926517415792,,,,,,
1.321055174,,,,,,,,,,,0.08688545227050781,1,1.527495741844177,1,-3.22002124786377,1
1.324326158,0.005,-0.03890228271484375,0.2515060901641846,-0.7907646894454956,0.003195341443642974,-0.001223193015903234,-0.0006509317900054157,0.001212688744999468,-0.002637289464473724,-0.0007215392543002963,,,,,,
1.326096177,,,,,,,,,,,2.761742353439331,1,-0.307925820350647,1,2.047173261642456,1
1.329525471,0.005,-0.03380334749817848,-0.1031524837017059,-0.5671672224998474,-0.00272760191000998,-0.00028463383205235,-0.001405597780831158,-0.001022344105876982,-0.002379629760980606,5.827979839523323e-05,,,,,,
1.331132650,,,,,,,,,,,-0.701570987701416,1,-0.2591532468795776,1,4.239458084106445,1
1.334701300,0.005,-0.09443415701389313,-0.05285163968801498,-0.5311578512191772,-5.87649192311801e-05,-0.0006515197455883026,-0.00233246898278594,0.001051398692652583,0.0006359538529068232,0.0004721881414297968,,,,,,
1.336164355,,,,,,,,,,,-0.2002494484186172,1,-0.8517816066741943,1,4.592320442199707,1
1.339852333,0.005,-0.06427085399627686,-0.1344824582338333,-1.122766613960266,-0.001164098037406802,-0.0003118711756542325,-0.009047023020684719,-0.0009578244062140584,0.0009656210313551128,-2.61566492554266e-05,,,,,,
1.341191888,,,,,,,,,,,-0.9994871616363525,1,-0.5560945272445679,1,-1.209415197372437,1
1.344981790,0.005,0.09562189877033234,-0.1404252350330353,-0.8648098707199097,-0.0008422984974458814,0.001682944712229073,-0.003079640911892056,0.002051659859716892,0.002669699257239699,-0.0001007797545753419,,,,,,
1.346214890,,,,,,,,,,,-1.066031217575073,1,1.014516592025757,1,1.320518493652344,1
1.350087404,0.005,-0.1686496436595917,0.1242427602410316,-1.35806405544281,0.00232483958825469,-0.002719739684835076,-0.009556137956678867,-0.0002636421995703131,0.0008341902866959572,-0.0009180394699797034,,,,,,
1.351233244,,,,,,,,,,,1.516018509864807,1,-1.569804072380066,1,-3.516304731369019,1
1.355170012,0.005,0.1167763620615005,-0.05368931591510773,-1.183411598205566,-0.001454401644878089,0.002363191684707999,-0.005077284295111895,-0.0001450807612854987,-0.0009523140615783632,-3.889600338879973e-05,,,,,,
1.356246829,,,,,,,,,,,-0.2323641180992126,1,1.228964447975159,1,-1.803433299064636,1
1.360229850,0.005,-0.03872860968112946,0.03095361217856407,-1.256564497947693,0.0007161514367908239,-0.001109363627620041,-0.006808849051594734,0.000469633232569322,-0.0003215151082258672,0.0005135601386427879,,,,,,
1.361255646,,,,,,,,,,,0.5968731045722961,1,-0.2927524447441101,1,-2.520817041397095,1
1.365265369,0.005,-0.04318205267190933,0.08078434318304062,-0.7532210946083069,0.0008115964010357857,-5.69840194657445e-05,-0.0004505700489971787,7.59735339670442e-05,-0.002331058029085398,-0.0003119058383163065,,,,,,
1.366259933,,,,,,,,,,,1.092279672622681,1,-0.3346778750419617,1,2.415076732635498,1
1.370277643,0.005,0.006576428189873695,-0.1496953070163727,-0.8056522011756897,-0.001995566068217158,0.0001868978288257495,-0.004505887161940336,-0.0008965388406068087,-0.001906362944282591,0.0002569233765825629,,,,,,
1.371259928,,,,,,,,,,,-1.154301762580872,1,0.1520456969738007,1,1.900478005409241,1
1.375267029,0.005,-0.06444521993398666,-0.3452054262161255,-1.158137679100037,-0.002980276010930538,-0.0006700849626213312,-0.007737231440842152,0.0008350415155291557,0.002113421447575092,0.000491573300678283,,,,,,
1.376255035,,,,,,,,,,,-3.066168785095215,1,-0.5442843437194824,1,-1.556396245956421,1
1.380232930,0.005,-0.1225984543561935,0.03187688440084457,-1.096197247505188,0.002151987049728632,-0.0007482802029699087,-0.004935477394610643,0.001166759990155697,0.00305197574198246,-0.0006569983088411391,,,,,,
1.381245494,,,,,,,,,,,0.6195355653762817,1,-1.109575152397156,1,-0.9486318826675415,1
1.385176063,0.005,-0.1202028170228004,0.002402354031801224,-1.061198830604553,0.0001531990128569305,-0.0006583511712960899,-0.005312055815011263,-0.0003395732492208481,-0.001710533164441586,-0.0009454397368244827,,,,,,
1.386231065,,,,,,,,,,,0.3252589702606201,1,-1.083054900169373,1,-0.6052756905555725,1
1.390095830,0.005,-0.1643912941217422,-0.1108549535274506,-1.285548329353333,-0.001184343127533793,-0.001115136663429439,-0.007626471109688282,0.0003477767750155181,-0.0008685579523444176,0.0001982755784410983,,,,,,
1.391211987,,,,,,,,,,,-0.7822897434234619,1,-1.513193607330322,1,-2.805516004562378,1
1.394996166,0.005,0.05947677791118622,-0.108475387096405,-1.062778830528259,-0.000677138043101877,0.001640892238356173,-0.00418969476595521,0.0001372088445350528,0.0009023902821354568,0.0004188297607470304,,,,,,
1.396191716,,,,,,,,,,,-0.7590398788452148,1,0.6835315823554993,1,-0.6209002137184143,1
1.399887919,0.005,0.01864982955157757,0.04897437989711761,-0.67645663022995,0.001246524625457823,-3.130089316982776e-05,-0.001044379430823028,0.0009672019514255226,-0.0009064231417141855,-0.000237331201788038,,,,,,
1.401167154,,,,,,,,,,,0.7854917049407959,1,0.2879563570022583,1,3.167562246322632,1
1.404757261,0.005,-0.04124759137630463,-0.1807455122470856,-0.817761242389679,-0.002022309694439173,-0.0006595032173208892,-0.004535506013780832,-0.0006619569612666965,-0.00131274841260165,-0.0004248848126735538,,,,,,
1.406137824,,,,,,,,,,,-1.460580468177795,1,-0.2966359853744507,1,1.781594276428223,1
1.409604549,0.005,0.07565148174762726,-0.111150898039341,-1.098348021507263,-0.0004121288366150111,0.001085273688659072,-0.00729075213894248,-0.0003909935767296702,0.002055243588984013,0.0002308856492163613,,,,,,
1.411104202,,,,,,,,,,,-0.7785642147064209,1,0.8473583459854126,1,-0.9699791669845581,1
1.414429426,0.005,-0.001356324180960655,0.04667569696903229,-1.115259885787964,0.001239129924215376,-0.0004578156513161957,-0.005970994476228952,0.001100855297408998,0.0006695580668747425,-0.000281889399047941,,,,,,
1.416065812,,,,,,,,,,,0.7625526785850525,1,0.09464135766029358,1,-1.135648012161255,1
1.419315934,0.005,-0.03596219047904015,-0.06223112344741821,-0.858046293258667,-0.0008708032546564937,-0.0004065838584210724,-0.002515223110094666,5.362874435377307e-05,-0.001120011322200298,-0.0002533119695726782,,,,,,
1.421106935,,,,,,,,,,,-0.3059205412864685,1,-0.2412140518426895,1,1.38673210144043,1
1.424516559,0.005,-0.0208408460021019,-0.1537571847438812,-1.31143057346344,-0.001461587613448501,-0.0001775224227458239,-0.009487971663475037,-0.001264309859834611,0.001037178095430136,0.0001600429241079837,,,,,,
1.426143527,,,,,,,,,,,-1.203918933868408,1,-0.09503647685050964,1,-3.059410333633423,1
1.429693222,0.005,0.01278858073055744,0.1158983260393143,-1.025526404380798,0.002105353400111198,0.0004150749300606549,-0.003428041469305754,0.00107611867133528,0.000864254601765424,-0.0001238140393979847,,,,,,
1.431175470,,,,,,,,,,,1.433956265449524,1,0.2345519810914993,1,-0.2554464340209961,1
1.434844971,0.005,-0.01424583047628403,0.05938978493213654,-0.7339528203010559,0.0001143174013122916,-0.0002891338954214007,-0.001989441690966487,-0.0004015732556581497,-0.002632905729115009,-3.749045936274342e-05,,,,,,
1.436202765,,,,,,,,,,,0.8832968473434448,1,-0.02964597009122372,1,2.603797197341919,1
1.439977169,0.005,-0.07315202057361603,-0.1611521691083908,-0.9152678251266479,-0.002217758214101195,-0.000725237128790468,-0.005668937228620052,-0.000409651140216738,-0.00059168302686885,9.730410238262266e-05,,,,,,
1.441226244,,,,,,,,,,,-1.270382404327393,1,-0.6085404753684998,1,0.8254300951957703,1
1.445086956,0.005,0.01536091975867748,-0.185835063457489,-0.9052106142044067,-0.00117661792319268,0.0007672872161492705,-0.004215099848806858,-0.0001474008022341877,0.001850434229709208,0.0002760472416412085,,,,,,
1.446245432,,,,,,,,,,,-1.512555360794067,1,0.2568790316581726,1,0.9240918159484863,1
1.450173140,0.005,0.06342925131320953,0.03335860371589661,-1.075199842453003,0.001588473911397159,0.0004700410063378513,-0.006666766013950109,-0.0005712568527087569,0.0007259749691002071,-0.0003557048039510846,,,,,,
1.451259851,,,,,,,,,,,0.6305378675460815,1,0.725422739982605,1,-0.7427008748054504,1
1.455237150,0.005,0.02062144316732883,0.004788072779774666,-0.9270683526992798,-0.0001012581924442202,-3.157938772346824e-05,-0.003715189173817635,0.0006781498086638749,-0.0007623539422638714,-0.0002375970798311755,,,,,,
1.456269860,,,,,,,,,,,0.3487849235534668,1,0.3049973547458649,1,0.7100308537483215,1
1.460277557,0.005,-0.05142631754279137,-0.06302406638860703,-0.8229953646659851,-0.0007818414596840739,-0.0007975464686751366,-0.003435581456869841,-0.0003549385874066502,-0.0003865283215418458,-0.000129154184833169,,,,,,
1.461274862,,,,,,,,,,,-0.314560741186142,1,-0.4009503424167633,1,1.730581998825073,1
1.465295076,0.005,0.004809222184121609,-0.1812900602817535,-1.116366624832153,-0.001495178556069732,0.0003679980582091957,-0.007100018206983805,-0.001338800298981369,0.0001777421712176874,0.0003806976310443133,,,,,,
1.466275573,,,,,,,,,,,-1.47282600402832,1,0.145456850528717,1,-1.146403312683105,1
1.470290184,0.005,0.136881947517395,0.06124097108840942,-1.014749884605408,0.00156124378554523,0.001422200119122863,-0.004864448215812445,-0.0004742010205518454,0.001224500825628638,0.0002537518739700317,,,,,,
1.471271634,,,,,,,,,,,0.9010542631149292,1,1.434658885002136,1,-0.149688184261322,1
1.475261450,0.005,0.03697173669934273,0.04481837525963783,-1.050261616706848,0.0003494925331324339,-0.0003193022275809199,-0.005129527766257524,0.0006028416100889444,-0.002169553656131029,2.025710273301229e-05,,,,,,
1.476262927,,,,,,,,,,,0.7425566911697388,1,0.4528258442878723,1,-0.4979987144470215,1
1.480209947,0.005,-0.005451230797916651,-0.1596589535474777,-1.073659420013428,-0.002062277169898152,-0.0003290593449492007,-0.00562524376437068,0.0001866749953478575,-0.000721567019354552,2.537307409511413e-05,,,,,,
1.481249809,,,,,,,,,,,-1.254904389381409,1,0.03654853999614716,1,-0.727696418762207,1
1.485135078,0.005,-0.02324250712990761,-0.1492221057415009,-0.9146183729171753,-0.0008944820147007704,-0.0002391873567830771,-0.00374049786478281,0.0004737660347018391,0.001480701263062656,1.168399876405601e-06,,,,,,
1.486231804,,,,,,,,,,,-1.151743650436401,1,-0.1358656585216522,1,0.8319216966629028,1
1.490037799,0.005,-0.07714623957872391,0.05286525934934616,-0.9577439427375793,0.001690659439191222,-0.0007730210199952126,-0.004807802848517895,-0.0004881516506429762,-0.0006460336153395474,-0.0002834057668223977,,,,,,
1.491209984,,,,,,,,,,,0.8295862674713135,1,-0.6631182432174683,1,0.4090075492858887,1
1.494919658,0.005,0.0696374922990799,-0.2269814312458038,-1.185660004615784,-0.003031655913218856,0.001212118775583804,-0.007414083927869797,-0.0001260184508282691,0.0006711844471283257,0.0004241474962327629,,,,,,
1.496183515,,,,,,,,,,,-1.912716150283813,1,0.7740808725357056,1,-1.826129198074341,1
1.499779105,0.005,0.06570538133382797,-0.03623365238308907,-1.156651854515076,0.0009626596583984792,0.0002833355101756752,-0.005719657987356186,0.000436700094724074,0.001766243600286543,0.0001262024452444166,,,,,,
1.501152515,,,,,,,,,,,-0.04958787560462952,1,0.7368190288543701,1,-1.54143488407135,1
1.504616499,0.005,0.06833145022392273,0.0855695977807045,-0.6750673651695251,0.001210863003507257,0.000463979464257136,-0.0004587126313708723,0.0006118073360994458,-0.001327848643995821,-0.0002101970458170399,,,,,,
1.506116867,,,,,,,,,,,1.141634464263916,1,0.7648284435272217,1,3.181375980377197,1
1.509431601,0.005,-0.002095769159495831,-0.2642830908298492,-0.8138934969902039,-0.003226927481591702,-0.0006112524424679577,-0.00470269238576293,-0.001073661143891513,-0.001171409036032856,0.000428441067924723,,,,,,
1.511076331,,,,,,,,,,,-2.283175468444824,1,0.07483350485563278,1,1.81976056098938,1
1.514310598,0.005,0.08454465121030807,-0.148104801774025,-1.316164016723633,-0.0003442296874709427,0.000878511811606586,-0.009579980745911598,-0.0006543976487591863,0.002515111351385713,0.0007536675548180938,,,,,,
1.516118050,,,,,,,,,,,-1.147241353988647,1,0.919581413269043,1,-3.105680227279663,1
1.519513369,0.005,0.1535062491893768,0.03652843087911606,-1.210845589637756,0.001211391994729638,0.00115911231841892,-0.005817088764160872,0.0004896225873380899,0.0007319515570998192,8.77095153555274e-05,,,,,,
1.521154761,,,,,,,,,,,0.6545423269271851,1,1.593526721000671,1,-2.07256817817688,1
1.524691701,0.005,0.03163696825504303,-0.00724165141582489,-0.738722562789917,1.076568150892854e-05,-0.0005582375451922417,-0.0008226301288232207,0.0005203097825869918,-0.002350677503272891,-0.0001604021526873112,,,,,,
1.526187301,,,,,,,,,,,0.2263660430908203,1,0.4004709124565125,1,2.557328224182129,1
1.529845715,0.005,-0.08038552850484848,-0.2261738479137421,-0.9059491157531738,-0.002576703671365976,-0.001143818721175194,-0.005167471244931221,-0.001320540555752814,-5.752324432251044e-05,0.0004701791913248599,,,,,,
1.531214833,,,,,,,,,,,-1.914610624313354,1,-0.6999589204788208,1,0.9172279238700867,1
1.534976006,0.005,0.03587581962347031,-0.1777785271406174,-1.254829883575439,-0.0005983356386423111,0.0008925654692575336,-0.008404051885008812,-0.0007270347559824586,0.001475742785260081,0.0007104694377630949,,,,,,
1.536237597,,,,,,,,,,,-1.441664338111877,1,0.4336611032485962,1,-2.504016876220703,1
1.540081978,0.005,0.1284803599119186,0.03053291514515877,-0.9744788408279419,0.001367955468595028,0.00120160449296236,-0.003534171031787992,0.000568585644941777,0.0002977572730742395,0.0004611986805684865,,,,,,
1.541255713,,,,,,,,,,,0.5958178043365479,1,1.33911120891571,1,0.2454746961593628,1
1.545163989,0.005,-0.03108692914247513,-0.07555976510047913,-0.745031476020813,-0.0008443318074569106,-0.001038319780491292,-0.002149411709979177,0.0005810942384414375,-0.001573432586155832,9.580203186487779e-05,,,,,,
1.546270728,,,,,,,,,,,-0.4422523081302643,1,-0.2238416075706482,1,2.495500326156616,1
1.550230026,0.005,-0.01254981011152267,-0.2098380327224731,-0.8831382989883423,-0.001949507277458906,-5.994513048790395e-05,-0.005047192797064781,-0.001013237866573036,0.0004907263210043311,0.000419517804402858,,,,,,
1.551280856,,,,,,,,,,,-1.75613272190094,1,-0.04357980191707611,1,1.141058206558228,1
1.555272937,0.005,0.1221339032053947,-0.1782582849264145,-1.092196941375732,-0.0007235219236463308,0.00143079087138176,-0.006835236214101315,-0.0004327998904045671,0.001333975465968251,0.0009705430129542947,,,,,,
1.556286454,,,,,,,,,,,-1.449877619743347,1,1.273152112960815,1,-0.9089708924293518,1
1.560291052,0.005,0.06936930865049362,-0.05487246811389923,-1.176122546195984,0.0004378787707537413,-7.459643529728055e-05,-0.006621761713176966,5.976722968625836e-05,0.0007851455011405051,0.0002375131443841383,,,,,,
1.561287165,,,,,,,,,,,-0.2468009740114212,1,0.753593385219574,1,-1.731775879859924,1
1.565286160,0.005,0.01496585831046104,-0.05225171521306038,-0.9850963354110718,-0.0002199388400185853,-8.383768727071583e-05,-0.003490184433758259,0.000200595983187668,-0.0006355777732096612,0.0001160958709078841,,,,,,
1.566283464,,,,,,,,,,,-0.2237613797187805,1,0.2188579738140106,1,0.1416411995887756,1
1.570258141,0.005,-0.01276068948209286,-0.07082945853471756,-0.9985949993133545,-0.0004395203432068229,-0.0003540461475495249,-0.005249659065157175,-0.0006963828927837312,-0.0006118533201515675,0.0003418266132939607,,,,,,
1.571274996,,,,,,,,,,,-0.4047359228134155,1,-0.05521479249000549,1,0.009244441986083984,1
1.575208902,0.005,0.06199539452791214,-0.1555712521076202,-0.8874744176864624,-0.001275030430406332,0.000781903974711895,-0.003716109786182642,-0.0003579538897611201,-0.0003501051687635481,0.001001711818389595,,,,,,
1.576262355,,,,,,,,,,,-1.232832789421082,1,0.6744666695594788,1,1.098901391029358,1
1.580137253,0.005,0.01964280940592289,-0.06642467528581619,-1.099892497062683,8.654518751427531e-05,-0.0002117741387337446,-0.006851715967059135,-1.86473823760025e-06,0.000585091533139348,0.0007400114554911852,,,,,,
1.581245184,,,,,,,,,,,-0.3586207628250122,1,0.2571134567260742,1,-0.9841923117637634,1
1.585042477,0.005,0.0963679701089859,-0.1111748814582825,-0.9113130569458008,-0.0007429346442222595,0.001032446743920445,-0.003348583122715354,0.0002730311243794858,-0.0004427485982887447,0.0004616496444214135,,,,,,
1.586223364,,,,,,,,,,,-0.7967157959938049,1,1.008288502693176,1,0.865126371383667,1
1.589925647,0.005,0.05199849978089333,-0.1745756268501282,-0.9574499726295471,-0.001365265110507607,-1.619616887182929e-05,-0.005064721219241619,-0.0001221839484060183,0.0006146084633655846,0.0005863198894076049,,,,,,
1.591196895,,,,,,,,,,,-1.418888330459595,1,0.5730535984039307,1,0.4126911759376526,1
1.594787121,0.005,0.02450806647539139,-0.1447922736406326,-1.305725574493408,-0.0004846952215302736,-0.0001020771596813574,-0.008520941250026226,-0.0007510414579883218,0.0005652302061207592,0.0004609651805367321,,,,,,
1.596166134,,,,,,,,,,,-1.129937887191772,1,0.3009074926376343,1,-3.002618074417114,1
1.599628091,0.005,0.1155554205179214,0.01691911183297634,-1.047980308532715,0.001006231177598238,0.00120449427049607,-0.003945094533264637,0.0007342120516113937,-0.0001096956038963981,0.0006817599642090499,,,,,,
1.601131797,,,,,,,,,,,0.4528883099555969,1,1.192570090293884,1,-0.47490394115448,1
1.604448795,0.005,0.03842088207602501,-0.04559087008237839,-0.5668461322784424,-0.0004808666417375207,-0.0002861568937078118,4.161222750553861e-05,0.0005236826837062836,-0.001837717019952834,0.0005080021219328046,,,,,,
1.606092572,,,,,,,,,,,-0.1556622982025146,1,0.4392032623291016,1,4.243257999420166,1
1.609333277,0.005,-0.01701806858181953,-0.223891019821167,-0.7149989604949951,-0.002278053900226951,-0.000455269415397197,-0.004139556549489498,-0.0009363736025989056,-0.0001896607573144138,0.0007764940964989364,,,,,,
1.611134768,,,,,,,,,,,-1.897409796714783,1,-0.1048653721809387,1,2.790172338485718,1
1.614538193,0.005,0.08502143621444702,-0.2093210369348526,-1.215326189994812,-0.001077503780834377,0.001027598395012319,-0.0091277826577425,-0.0006268441793508828,0.001887695165351033,0.0009082344477064908,,,,,,
1.616172314,,,,,,,,,,,-1.756487846374512,1,0.8912512063980103,1,-2.116275310516357,1
1.619719148,0.005,0.1571743488311768,-0.0001312494277954102,-1.282077074050903,0.00125160301104188,0.001251552952453494,-0.007153442595154047,0.0009215206373482943,0.001074499101378024,0.0004569092998281121,,,,,,
1.621205211,,,,,,,,,,,0.2870180010795593,1,1.598435759544373,1,-2.770638227462769,1
1.624878645,0.005,0.04849815368652344,-0.01939509063959122,-0.7465602159500122,-2.796249464154243e-05,-0.0002552511286921799,-0.0003253009344916791,0.000972848676610738,-0.001699199317954481,0.0002450660103932023,,,,,,
1.626234412,,,,,,,,,,,0.09697988629341125,1,0.536767303943634,1,2.480997562408447,1
1.630016804,0.005,-0.05241041630506516,-0.1851770281791687,-0.9887425303459167,-0.002199520589783788,-0.00101924198679626,-0.006252188235521317,-0.001040659728460014,0.0003257335920352489,0.0005614614929072559,,,,,,
1.631258845,,,,,,,,,,,-1.525900840759277,1,-0.4519522488117218,1,0.1059113144874573,1
1.635130882,0.005,0.09313376247882843,-0.09018170088529587,-1.090963959693909,0.0003441237786319107,0.001318187220022082,-0.006261973641812801,-0.0004055154859088361,-2.694902286748402e-05,0.000908741494640708,,,,,,
1.636278510,,,,,,,,,,,-0.5949684977531433,1,0.9721356630325317,1,-0.896498441696167,1
1.640221238,0.005,0.02049135789275169,-0.0137944221496582,-1.042449474334717,0.0002501877024769783,-0.0002331627329112962,-0.004860782995820045,0.001044872216880322,0.000100293975265231,0.0009533842676319182,,,,,,
1.641293526,,,,,,,,,,,0.1539133787155151,1,0.2609378695487976,1,-0.4207344055175781,1
1.645287633,0.005,0.05660014972090721,-0.06958858668804169,-0.634021520614624,-0.0005247869994491339,0.0004856754385400563,-0.0008155833347700536,0.0002757413021754473,-0.0009799182880669832,0.0002876012003980577,,,,,,
1.646304011,,,,,,,,,,,-0.390379935503006,1,0.6174521446228027,1,3.584476470947266,1
1.650330067,0.005,-0.1190996542572975,-0.1348818838596344,-0.870466411113739,-0.001070735161192715,-0.00171867513563484,-0.005479196552187204,3.274006303399801e-05,0.0002087539760395885,0.0004807903605978936,,,,,,
1.651310086,,,,,,,,,,,-1.02781093120575,1,-1.102242231369019,1,1.26563549041748,1
1.655350804,0.005,0.0304834358394146,-0.1477789431810379,-1.092298865318298,-0.0009151872363872826,0.001072252984158695,-0.00684316735714674,-0.0004445684608072042,0.001390126068145037,0.0005749270203523338,,,,,,
1.656311274,,,,,,,,,,,-1.157177090644836,1,0.3627446293830872,1,-0.9096981287002563,1
1.660347700,0.005,0.01640700735151768,-0.002517649903893471,-1.052166223526001,0.0008500420954078436,5.226970824878663e-05,-0.005246457643806934,0.001304074889048934,0.0006771408952772617,0.0006350317853502929,,,,,,
1.661307931,,,,,,,,,,,0.2607363760471344,1,0.2280764281749725,1,-0.5159629583358765,1
1.665320992,0.005,-0.1248526945710182,-0.1026560068130493,-1.154762268066406,-0.0008586635813117027,-0.001514923176728189,-0.006301657762378454,-9.419881826033816e-05,-0.001142001012340188,8.420625817961991e-05,,,,,,
1.666299701,,,,,,,,,,,-0.7218414545059204,1,-1.153275012969971,1,-1.522096276283264,1
1.670270205,0.005,-0.05962587147951126,-0.1366214007139206,-1.026623964309692,-0.001214630901813507,0.0001413064310327172,-0.004245370626449585,6.665701221209019e-05,0.001336406799964607,0.0004610397736541927,,,,,,
1.671286821,,,,,,,,,,,-1.056781768798828,1,-0.5121563076972961,1,-0.2654451727867126,1
1.675196648,0.005,-0.03368667513132095,-0.08665340393781662,-1.168349266052246,0.0001046547549776733,-7.535763870691881e-05,-0.00674598990008235,-0.0008485995349474251,-0.0005078325630165637,0.000642256170976907,,,,,,
1.676269054,,,,,,,,,,,-0.5695345997810364,1,-0.2587161362171173,1,-1.655207872390747,1
1.680101871,0.005,0.02860689908266068,-0.1625523269176483,-1.408455014228821,-0.001283654593862593,0.0006018587737344205,-0.008408830501139164,-0.0003256905765738338,-0.000101701618405059,0.0009108388912864029,,,,,,
1.681247234,,,,,,,,,,,-1.313130259513855,1,0.348454087972641,1,-4.009834289550781,1
1.684984803,0.005,0.0489773154258728,0.04233216494321823,-1.059013605117798,0.001324275392107666,0.0004367440415080637,-0.003466852940618992,0.000774393614847213,0.0001502179220551625,0.0002279058244312182,,,,,,
1.686220765,,,,,,,,,,,0.6947767734527588,1,0.5477437376976013,1,-0.5829436779022217,1
1.689844489,0.005,0.002872256562113762,0.02644583955407143,-0.6221777200698853,0.0002462869451846927,-0.0002731555723585188,-0.0004319299478083849,0.0001845043443609029,-0.002763489494100213,0.0002579089486971498,,,,,,
1.691189528,,,,,,,,,,,0.5484737157821655,1,0.0967554897069931,1,3.700662851333618,1
1.694681048,0.005,-0.01142827980220318,-0.2666251957416534,-0.702702522277832,-0.003184090601280332,-0.0001339730806648731,-0.003831816138699651,-0.0001072676095645875,-0.000661345839034766,0.001070293132215738,,,,,,
1.696153402,,,,,,,,,,,-2.311699628829956,1,-0.04389308765530586,1,2.910559177398682,1
1.699501038,0.005,0.05239475890994072,-0.1367297917604446,-0.8918740153312683,-5.298928590491414e-05,0.0005753813311457634,-0.005742816254496574,0.0002351123985135928,0.002162440214306116,0.0009702628012746572,,,,,,
1.701115847,,,,,,,,,,,-1.037032127380371,1,0.5826367139816284,1,1.055397152900696,1
1.704307675,0.005,0.0315685048699379,-0.03628576919436455,-0.9343370795249939,0.0005476842634379864,0.0001898742484627292,-0.004715168382972479,0.0009557410958223045,0.0003282195830252022,0.0001551934110466391,,,,,,
1.706158042,,,,,,,,,,,-0.0561307892203331,1,0.3815947771072388,1,0.6390834450721741,1
1.709513783,0.005,-0.04523160308599472,-0.1144886165857315,-1.04434072971344,-0.001043085823766887,-0.000604279397521168,-0.005762769840657711,0.0002973283408209682,0.0002097473334288225,7.466423994628713e-05,,,,,,
1.711195946,,,,,,,,,,,-0.825696587562561,1,-0.3678046464920044,1,-0.439629465341568,1
1.714695930,0.005,-0.08387436717748642,-0.0796685516834259,-1.180614471435547,-0.0002446547150611877,-0.0008115251548588276,-0.007069521117955446,-8.023389818845317e-05,0.0007681665592826903,0.0002627327921800315,,,,,,
1.716229081,,,,,,,,,,,-0.4885666966438293,1,-0.7439705729484558,1,-1.775907754898071,1
1.719856143,0.005,0.03059309162199497,0.02359987609088421,-0.9379439353942871,0.0008154997485689819,0.0009910244261845946,-0.003090332262217999,0.0003245808475185186,-0.0005424159462563694,0.0006988651002757251,,,,,,
1.721257925,,,,,,,,,,,0.521395742893219,1,0.3801228702068329,1,0.6039472818374634,1
1.724992752,0.005,-0.03773879259824753,-0.0669889897108078,-0.8704392313957214,-0.0008480879478156567,-0.0006647792761214077,-0.004022395703941584,7.607749284943566e-05,-0.001508289598859847,0.0004094463656656444,,,,,,
1.726282239,,,,,,,,,,,-0.3623029589653015,1,-0.2875080704689026,1,1.265781879425049,1
1.730105877,0.005,-0.04569065943360329,-0.1805776804685593,-1.138316035270691,-0.001551597495563328,-0.0003318327071610838,-0.007059319876134396,-0.0007892203866504133,7.159592496464029e-05,0.0006684634136036038,,,,,,
1.731301904,,,,,,,,,,,-1.471072912216187,1,-0.3665752410888672,1,-1.361339569091797,1
1.735195160,0.005,0.1491051465272903,-0.1266766935586929,-1.058282375335693,-0.0005040159448981285,0.001950591569766402,-0.005032376386225224,0.000574540114030242,0.001331384177319705,0.0007005155785009265,,,,,,
1.736316919,,,,,,,,,,,-0.9440626502037048,1,1.541984677314758,1,-0.5764145851135254,1
1.740263462,0.005,-0.09159265458583832,0.07555712014436722,-1.028094053268433,0.001822332385927439,-0.001843533827923238,-0.004888792987912893,0.00111821573227644,-0.001036834786646068,1.806755426514428e-05,,,,,,
1.741328597,,,,,,,,,,,1.03783392906189,1,-0.8132702112197876,1,-0.2803720235824585,1
1.745312810,0.005,0.01918463781476021,-0.3147285580635071,-0.6630594730377197,-0.003951136488467455,0.0006478723371401429,-0.001162045053206384,-0.0001159424718935043,-0.0006485739722847939,0.0002886561851482838,,,,,,
1.746335983,,,,,,,,,,,-2.78414511680603,1,0.2761676609516144,1,3.299201250076294,1
1.750340104,0.005,-0.09415952116250992,-0.07551407814025879,-1.056268095970154,0.0008892801124602556,-0.001138174789957702,-0.00744404923170805,4.364224150776863e-05,0.001860558171756566,0.0006955050630494952,,,,,,
1.751338482,,,,,,,,,,,-0.4417038559913635,1,-0.8329790830612183,1,-0.5567728877067566,1
1.755343914,0.005,0.05721425637602806,-0.1170766800642014,-1.051693439483643,-0.0006350713083520532,0.001188755384646356,-0.005339184775948524,3.754481440410018e-05,-0.0008063226123340428,0.000471349514555186,,,,,,
1.756336331,,,,,,,,,,,-0.8511166572570801,1,0.6515061855316162,1,-0.5118551254272461,1
1.760324836,0.005,-0.03265754133462906,-0.1347852647304535,-1.269766807556152,-0.0008635712438262999,-0.0007815624121576548,-0.007754334714263678,0.0002986760227940977,0.0006253117462620139,0.0006278617074713111,,,,,,
1.761329889,,,,,,,,,,,-1.025769710540771,1,-0.2272029519081116,1,-2.650418758392334,1
1.765282512,0.005,0.08215049654245377,-0.05558393523097038,-0.7357746958732605,0.0001826431544031948,0.001314457389526069,-0.0004834998107980937,0.0007193388300947845,-3.446669870754704e-05,0.0002746684767771512,,,,,,
1.766318798,,,,,,,,,,,-0.2513741552829742,1,0.9006714224815369,1,2.586306095123291,1
1.770219207,0.005,-0.1208526045084,-0.07690848410129547,-0.8133212924003601,-0.000265397597104311,-0.001878795446828008,-0.004248131066560745,-0.0002211546379840001,-0.001823143567889929,0.0003131664998363703,,,,,,
1.771303415,,,,,,,,,,,-0.4563872516155243,1,-1.086643934249878,1,1.825673937797546,1
1.775132895,0.005,0.05822442099452019,-0.3031291961669922,-1.109247326850891,-0.00297364080324769,0.001260761171579361,-0.007435198873281479,-0.0009763068519532681,0.0002912041964009404,0.001136341481469572,,,,,,
1.776283145,,,,,,,,,,,-2.669243335723877,1,0.6664172410964966,1,-1.076511144638062,1
1.780023575,0.005,0.05367868766188622,-0.2095083594322205,-1.312137126922607,-0.0007510239374823868,0.0002490205224603415,-0.007934313267469406,0.001139253610745072,0.002878475468605757,0.00102597230579704,,,,,,
1.781258225,,,,,,,,,,,-1.75736403465271,1,0.6226710677146912,1,-3.065999984741211,1
1.784891605,0.005,0.009062089025974274,0.1155389994382858,-0.9498401284217834,0.002802612027153373,-0.0002706454833969474,-0.00277378736063838,0.0005086358287371695,-0.001235635718330741,-0.0002068758039968088,,,,,,
1.786229014,,,,,,,,,,,1.423410534858704,1,0.1891707181930542,1,0.487082302570343,1
1.789737225,0.005,-0.02549326419830322,-0.2403869032859802,-0.7111527919769287,-0.003347714664414525,-0.0002717119350563735,-0.001860266202129424,9.412525832885876e-05,-0.002032042946666479,0.0005881096003577113,,,,,,
1.791194916,,,,,,,,,,,-2.059367418289185,1,-0.1469752192497253,1,2.8275465965271,1
1.794563055,0.005,-0.08354587852954865,-0.2450074851512909,-1.151019096374512,-0.001290833693929017,-0.0008304961957037449,-0.00821180734783411,-0.0009034968679770827,0.0008068822789937258,0.0009623756050132215,,,,,,
1.796156883,,,,,,,,,,,-2.100868225097656,1,-0.7170673608779907,1,-1.486173510551453,1
1.799366713,0.005,0.08657002449035645,-0.1091127842664719,-1.205498218536377,0.0001533711038064212,0.001430353848263621,-0.00681663304567337,0.0002016846992773935,0.0008291570702567697,0.0007660631672479212,,,,,,
1.801199079,,,,,,,,,,,-0.7704126834869385,1,0.948702871799469,1,-2.020334720611572,1
1.804572463,0.005,-0.009413326159119606,-0.05388766527175903,-0.803561806678772,0.0002191536477766931,-0.0005210317904129624,-0.001523903803899884,0.001455608289688826,-0.001240815734490752,0.0003605572564993054,,,,,,
1.806236982,,,,,,,,,,,-0.2275944799184799,1,0.01161041855812073,1,1.921233057975769,1
1.809754133,0.005,-0.08851992338895798,-0.2278192937374115,-0.7251157164573669,-0.002194965491071343,-0.00099992286413908,-0.002966344589367509,-0.0005659807357005775,-0.0002263464266434312,0.0001913210871862248,,,,,,
1.811269879,,,,,,,,,,,-1.92898952960968,1,-0.7611558437347412,1,2.690361261367798,1
1.814913273,0.005,-0.03010666742920876,-0.2218827307224274,-1.132581472396851,-0.001208839705213904,9.323071571998298e-05,-0.008088361471891403,-0.0008226163918152452,0.001452736090868711,0.0007329012732952833,,,,,,
1.816298485,,,,,,,,,,,-1.872551560401917,1,-0.1904023289680481,1,-1.30543327331543,1
1.820049167,0.005,0.03503693640232086,-0.06358430534601212,-1.182716727256775,0.000649125489871949,0.0006753281923010945,-0.006386409047991037,0.0005404067924246192,0.0002973292430397123,0.0006847958429716527,,,,,,
1.821322799,,,,,,,,,,,-0.3254551887512207,1,0.4472218155860901,1,-1.796918392181396,1
1.825161457,0.005,-0.02155441232025623,-0.1006545796990395,-0.9495921730995178,-0.0006842577131465077,-0.0005435044877231121,-0.00358715932816267,0.0005856698262505233,-0.001019536284729838,0.0002210800012107939,,,,,,
1.826342106,,,,,,,,,,,-0.6884591579437256,1,-0.1054336428642273,1,0.4892122745513916,1
1.830250263,0.005,-0.1064812988042831,-0.1465966105461121,-0.7675772905349731,-0.001047019613906741,-0.0008702625636942685,-0.002299816347658634,0.0002514293882995844,-0.0005806388799101114,0.0004537824424915016,,,,,,
1.831356645,,,,,,,,,,,-1.135398387908936,1,-0.9356329441070557,1,2.27402925491333,1
1.835315228,0.005,-0.005085095763206482,-0.2483600527048111,-0.9421515464782715,-0.001808887347579002,0.0002750717103481293,-0.00610553752630949,-0.001236154465004802,-7.588600055896677e-06,0.0006159325130283833,,,,,,
1.836366892,,,,,,,,,,,-2.12995457649231,1,0.05724495649337769,1,0.561951756477356,1
1.840356350,0.005,-0.07428299635648727,-0.185209721326828,-1.340285420417786,-0.0006266834097914398,-0.0006592835998162627,-0.008848725818097591,0.0006019100546836853,0.001087666139937937,0.0009161005727946758,,,,,,
1.841372371,,,,,,,,,,,-1.512331128120422,1,-0.6227527856826782,1,-3.342341184616089,1
1.845374465,0.005,0.05299479514360428,-0.06633775681257248,-0.8206289410591125,0.0004420353507157415,0.001079666777513921,-0.001380727277137339,0.0006492510437965393,-0.0003326386795379221,0.0002266389201395214,,,,,,
1.846373320,,,,,,,,,,,-0.3490264713764191,1,0.6268153786659241,1,1.753809452056885,1
1.850370049,0.005,-0.1577449887990952,-0.2325885444879532,-0.9106318950653076,-0.00206723646260798,-0.002059787278994918,-0.004763365723192692,-9.543320629745722e-05,-0.001045744749717414,0.0001826230145525187,,,,,,
1.851369500,,,,,,,,,,,-1.976110577583313,1,-1.436696171760559,1,0.8710448145866394,1
1.855342031,0.005,-0.01790438964962959,-0.2404670417308807,-1.062012553215027,-0.001448131515644491,0.0007044181111268699,-0.006303874775767326,-0.0008046539733186364,0.001237854361534119,0.000596851808950305,,,,,,
1.856361270,,,,,,,,,,,-2.053550004959106,1,-0.06798930466175079,1,-0.6134564876556396,1
1.860293388,0.005,-0.03878076747059822,-0.1011186763644218,-1.145471334457397,0.0004105421248823404,-0.0002773002197500318,-0.006188195198774338,0.0003354072687216103,1.07803834907827e-05,0.0006771535845473409,,,,,,
1.861350417,,,,,,,,,,,-0.690122663974762,1,-0.2735097110271454,1,-1.431802988052368,1
1.865231395,0.005,0.005727946758270264,-0.1743219792842865,-0.9064602255821228,-0.001247139880433679,0.0003086867218371481,-0.003284420352429152,0.0002502936404198408,-0.00110173539724201,0.0004245660093147308,,,,,,
1.866335273,,,,,,,,,,,-1.40563428401947,1,0.1630301922559738,1,0.9120219945907593,1
1.870147109,0.005,-0.1048269346356392,-0.2738731801509857,-0.7999064326286316,-0.002019124105572701,-0.001216600416228175,-0.003210353199392557,4.827193333767354e-05,0.0001766362693160772,0.0003383015573490411,,,,,,
1.871315479,,,,,,,,,,,-2.378931999206543,1,-0.9195268750190735,1,1.956848382949829,1
1.875040293,0.005,-0.09112648665904999,-0.2141124457120895,-1.029446601867676,-0.0006624046363867819,-0.0003816466778516769,-0.006420647725462914,-0.0007180991815403104,0.0003748337330762297,0.0003402984875719994,,,,,,
1.876291275,,,,,,,,,,,-1.793392419815063,1,-0.7870674729347229,1,-0.2941356897354126,1
1.879911423,0.005,-0.1117705628275871,-0.2577471137046814,-1.298336029052734,-0.00163879303727299,-0.0006533011328428984,-0.008093803189694881,-0.0001221798593178391,0.0009719328372739255,0.0003759374958463013,,,,,,
1.881262302,,,,,,,,,,,-2.224200248718262,1,-0.9922807812690735,1,-2.930920839309692,1
1.884759784,0.005,-0.01867208257317543,-0.1153823733329773,-1.001466155052185,0.0002490735496394336,0.0004552665050141513,-0.003543366445228457,0.0003775489749386907,0.0005150112556293607,0.0001989269803743809,,,,,,
1.886228681,,,,,,,,,,,-0.8337304592132568,1,-0.08006230741739273,1,-0.01944112777709961,1
1.889587402,0.005,-0.1581978648900986,-0.1349397152662277,-0.8324484825134277,-0.0006444945465773344,-0.001626147539354861,-0.003033278044313192,5.807445631944574e-05,-0.001468843664042652,-7.007450767559931e-05,,,,,,
1.891191006,,,,,,,,,,,-1.022796630859375,1,-1.446658134460449,1,1.637954831123352,1
1.894392610,0.005,-0.1319649666547775,-0.252431720495224,-0.9445736408233643,-0.002022214233875275,-0.0005849006120115519,-0.005275328177958727,-0.001086664735339582,-0.0004722245503216982,0.0004037125036120415,,,,,,
1.896233678,,,,,,,,,,,-2.168713808059692,1,-1.192080855369568,1,0.5382144451141357,1
1.899599910,0.005,-0.008591601625084877,-0.2157351672649384,-1.124590158462524,-0.0009774108184501529,0.0006967972149141133,-0.00678180530667305,-0.0002353786112507805,0.0007924764067865908,0.0006935895653441548,,,,,,
1.901271582,,,,,,,,,,,-1.807268857955933,1,0.01327194273471832,1,-1.227147459983826,1
1.904783845,0.005,-0.0858035534620285,-0.1042192280292511,-0.9810552000999451,0.0002825311967171729,-0.0008256889414042234,-0.004148635547608137,0.0005547750042751431,-0.0007051922148093581,1.969798358913977e-05,,,,,,
1.906305075,,,,,,,,,,,-0.7129949331283569,1,-0.7445982694625854,1,0.1804373860359192,1
1.909945130,0.005,-0.1215501576662064,-0.2773330807685852,-0.8255624771118164,-0.002452196553349495,-0.0008627271745353937,-0.003103390336036682,-0.0001751205563778058,-0.0005092795472592115,-3.046985511900857e-05,,,,,,
1.911333919,,,,,,,,,,,-2.406142711639404,1,-1.095144629478455,1,1.705155730247498,1
1.915081739,0.005,-0.08488954603672028,-0.2302197515964508,-1.006637573242188,-0.000924887484870851,-0.0003022609162144363,-0.006157612893730402,-0.0006504629272967577,0.00103599380236119,0.0001697793341008946,,,,,,
1.916358113,,,,,,,,,,,-1.944634318351746,1,-0.7377955913543701,1,-0.07054580748081207,1
1.920194030,0.005,-0.04349932074546814,-0.1439820677042007,-1.022406101226807,-0.0002163227327400818,0.0001185626315418631,-0.005193393211811781,0.0002560934808570892,0.0001550778688397259,0.0002243066555820405,,,,,,
1.921377778,,,,,,,,,,,-1.101586699485779,1,-0.3339040279388428,1,-0.225079208612442,1
1.925283790,0.005,-0.0534299910068512,-0.1673421412706375,-0.9677693247795105,-0.0009112764382734895,-0.0004091791925020516,-0.004610902164131403,-7.694667874602601e-05,-0.0005792520823888481,2.322848922631238e-05,,,,,,
1.926392794,,,,,,,,,,,-1.33027970790863,1,-0.4315687716007233,1,0.3107156753540039,1
1.930350065,0.005,-0.04068928956985474,-0.2156198173761368,-0.9959457516670227,-0.001424157759174705,-0.00011638554133242,-0.00508980406448245,-0.0002313064323971048,0.0001984147966140881,-4.966916094417684e-05,,,,,,
1.931403279,,,,,,,,,,,-1.802849769592285,1,-0.3078197836875916,1,0.03438381478190422,1
1.935392499,0.005,-0.03954941034317017,-0.1133238673210144,-0.9168376326560974,2.450220927130431e-05,-9.06352506717667e-05,-0.00401882641017437,0.0002000595122808591,0.0001474080054322258,-6.1284881667234e-05,,,,,,
1.936409116,,,,,,,,,,,-0.8006507158279419,1,-0.2971412539482117,1,0.8102055788040161,1
1.940411448,0.005,-0.01205954700708389,-0.1968653798103333,-1.002665042877197,-0.001398055232129991,-9.40617173910141e-05,-0.005745712667703629,-0.0006683525280095637,-0.0005322124343365431,0.0002438086667098105,,,,,,
1.941410065,,,,,,,,,,,-1.618518352508545,1,-0.02917250990867615,1,-0.03150478005409241,1
1.945407033,0.005,0.00929827056825161,-0.2103823572397232,-1.125143885612488,-0.001230136258527637,0.0003513972042128444,-0.006077902391552925,0.0002705074439290911,0.0006352062919177115,0.0004378559242468327,,,,,,
1.946406364,,,,,,,,,,,-1.751251816749573,1,0.1787398755550385,1,-1.23259162902832,1
1.950378776,0.005,0.02989569678902626,-0.08566331118345261,-0.9813276529312134,0.0003184660454280674,0.0002067647874355316,-0.004387591499835253,5.474603676702827e-05,5.778924241894856e-05,-0.0002124309103237465,,,,,,
1.951398134,,,,,,,,,,,-0.5303466320037842,1,0.3803315162658691,1,0.1778358817100525,1
1.955338955,0.005,-0.004160314798355103,-0.1565488874912262,-0.8260950446128845,-0.001115151681005955,-0.0001949621509993449,-0.003061586525291204,0.0001581675023771822,-0.001079491805285215,0.0001550032029626891,,,,,,
