FILE_INFO
ListSeparator=,
DecimalSeparator=.

SESSION_INFO
TimeZone,UTC
TimeZoneOffset,0
DateTimeFormat,MM/DD/YY h:mm:ss.nnnnnnnnn
StartTime,01/01/70 00:00:00.000000000
TimeFormat,Relative

DEVICE_INFO
Address,*

CHANNEL_INFO
Channel,Type,SampleRate,Equation,Coefficients,Unit,UnitSymbol,WhereApplied,WhenApplied
inertial-6286.188861:timeInfo_deltaTime_ahrsImu,Timeseries,200Hz,,,,,,
inertial-6286.188861:scaledAccelY,Timeseries,200Hz,,,,,,
inertial-6286.188861:scaledAccelX,Timeseries,200Hz,,,,,,
inertial-6286.188861:scaledAccelZ,Timeseries,200Hz,,,,,,
inertial-6286.188861:deltaVelX,Timeseries,200Hz,,,,,,
inertial-6286.188861:deltaVelY,Timeseries,200Hz,,,,,,
inertial-6286.188861:deltaVelZ,Timeseries,200Hz,,,,,,
inertial-6286.188861:deltaThetaX,Timeseries,200Hz,,,,,,
inertial-6286.188861:deltaThetaY,Timeseries,200Hz,,,,,,
inertial-6286.188861:deltaThetaZ,Timeseries,200Hz,,,,,,
inertial-6286.188861:estLinearAccelX,Timeseries,200Hz,,,,,,
inertial-6286.188861:estLinearAccelX:valid,ValidFlag,200Hz,,,,,,
inertial-6286.188861:estLinearAccelY,Timeseries,200Hz,,,,,,
inertial-6286.188861:estLinearAccelY:valid,ValidFlag,200Hz,,,,,,
inertial-6286.188861:estLinearAccelZ,Timeseries,200Hz,,,,,,
inertial-6286.188861:estLinearAccelZ:valid,ValidFlag,200Hz,,,,,,

DATA_START
Time,inertial-6286.188861:timeInfo_deltaTime_ahrsImu,inertial-6286.188861:scaledAccelY,inertial-6286.188861:scaledAccelX,inertial-6286.188861:scaledAccelZ,inertial-6286.188861:deltaVelX,inertial-6286.188861:deltaVelY,inertial-6286.188861:deltaVelZ,inertial-6286.188861:deltaThetaX,inertial-6286.188861:deltaThetaY,inertial-6286.188861:deltaThetaZ,inertial-6286.188861:estLinearAccelX,inertial-6286.188861:estLinearAccelX:valid,inertial-6286.188861:estLinearAccelY,inertial-6286.188861:estLinearAccelY:valid,inertial-6286.188861:estLinearAccelZ,inertial-6286.188861:estLinearAccelZ:valid
0.000000000,,,,,,,,,,,-0.03884189948439598,1,-0.03686659038066864,1,0.09793645143508911,1
0.003985408,0.005,-0.008409121073782444,-0.01714413799345493,-0.9970957040786743,-6.541586481034756e-05,-2.763735392363742e-05,-0.005027761682868004,-2.250869874842465e-05,4.323607572587207e-05,7.974894288054202e-06,,,,,,
0.005015296,,,,,,,,,,,0.001822676509618759,1,-0.01112197525799274,1,0.02675152383744717,1
0.009051904,0.005,-0.008021775633096695,-0.01440468430519104,-0.9989690184593201,-5.160375803825445e-05,-3.56037708115764e-05,-0.00500966515392065,7.552659099019365e-06,-1.098759003070882e-05,-6.825532182119787e-06,,,,,,
0.010025728,,,,,,,,,,,0.02858312427997589,1,-0.007381130009889603,1,0.008383092470467091,1
0.014094592,0.005,-0.0105992341414094,-0.01680996268987656,-0.9939954280853271,-9.929632506100461e-05,-6.878597196191549e-05,-0.00494035379961133,1.302843247685814e-05,-1.049842740030726e-05,1.855016307672486e-06,,,,,,
0.015031552,,,,,,,,,,,0.005021093413233757,1,-0.0326225534081459,1,0.05715695768594742,1
0.019114751,0.005,-0.009668946266174316,-0.01501522399485111,-0.9942945241928101,-6.54939649393782e-05,-4.455967791727744e-05,-0.004970039706677198,-8.837212590151466e-06,8.647111826576293e-06,1.993391151700052e-06,,,,,,
0.020033024,,,,,,,,,,,0.02260812185704708,1,-0.02348100207746029,1,0.05422345548868179,1
0.024111873,0.005,-0.007780245039612055,-0.01558008883148432,-0.9977099895477295,-7.975984772201627e-05,-2.768991544144228e-05,-0.00500960648059845,-5.453763606055873e-06,-7.857956916268449e-06,-4.874516889685765e-06,,,,,,
0.025029631,,,,,,,,,,,0.01707048714160919,1,-0.004989069420844316,1,0.0207294262945652,1
0.029086463,0.005,-0.007254966534674168,-0.0148419039323926,-0.9968186616897583,-7.172264304244891e-05,-3.234740870539099e-05,-0.004981116391718388,7.437654858222231e-06,4.284122496756027e-07,2.953850298581528e-06,,,,,,
0.030021887,,,,,,,,,,,0.02432018518447876,1,0.000162858865223825,1,0.02947026863694191,1
0.034038529,0.005,-0.008193164132535458,-0.01404078211635351,-0.9927448034286499,-6.329797906801105e-05,-4.643847569241188e-05,-0.004939276725053787,7.248037036333699e-06,-1.769153823261149e-05,8.492832421325147e-06,,,,,,
0.035009537,,,,,,,,,,,0.03222725540399551,1,-0.008995602838695049,1,0.06941980868577957,1
0.038967554,0.005,-0.007707518059760332,-0.01650599762797356,-0.9942988753318787,-9.838026744546369e-05,-3.646375989774242e-05,-0.00497722951695323,-1.600605173734948e-05,-4.92178003241861e-07,-6.090767328714719e-06,,,,,,
0.039992575,,,,,,,,,,,0.008124700747430325,1,-0.004241329152137041,1,0.05417835339903831,1
0.043874562,0.005,-0.007382969837635756,-0.01379716489464045,-0.9991815090179443,-5.476379010360688e-05,-3.469115472398698e-05,-0.00502622127532959,-6.609105639654445e-06,2.022613989538513e-05,-1.110306129703531e-05,,,,,,
0.044971518,,,,,,,,,,,0.03464994579553604,1,-0.001119165332056582,1,0.00629779975861311,1
0.048761088,0.005,-0.007301830220967531,-0.01350494287908077,-0.9975287318229675,-6.367839523591101e-05,-3.61334859917406e-05,-0.004979674238711596,1.189206341223326e-05,-8.509229701303411e-06,6.693123850709526e-06,,,,,,
0.049945857,,,,,,,,,,,0.03748540207743645,1,-0.0003242139937356114,1,0.02250606566667557,1
0.053624831,0.005,-0.007369223982095718,-0.01532430481165648,-0.9962149858474731,-8.729433466214687e-05,-3.727097646333277e-05,-0.004972059745341539,9.776254472626533e-08,-6.211761956365081e-06,-5.561357738770312e-06,,,,,,
0.054915585,,,,,,,,,,,0.01966660097241402,1,-0.000953346723690629,1,0.03538884967565536,1
0.058466047,0.005,-0.006176178343594074,-0.01541638560593128,-0.9955678582191467,-7.867862586863339e-05,-2.411734931229148e-05,-0.004974360577762127,-3.775719960685819e-06,5.365587185224285e-06,-9.735086678119842e-06,,,,,,
0.059880704,,,,,,,,,,,0.01876452937722206,1,0.01074136234819889,1,0.04173539951443672,1
0.063284993,0.005,-0.005975981708616018,-0.01385632902383804,-0.994802713394165,-5.898832023376599e-05,-2.87908005702775e-05,-0.004969102796167135,7.989369237293431e-07,-6.022180059517268e-06,-1.044054442900233e-06,,,,,,
0.064841472,,,,,,,,,,,0.03406253084540367,1,0.01270901877433062,1,0.04923820495605469,1
0.068098046,0.005,-0.00614243233576417,-0.01543486304581165,-0.9949325323104858,-8.620703010819852e-05,-3.147014285787009e-05,-0.004975658375769854,-8.155992873071227e-06,-5.40698283657548e-06,-4.623257609637221e-06,,,,,,
0.069883645,,,,,,,,,,,0.01862364262342453,1,0.01105858199298382,1,0.04796469956636429,1
0.073303297,0.005,-0.007350424770265818,-0.01582616195082664,-0.9945986270904541,-8.192418317776173e-05,-4.432422065292485e-05,-0.004970645532011986,6.625956302741542e-06,3.673868377518374e-06,4.704857019532938e-06,,,,,,
0.074921474,,,,,,,,,,,0.01480109430849552,1,-0.0007912986911833286,1,0.05123967677354813,1
0.078485504,0.005,-0.006795605178922415,-0.01536148972809315,-0.9951481223106384,-7.428318349411711e-05,-3.090822792728432e-05,-0.00497835036367178,-9.04669923329493e-06,4.550524863589089e-06,-7.862559868954122e-06,,,,,,
0.079954691,,,,,,,,,,,0.01933704875409603,1,0.004637314938008785,1,0.04585126787424088,1
0.083646722,0.005,-0.008479807525873184,-0.01663561910390854,-0.9972227811813354,-8.992655784823e-05,-5.175538535695523e-05,-0.004998383112251759,-2.457285063428571e-06,4.088539753865916e-06,1.936672333613387e-06,,,,,,
0.084984317,,,,,,,,,,,0.006814855616539717,1,-0.01191142108291388,1,0.02550681866705418,1
0.088787965,0.005,-0.006569082848727703,-0.01774979755282402,-0.9981207847595215,-9.585931547917426e-05,-2.376269185333513e-05,-0.004997078329324722,-1.671646941758809e-06,1.067524135578424e-05,1.139452888310188e-05,,,,,,
0.090009600,,,,,,,,,,,-0.004166595172137022,1,0.006806991994380951,1,0.01670127175748348,1
0.093904898,0.005,-0.005232866387814283,-0.01751114055514336,-0.996225118637085,-8.593592792749405e-05,-1.547253850731067e-05,-0.004971535410732031,7.748703865217976e-06,-1.23778881970793e-05,-1.102991427615052e-05,,,,,,
0.095030017,,,,,,,,,,,-0.001823173253796995,1,0.01992605067789555,1,0.03529117256402969,1
0.099000320,0.005,-0.007271062582731247,-0.01959529705345631,-0.9921756386756897,-0.0001104176408261992,-4.892069773632102e-05,-0.004935306496918201,6.894975285831606e-06,-4.120701305510011e-06,9.392545507580508e-06,,,,,,
0.100046083,,,,,,,,,,,-0.02220699936151505,1,-5.228444933891296e-06,1,0.0750013068318367,1
0.104071938,0.005,-0.006616292521357536,-0.01922851614654064,-0.9964951872825623,-9.514387784292921e-05,-3.029323306691367e-05,-0.005004595033824444,-1.721352964523248e-05,1.498734945926117e-05,4.445694230525987e-06,,,,,,
0.105057538,,,,,,,,,,,-0.01863318867981434,1,0.006405040621757507,1,0.03264175355434418,1
0.109119743,0.005,-0.006015441380441189,-0.01973213255405426,-0.999695897102356,-0.0001006337552098557,-2.556817344157025e-05,-0.005021076183766127,-7.470180776181223e-07,-2.170419520552969e-06,-8.915874786907807e-06,,,,,,
0.110064641,,,,,,,,,,,-0.02359884977340698,1,0.01225041318684816,1,0.001254429924301803,1
0.114146046,0.005,-0.007865821942687035,-0.01890407875180244,-0.9939425587654114,-9.044227044796571e-05,-4.933007221552543e-05,-0.004937680438160896,2.610974115668796e-05,-4.352248652139679e-06,9.397680514666717e-06,,,,,,
0.115067139,,,,,,,,,,,-0.01548316515982151,1,-0.005836560390889645,1,0.05767460912466049,1
0.119149566,0.005,-0.0102426502853632,-0.02016753330826759,-0.9922686219215393,-0.0001065664691850543,-6.649873830610886e-05,-0.00494654243811965,-1.299546329391887e-05,-4.803099272976397e-06,-3.458818582657841e-06,,,,,,
0.120065026,,,,,,,,,,,-0.02784506790339947,1,-0.0290971715003252,1,0.07408970594406128,1
0.124129027,0.005,-0.007903588935732841,-0.02042180299758911,-0.999048113822937,-0.0001060957292793319,-2.650915484991856e-05,-0.005035380367189646,-1.83646370714996e-05,2.875552490877453e-05,3.596963551899535e-06,,,,,,
0.125058308,,,,,,,,,,,-0.03040145337581635,1,-0.006223434116691351,1,0.007606877014040947,1
0.129085183,0.005,-0.006762239616364241,-0.01663526892662048,-0.9965031147003174,-5.898582094232552e-05,-2.490690530976281e-05,-0.004972864873707294,1.839388642110862e-05,-7.374778306257213e-06,4.53309894510312e-06,,,,,,
0.130046725,,,,,,,,,,,0.006645526736974716,1,0.004961765371263027,1,0.03256674855947495,1
0.134018049,0.005,-0.01006111409515142,-0.02015883661806583,-0.9900603890419006,-0.0001193950593005866,-6.873106758575886e-05,-0.004908400122076273,5.230561328062322e-06,-2.66787174041383e-05,2.497700279491255e-06,,,,,,
0.135030523,,,,,,,,,,,-0.02783599495887756,1,-0.02732568420469761,1,0.09574676305055618,1
0.138929918,0.005,-0.01012804638594389,-0.02075687237083912,-0.9963295459747314,-0.0001107730058720335,-5.340071584214456e-05,-0.005015401169657707,-2.89650652121054e-05,2.984823913720902e-05,2.884155264837318e-06,,,,,,
0.140010238,,,,,,,,,,,-0.03370778262615204,1,-0.02803607098758221,1,0.0342683419585228,1
0.143820032,0.005,-0.007982401177287102,-0.01687078736722469,-1.000331163406372,-5.97437028773129e-05,-2.583359673735686e-05,-0.00502965971827507,8.25022561912192e-06,9.147229320660699e-06,6.782180435038754e-07,,,,,,
0.144985348,,,,,,,,,,,0.004298414569348097,1,-0.007054005283862352,1,-0.004972045309841633,1
0.148687869,0.005,-0.01065318752080202,-0.01837617345154285,-0.9946448802947998,-9.854866948444396e-05,-6.796861271141097e-05,-0.004941914230585098,2.49688182520913e-05,-2.687938649614807e-05,2.941529828603962e-06,,,,,,
0.149955839,,,,,,,,,,,-0.01044790353626013,1,-0.03317531570792198,1,0.05079040676355362,1
0.153550595,0.005,-0.01160093862563372,-0.02019652351737022,-0.9927155375480652,-0.0001129706433857791,-6.554932770086452e-05,-0.004947756417095661,-9.856929864326958e-06,3.382371687621344e-06,8.529944352630991e-06,,,,,,
0.154925317,,,,,,,,,,,-0.02824414148926735,1,-0.04241572320461273,1,0.06970913708209991,1
0.158391550,0.005,-0.008643859066069126,-0.01880235597491264,-0.9980413317680359,-8.66667105583474e-05,-2.644560299813747e-05,-0.005022550467401743,-1.434533987776376e-05,1.425472601113142e-05,-6.11516441040294e-07,,,,,,
0.159890428,,,,,,,,,,,-0.01460910122841597,1,-0.01345196552574635,1,0.01748237758874893,1
0.163210243,0.005,-0.007717449683696032,-0.01808717846870422,-0.9961678385734558,-8.549197809770703e-05,-3.112477133981884e-05,-0.004973099566996098,1.57884496729821e-05,-7.920291864138562e-06,5.015914439354674e-07,,,,,,
0.164933115,,,,,,,,,,,-0.007614706642925739,1,-0.004367417190223932,1,0.0358552448451519,1
0.168418050,0.005,-0.009551016613841057,-0.01836430095136166,-0.9925536513328552,-9.336726361652836e-05,-5.896460788790137e-05,-0.004938898142427206,2.729072775764507e-06,-9.174666956823785e-06,3.836431005765917e-06,,,,,,
0.169971198,,,,,,,,,,,-0.01029432751238346,1,-0.02229895070195198,1,0.07129736989736557,1
0.173601285,0.005,-0.008845808915793896,-0.01928978227078915,-0.9957110285758972,-0.0001021373172989115,-4.078725760336965e-05,-0.004994278773665428,-1.630551741982345e-05,-6.975839141887263e-07,-2.615521452753455e-06,,,,,,
0.175004929,,,,,,,,,,,-0.01933758147060871,1,-0.01539929956197739,1,0.04033343121409416,1
0.178763524,0.005,-0.007523883599787951,-0.01775090768933296,-0.9991799592971802,-8.053783676587045e-05,-2.935879092547111e-05,-0.005019528325647116,-7.058028586470755e-06,5.555646112043178e-06,-5.326629434421193e-06,,,,,,
0.180034310,,,,,,,,,,,-0.004254000727087259,1,-0.002500354079529643,1,0.006314986851066351,1
0.183901951,0.005,-0.008462053723633289,-0.01674908399581909,-0.9958903789520264,-7.622964039910585e-05,-4.725347389467061e-05,-0.004961222875863314,1.169775168818887e-05,-1.690393582975958e-05,-2.961521431643632e-06,,,,,,
0.185058817,,,,,,,,,,,0.005604462698101997,1,-0.01169757731258869,1,0.03857487440109253,1
0.189016581,0.005,-0.008352916687726974,-0.01815345138311386,-0.9938617944717407,-9.944758494384587e-05,-4.214591535856016e-05,-0.004955303855240345,-6.561373083968647e-06,-8.526377314410638e-06,-1.885933329504041e-06,,,,,,
0.190078974,,,,,,,,,,,-0.008087372407317162,1,-0.01062190812081099,1,0.05846703425049782,1
0.194107130,0.005,-0.006992771755903959,-0.01717299781739712,-0.9957423806190491,-8.120732672978193e-05,-2.659711935848463e-05,-0.004989170003682375,-5.105410309624858e-06,1.116270050260937e-05,-4.553595317702275e-06,,,,,,
0.195094272,,,,,,,,,,,0.00154290976934135,1,0.002686223015189171,1,0.04002465680241585,1
0.199173629,0.005,-0.006927637849003077,-0.0152806369587779,-0.9963645339012146,-6.43390667391941e-05,-3.394937448319979e-05,-0.004987012129276991,-1.691861029939901e-06,-4.505826382228406e-06,-6.851046236988623e-06,,,,,,
0.200104967,,,,,,,,,,,0.02009490877389908,1,0.00329784001223743,1,0.03392378613352776,1
0.204217091,0.005,-0.006679575424641371,-0.01559259742498398,-0.9948819875717163,-7.905543316155672e-05,-3.239728903281502e-05,-0.004965334199368954,3.444085677983821e-06,-1.216598593600793e-05,2.971916728711221e-06,,,,,,
0.205111042,,,,,,,,,,,0.01708470284938812,1,0.005735076032578945,1,0.0484614335000515,1
0.209238529,0.005,-0.00778241828083992,-0.01606330275535583,-0.9961711764335632,-8.365850953850895e-05,-4.482306030695327e-05,-0.004986891988664865,2.422092620690819e-06,-4.274765615264187e-06,-8.670388069731416e-07,,,,,,
0.210112259,,,,,,,,,,,0.01252153422683477,1,-0.00507201487198472,1,0.03581706434488297,1
0.214235649,0.005,-0.007210616953670979,-0.01642606407403946,-0.9985949993133545,-8.495479414705187e-05,-3.407184703974053e-05,-0.005008548963814974,-9.304655577579979e-06,1.862348767645017e-06,2.520187990739942e-06,,,,,,
0.215109125,,,,,,,,,,,0.008993549272418022,1,0.0005254035349935293,1,0.01204682793468237,1
0.219209477,0.005,-0.006910969037562609,-0.01612325198948383,-0.9962826371192932,-7.783695764373988e-05,-3.140549961244687e-05,-0.004969230387359858,4.96246639158926e-06,-4.833329057873925e-06,1.291020817006938e-05,,,,,,
0.220101118,,,,,,,,,,,0.01199004985392094,1,0.003454350400716066,1,0.0347229391336441,1
0.224160001,0.005,-0.007528277579694986,-0.01722435280680656,-0.9928640127182007,-9.278850484406576e-05,-4.288553827791475e-05,-0.004943307023495436,-1.656551262385619e-06,-3.416709887460456e-06,6.662912710453384e-06,,,,,,
0.225088507,,,,,,,,,,,0.001225358340889215,1,-0.002596696140244603,1,0.06824845820665359,1
0.229092613,0.005,-0.006123902276158333,-0.01700061000883579,-0.99319988489151,-8.459250966552645e-05,-2.146675069525372e-05,-0.004966860637068748,-4.699242708738893e-06,3.831883077509701e-06,-9.026030966197141e-06,,,,,,
0.230073601,,,,,,,,,,,0.003429685486480594,1,0.01115800719708204,1,0.06495484709739685,1
0.234010115,0.005,-0.00728337187319994,-0.01649082824587822,-0.995993971824646,-7.842546619940549e-05,-4.318313222029246e-05,-0.004995675757527351,-4.530591468210332e-06,1.002165390673326e-05,9.857869372353889e-06,,,,,,
0.235054329,,,,,,,,,,,0.008394503034651279,1,-0.0002338601043447852,1,0.03755533695220947,1
0.238904834,0.005,-0.006907813251018524,-0.01733623072504997,-0.9993434548377991,-9.220041829394177e-05,-3.318664312246256e-05,-0.005016852635890245,-2.766066700132797e-06,1.777906845745747e-06,4.147600066062296e-06,,,,,,
0.240030468,,,,,,,,,,,6.06511312071234e-05,1,0.003413660684600472,1,0.004708847496658564,1
0.243777797,0.005,-0.005601753946393728,-0.01732059568166733,-0.9980458617210388,-8.651032840134576e-05,-1.937818342412356e-05,-0.004984902683645487,9.879045137495268e-06,-7.283950708369957e-06,-5.077255082142074e-06,,,,,,
0.245001987,,,,,,,,,,,0.0002044515131274238,1,0.01623103208839893,1,0.01743394695222378,1
0.248628229,0.005,-0.007752968464046717,-0.01782877556979656,-0.9936708211898804,-9.22143372008577e-05,-5.099108602735214e-05,-0.004940840881317854,2.291726332259714e-06,-1.124378286476713e-05,2.207811803600634e-06,,,,,,
0.249969155,,,,,,,,,,,-0.004735575988888741,1,-0.004821294918656349,1,0.06033759191632271,1
0.253456384,0.005,-0.008532545529305935,-0.01892704702913761,-0.9954985380172729,-0.000100811681477353,-4.839638495468535e-05,-0.004985099192708731,-1.905216049635783e-05,2.898649654525798e-06,-1.946784777828725e-06,,,,,,
0.254931718,,,,,,,,,,,-0.01546957809478045,1,-0.0125004556030035,1,0.04241349175572395,1
0.258263052,0.005,-0.005222522653639317,-0.01775056309998035,-0.998394787311554,-8.318042091559619e-05,-6.887095423735445e-06,-0.005012332927435637,-6.076916179154068e-06,2.248796772619244e-05,2.640869524839218e-06,,,,,,
0.259974658,,,,,,,,,,,-0.003984862472862005,1,0.01988158747553825,1,0.01401183754205704,1
0.263470083,0.005,-0.007451110519468784,-0.01687021180987358,-0.9912823438644409,-7.602494588354602e-05,-4.65900739072822e-05,-0.004916293546557426,2.874953497666866e-05,-1.278070430998923e-05,2.260525207020692e-06,,,,,,
0.265012741,,,,,,,,,,,0.004602302331477404,1,-0.001929859630763531,1,0.08376184105873108,1
0.268653065,0.005,-0.01021597068756819,-0.02109167724847794,-0.9918317794799805,-0.0001321742893196642,-7.09852683939971e-05,-0.00495605356991291,-1.936517946887761e-05,-1.650480839998636e-06,-1.280226661037887e-05,,,,,,
0.270045966,,,,,,,,,,,-0.03676766157150269,1,-0.02901379019021988,1,0.07837259024381638,1
0.273811698,0.005,-0.007110722362995148,-0.01701256260275841,-1.001925349235535,-6.362912245094776e-05,-1.684104790911078e-05,-0.005071589257568121,-1.64526700245915e-05,2.792476152535528e-05,-7.996983185876161e-06,,,,,,
0.275074571,,,,,,,,,,,0.003143994137644768,1,0.001341562252491713,1,-0.02060921676456928,1
0.278947085,0.005,-0.00787572655826807,-0.01613390818238258,-0.9996240735054016,-7.164126873249188e-05,-4.263208757038228e-05,-0.004990419372916222,2.026553374889772e-05,-2.002011206059251e-05,8.267966222774703e-06,,,,,,
0.280098289,,,,,,,,,,,0.01171579118818045,1,-0.006155040115118027,1,0.001958675682544708,1
0.284057587,0.005,-0.009118599817156792,-0.02037029527127743,-0.9924078583717346,-0.0001283973251702264,-5.315415182849392e-05,-0.004915930330753326,2.569672005847679e-06,-2.219518137280829e-05,-9.600988960301038e-06,,,,,,
0.285117447,,,,,,,,,,,-0.02973193675279617,1,-0.01828818023204803,1,0.07272404432296753,1
0.289146364,0.005,-0.008876318112015724,-0.01958875171840191,-0.9931091070175171,-9.432581282453611e-05,-4.40134244854562e-05,-0.004967867862433195,-1.242690905201016e-05,4.428454758453881e-06,7.602791356475791e-07,,,,,,
0.290132999,,,,,,,,,,,-0.0219972487539053,1,-0.01592881605029106,1,0.06584573537111282,1
0.294215173,0.005,-0.007949495688080788,-0.01851985417306423,-0.9969335198402405,-8.584164606872946e-05,-3.386064054211602e-05,-0.005006797611713409,-4.87367287860252e-06,2.653909859873238e-06,4.984598490409553e-06,,,,,,
0.295143932,,,,,,,,,,,-0.0114849004894495,1,-0.006853724364191294,1,0.02834062278270721,1
0.299259663,0.005,-0.00809958390891552,-0.01928913593292236,-0.996944785118103,-0.0001003871293505654,-4.165015707258135e-05,-0.004987633321434259,1.026461904984899e-05,-9.115339707932435e-06,-1.052559036907041e-05,,,,,,
0.300150275,,,,,,,,,,,-0.01897679641842842,1,-0.008315738290548325,1,0.02823001332581043,1
0.304281354,0.005,-0.007953643798828125,-0.01873917132616043,-0.9935351610183716,-9.194615995511413e-05,-3.958878005505539e-05,-0.004947073291987181,4.961750164511614e-06,6.633779776166193e-06,8.67157996253809e-06,,,,,,
0.305151731,,,,,,,,,,,-0.0135608846321702,1,-0.006833672523498535,1,0.06166600063443184,1
0.309279233,0.005,-0.008155648596584797,-0.01819244958460331,-0.9943519830703735,-8.557071851100773e-05,-4.190893014310859e-05,-0.004974156152456999,-1.205440639751032e-05,-4.487052592594409e-06,-3.099341938650468e-06,,,,,,
0.310148597,,,,,,,,,,,-0.008191144093871117,1,-0.008812018670141697,1,0.05365567281842232,1
0.314253062,0.005,-0.006701483856886625,-0.01953168772161007,-0.9994887113571167,-0.0001080721849575639,-2.626764216984157e-05,-0.005029130727052689,-8.178249117918313e-06,1.428201539965812e-05,9.528140481052105e-07,,,,,,
0.315140873,,,,,,,,,,,-0.02134148962795734,1,0.005395380780100822,1,0.003282212652266026,1
0.319204599,0.005,-0.005075626540929079,-0.01544775255024433,-0.9959779977798462,-5.303115540300496e-05,-1.371395683236187e-05,-0.004963592626154423,1.501238421042217e-05,9.617989462640253e-07,1.101585439755581e-05,,,,,,
0.320128500,,,,,,,,,,,0.0186404176056385,1,0.02134559489786625,1,0.03771185874938965,1
0.324132353,0.005,-0.007929673418402672,-0.01815140433609486,-0.9906749725341797,-0.0001038346672430634,-5.599246287602e-05,-0.004918475635349751,3.327566219013534e-06,-3.712698890012689e-05,4.218509729980724e-06,,,,,,
0.325111300,,,,,,,,,,,-0.00777976680546999,1,-0.006588379852473736,1,0.08971424400806427,1
0.329036802,0.005,-0.007815469987690449,-0.01969254389405251,-0.9963242411613464,-0.0001123214096878655,-4.041706415591761e-05,-0.005011942703276873,-2.173261782445479e-05,2.765532917692326e-05,-1.530264739812992e-06,,,,,,
0.330089480,,,,,,,,,,,-0.02284815162420273,1,-0.005501812323927879,1,0.03431330621242523,1
0.333917946,0.005,-0.005724757444113493,-0.01489252969622612,-1.00053083896637,-4.544224066194147e-05,-1.540696393931285e-05,-0.005031805485486984,-3.68536859696178e-07,1.822759440983646e-05,-1.75838806626416e-07,,,,,,
0.335062772,,,,,,,,,,,0.02410829439759254,1,0.01493146829307079,1,-0.006936277728527784,1
0.338776052,0.005,-0.007810745388269424,-0.01647865027189255,-0.9954679012298584,-8.879706001607701e-05,-4.985088162356988e-05,-0.004948173649609089,1.689075725153089e-05,-2.92815821012482e-05,-8.242715921369381e-06,,,,,,
0.340031475,,,,,,,,,,,0.008568315766751766,1,-0.005492301192134619,1,0.04271355271339417,1
0.343613178,0.005,-0.00904462393373251,-0.01816543750464916,-0.9942080974578857,-0.0001041728028212674,-5.450711614685133e-05,-0.004959906451404095,-5.898630661249626e-06,1.064446223608684e-05,4.760457613883773e-06,,,,,,
0.344995826,,,,,,,,,,,-0.007942361757159233,1,-0.01756068877875805,1,0.05506746098399162,1
0.348429054,0.005,-0.006705786101520061,-0.01446473132818937,-0.9967309832572937,-4.982989048585296e-05,-1.963420436368324e-05,-0.004999922588467598,-6.534664407809032e-06,1.661979513301048e-05,1.24167070225667e-06,,,,,,
0.349955827,,,,,,,,,,,0.02827249467372894,1,0.005354016087949276,1,0.03032700344920158,1
0.353223681,0.005,-0.007332042790949345,-0.01504193153232336,-0.9948792457580566,-7.694945088587701e-05,-3.885972546413541e-05,-0.004964781459420919,1.302728651353391e-05,-1.605559918971267e-05,1.503115981904557e-06,,,,,,
0.354911476,,,,,,,,,,,0.02260817401111126,1,-0.0007668687030673027,1,0.04848701134324074,1
0.358431756,0.005,-0.009082800708711147,-0.01584800332784653,-0.9936127066612244,-8.498196984874085e-05,-5.617162241833284e-05,-0.004958388395607471,3.156646471325075e-06,-4.824905772693455e-06,3.366733380971709e-06,,,,,,
0.359949827,,,,,,,,,,,0.01474151667207479,1,-0.01788479648530483,1,0.06090622395277023,1
0.363616765,0.005,-0.008612168952822685,-0.01621297001838684,-0.996172308921814,-8.216948481276631e-05,-4.06480030505918e-05,-0.004995609633624554,-5.733931175200269e-06,-2.819108885887545e-06,4.929388524033129e-07,,,,,,
0.364983797,,,,,,,,,,,0.01118471473455429,1,-0.01325493212789297,1,0.03580454736948013,1
0.368778765,0.005,-0.008557497523725033,-0.01685118488967419,-0.9979354739189148,-8.897775842342526e-05,-4.18563031416852e-05,-0.005001730751246214,-3.851457677228609e-07,7.802333129802719e-06,-2.260535893583437e-06,,,,,,
0.370012939,,,,,,,,,,,0.004930347204208374,1,-0.01272028405219316,1,0.01851380616426468,1
0.373916417,0.005,-0.008351304568350315,-0.01626058295369148,-0.996131956577301,-7.754227408440784e-05,-4.078822894371115e-05,-0.004970702342689037,-3.7114452879905e-06,-1.575377041262982e-06,2.101447535096668e-06,,,,,,
0.375037193,,,,,,,,,,,0.01070576068013906,1,-0.01071244850754738,1,0.03620088472962379,1
0.379029751,0.005,-0.008221243508160114,-0.01799731701612473,-0.9949737787246704,-9.952473919838667e-05,-3.998723332188092e-05,-0.004967005923390388,4.379674919618992e-06,-6.92329967932892e-06,-6.37891434962512e-06,,,,,,
0.380056828,,,,,,,,,,,-0.006305347196757793,1,-0.00943590234965086,1,0.04755859449505806,1
0.384119034,0.005,-0.007486185990273952,-0.01899156533181667,-0.9951774477958679,-0.0001021386196953245,-3.331229163450189e-05,-0.004976215772330761,-4.251434802426957e-06,9.768430572876241e-06,-6.43421481072437e-06,,,,,,
0.385071874,,,,,,,,,,,-0.01606568694114685,1,-0.002219300484284759,1,0.04556112363934517,1
0.389183998,0.005,-0.00700326357036829,-0.01755459047853947,-0.9960400462150574,-7.929585262900218e-05,-3.177523103659041e-05,-0.004985611420124769,-3.303605581095326e-06,5.202791271585738e-06,1.847425323830976e-06,,,,,,
0.390082300,,,,,,,,,,,-0.002018843544647098,1,0.002494810614734888,1,0.03710299357771873,1
0.394231051,0.005,-0.007870636880397797,-0.01813366822898388,-0.9957466721534729,-9.267515270039439e-05,-4.394162533571944e-05,-0.00497768446803093,6.241508799575968e-06,-9.499702173343394e-06,-2.33231753554719e-06,,,,,,
0.395088881,,,,,,,,,,,-0.007695856504142284,1,-0.00600793119519949,1,0.03997981548309326,1
0.399254262,0.005,-0.008909521624445915,-0.01910640858113766,-0.9958332180976868,-0.0001016178575810045,-5.12186306877993e-05,-0.004978897515684366,5.464803507493343e-06,-5.557306849368615e-06,-4.70809027319774e-06,,,,,,
0.400090873,,,,,,,,,,,-0.01720947772264481,1,-0.01616034656763077,1,0.03913012146949768,1
0.404254198,0.005,-0.008124435320496559,-0.01877881027758121,-0.9959766864776611,-9.225237590726465e-05,-3.633051164797507e-05,-0.004981616046279669,-1.144264842878329e-06,-5.751044682256179e-06,-2.741545358730946e-06,,,,,,
0.405088246,,,,,,,,,,,-0.01396271586418152,1,-0.00844306219369173,1,0.03772272542119026,1
0.409230083,0.005,-0.00813723262399435,-0.01948721706867218,-0.9950871467590332,-0.0001013501678244211,-4.014565638499334e-05,-0.004970300011336803,4.667077973863343e-06,-4.987002284906339e-06,5.849306461414017e-08,,,,,,
0.410080761,,,,,,,,,,,-0.02086062543094158,1,-0.008540526032447815,1,0.04644476622343063,1
0.414182395,0.005,-0.008043053559958935,-0.0194674339145422,-0.9943162202835083,-9.725305426400155e-05,-4.047089169034734e-05,-0.004967037588357925,-2.394027887930861e-06,4.188465027255006e-06,-1.578350179443078e-06,,,,,,
0.415068686,,,,,,,,,,,-0.0206464808434248,1,-0.007596397772431374,1,0.05400434508919716,1
0.419112206,0.005,-0.007881094701588154,-0.01970043778419495,-0.994783341884613,-9.961875184671953e-05,-3.788418689509854e-05,-0.004976259544491768,1.527745098428568e-06,2.061262875940884e-06,-1.382963205287524e-06,,,,,,
0.420051962,,,,,,,,,,,-0.02293381094932556,1,-0.005995259154587984,1,0.04942356795072556,1
0.424018949,0.005,-0.007911846973001957,-0.01972382701933384,-0.9958140254020691,-9.904876060318202e-05,-3.996840314357542e-05,-0.00498516671359539,-1.254177504961262e-06,5.46171895621228e-06,1.253543473467289e-06,,,,,,
0.425030410,,,,,,,,,,,-0.02318811416625977,1,-0.006286349147558212,1,0.03931672498583794,1
0.428902656,0.005,-0.007797322236001492,-0.01887087896466255,-0.996961236000061,-8.917748345993459e-05,-3.857092815451324e-05,-0.004991984460502863,-5.809072263218695e-07,-1.273313841920753e-06,3.332997493998846e-06,,,,,,
0.430003971,,,,,,,,,,,-0.0148498835042119,1,-0.00516447564586997,1,0.02806703187525272,1
0.433762819,0.005,-0.007460704538971186,-0.01874151080846786,-0.9963310956954956,-9.23602347029373e-05,-3.541618571034633e-05,-0.00497835548594594,1.772367795638274e-06,-6.053126526239794e-06,2.71398994300398e-06,,,,,,
0.434972942,,,,,,,,,,,-0.01357348542660475,1,-0.001858476782217622,1,0.03424540162086487,1
0.438600183,0.005,-0.007543268147855997,-0.01900722458958626,-0.9950664043426514,-9.674082684796304e-05,-3.779664257308468e-05,-0.004967601038515568,5.248156867310172e-06,1.102688656828832e-06,2.011730202866602e-06,,,,,,
0.439937294,,,,,,,,,,,-0.01616664603352547,1,-0.002644426422193646,1,0.0466475673019886,1
0.443414539,0.005,-0.007353501860052347,-0.01853317022323608,-0.9943942427635193,-9.029597276821733e-05,-3.589329207898118e-05,-0.004967945162206888,2.162198313726549e-07,1.809852051337657e-06,-1.075787395166117e-06,,,,,,
0.444897294,,,,,,,,,,,-0.01152221113443375,1,-0.0007583178812637925,1,0.05323905125260353,1
0.448207617,0.005,-0.006816461682319641,-0.01821562089025974,-0.9943591952323914,-8.869075099937618e-05,-3.022389682882931e-05,-0.004971166606992483,-4.823735253012273e-06,4.091037681064336e-06,2.611950776554295e-06,,,,,,
0.449852675,,,,,,,,,,,-0.008423280902206898,1,0.004506404045969248,1,0.05358317494392395,1
0.453330696,0.005,-0.007496359758079052,-0.01784363202750683,-0.9964045882225037,-8.671809337101877e-05,-4.134918344789185e-05,-0.004993557929992676,1.471832149491092e-07,9.393169420945924e-06,3.123829230844422e-07,,,,,,
0.454891264,,,,,,,,,,,-0.004821059759706259,1,-0.002164412289857864,1,0.03352651000022888,1
0.458517760,0.005,-0.007118392735719681,-0.01718212105333805,-0.9967381954193115,-8.170749060809612e-05,-3.359157926752232e-05,-0.00498709362000227,-2.025679123107693e-06,4.506252480496187e-06,-1.84632438049448e-06,,,,,,
0.459925503,,,,,,,,,,,0.001610076171346009,1,0.001534596551209688,1,0.03025581128895283,1
0.463681281,0.005,-0.007508748210966587,-0.01674178242683411,-0.9958306550979614,-8.125141903292388e-05,-3.912737884093076e-05,-0.00497323228046298,-2.178756176363095e-06,-3.648267465905519e-07,-1.277915544051211e-06,,,,,,
0.464955121,,,,,,,,,,,0.005893689580261707,1,-0.002298416336998343,1,0.03915680944919586,1
0.468821257,0.005,-0.007998255081474781,-0.01667632721364498,-0.9967684745788574,-8.28266202006489e-05,-4.353724580141716e-05,-0.004988998174667358,-5.651927949656965e-06,8.398726549785351e-07,-1.379490072395129e-06,,,,,,
0.469980150,,,,,,,,,,,0.006511243991553783,1,-0.007120893336832523,1,0.02996031567454338,1
0.473940730,0.005,-0.007465390488505363,-0.01579546369612217,-0.9966406226158142,-7.430922414641827e-05,-3.406821269891225e-05,-0.004983488470315933,2.185261337217526e-06,4.17889441450825e-06,2.798141622406547e-06,,,,,,
0.475001335,,,,,,,,,,,0.01511935424059629,1,-0.00191610655747354,1,0.0312145259231329,1
0.479036659,0.005,-0.008003332652151585,-0.01534879021346569,-0.9947085976600647,-7.330859079957008e-05,-4.281705332687125e-05,-0.004962129984050989,-1.354007622467179e-06,-5.29497128809453e-06,-6.674153496533108e-07,,,,,,
0.480017662,,,,,,,,,,,0.01948756910860538,1,-0.007197841070592403,1,0.05016170814633369,1
0.484108806,0.005,-0.008680280297994614,-0.01599522121250629,-0.9946388006210327,-8.420067752012983e-05,-4.840281690121628e-05,-0.004970787558704615,-1.726098957988143e-06,2.21692289414932e-06,-1.065691549229086e-06,,,,,,
0.485029638,,,,,,,,,,,0.01315243262797594,1,-0.01383836939930916,1,0.05084599927067757,1
0.489157647,0.005,-0.007881096564233303,-0.01534021273255348,-0.9970192313194275,-7.362144970102236e-05,-3.426338662393391e-05,-0.004999552853405476,-3.42571729561314e-06,9.16972931008786e-06,-6.978831379456096e-07,,,,,,
0.490036726,,,,,,,,,,,0.01953858137130737,1,-0.006016784813255072,1,0.02750239148736,1
0.494183928,0.005,-0.008301528170704842,-0.01434130407869816,-0.9966734647750854,-6.500622112071142e-05,-4.343078035162762e-05,-0.004982251673936844,3.269314674980706e-06,-2.249627186756697e-06,1.082967287402425e-06,,,,,,
0.495038986,,,,,,,,,,,0.02931508608162403,1,-0.01012842357158661,1,0.03089277073740959,1
0.499188215,0.005,-0.008874564431607723,-0.01512229442596436,-0.9949328303337097,-7.9970748629421e-05,-4.824612915399484e-05,-0.004963644780218601,-1.572911514813313e-06,-8.228851584135555e-06,-1.069070549419848e-06,,,,,,
0.500037372,,,,,,,,,,,0.02167993411421776,1,-0.01573137193918228,1,0.0479622483253479,1
0.504169464,0.005,-0.008829385042190552,-0.0151335159316659,-0.9955541491508484,-7.678950350964442e-05,-4.408290260471404e-05,-0.004980087280273438,-2.447049837428494e-06,1.160718454684684e-07,4.605892343079176e-07,,,,,,
0.505030930,,,,,,,,,,,0.02158860117197037,1,-0.01528950966894627,1,0.04186903312802315,1
0.509127915,0.005,-0.008439589291810989,-0.01474909856915474,-0.9964176416397095,-7.129510049708188e-05,-3.957530498155393e-05,-0.004987736232578754,3.622253643698059e-07,2.691925146791618e-06,3.949694928451208e-06,,,,,,
0.510019839,,,,,,,,,,,0.02536199986934662,1,-0.01147054973989725,1,0.0334010049700737,1
0.514063597,0.005,-0.008707779459655285,-0.01495073176920414,-0.9956557750701904,-7.551135058747604e-05,-4.509207792580128e-05,-0.004974127747118473,1.135377260652604e-06,-2.040839262917871e-06,3.435098051340901e-06,,,,,,
0.515003920,,,,,,,,,,,0.02338370680809021,1,-0.01409737672656775,1,0.04087240621447563,1
0.518975735,0.005,-0.008837135508656502,-0.01528026256710291,-0.9958550333976746,-7.858956087147817e-05,-4.52325475635007e-05,-0.004979750607162714,-1.128747044276679e-06,2.488588506821543e-06,-2.140337528544478e-06,,,,,,
0.519983888,,,,,,,,,,,0.02015077881515026,1,-0.01536067761480808,1,0.03891855850815773,1
0.523876071,0.005,-0.008581437170505524,-0.01560213696211576,-0.9966915249824524,-7.990901940502226e-05,-4.149301094003022e-05,-0.004988556262105703,-2.641284027049551e-06,-2.104761591681381e-07,-1.402595671606832e-06,,,,,,
0.524961293,,,,,,,,,,,0.01698064059019089,1,-0.01285888440907001,1,0.03071567788720131,1
0.528753400,0.005,-0.008502022363245487,-0.01566536538302898,-0.9965116381645203,-7.897060277173296e-05,-4.175246431259438e-05,-0.004982045851647854,2.703399331949186e-06,-5.197898644837551e-06,-6.405643944162875e-06,,,,,,
0.529933810,,,,,,,,,,,0.01636890321969986,1,-0.01207809895277023,1,0.03247934952378273,1
0.533608437,0.005,-0.008481547236442566,-0.0159155335277319,-0.9951528310775757,-8.104021253529936e-05,-4.208500831737183e-05,-0.004967458080500364,1.786404254744411e-06,-7.204013854789082e-06,4.864728452957934e-06,,,,,,
0.534902036,,,,,,,,,,,0.01394945383071899,1,-0.01186249777674675,1,0.04580440744757652,1
0.538440943,0.005,-0.008277319371700287,-0.01655046455562115,-0.9948336482048035,-8.653911208966747e-05,-4.035408346680924e-05,-0.004971867892891169,-4.587357125274139e-06,-2.414433538433514e-06,-4.681430993969116e-07,,,,,,
0.539865077,,,,,,,,,,,0.007757244165986776,1,-0.009859022684395313,1,0.04893293231725693,1
0.543250680,0.005,-0.007940530776977539,-0.01685443520545959,-0.9952654242515564,-8.639365114504471e-05,-3.797688987106085e-05,-0.00497892964631319,-1.31848969431303e-06,2.831619895005133e-06,-5.66196796114582e-08,,,,,,
0.544823527,,,,,,,,,,,0.004791989922523499,1,-0.006562048569321632,1,0.04469871148467064,1
0.548377573,0.005,-0.007366667035967112,-0.01708120666444302,-0.9955882430076599,-8.675859862705693e-05,-3.355205990374088e-05,-0.004980076570063829,-1.001528403321572e-06,5.447548687698145e-07,-4.045961929932673e-07,,,,,,
0.549862683,,,,,,,,,,,0.002565110102295876,1,-0.0009483619360253215,1,0.04153356701135635,1
0.553565979,0.005,-0.007104270625859499,-0.01774972304701805,-0.9957322478294373,-9.261094237444922e-05,-3.346134690218605e-05,-0.004978840705007315,1.117605961553636e-06,-2.636073986650445e-06,-2.527211563574383e-06,,,,,,
0.554897428,,,,,,,,,,,-0.003982279449701309,1,0.001621513045392931,1,0.04012132436037064,1
0.558731794,0.005,-0.007050195708870888,-0.01843713596463203,-0.996619701385498,-9.640866483096033e-05,-3.555066359695047e-05,-0.004988923203200102,6.987798997215577e-07,-4.252711732988246e-06,1.128370968217496e-06,,,,,,
0.559927285,,,,,,,,,,,-0.01070493925362825,1,0.002156140049919486,1,0.03141788020730019,1
0.563873529,0.005,-0.006575257983058691,-0.01890388503670692,-0.9957670569419861,-9.733740444062278e-05,-2.987959669553675e-05,-0.004973821341991425,1.84155362603633e-06,-2.162215650969301e-06,-1.720692921480804e-06,,,,,,
0.564952552,,,,,,,,,,,-0.01526960451155901,1,0.006826323457062244,1,0.0397789254784584,1
0.568991482,0.005,-0.006725865881890059,-0.01899186708033085,-0.9953755140304565,-9.54580245888792e-05,-3.422429654165171e-05,-0.004974003881216049,-3.005314113124768e-07,-1.794986587810854e-06,7.059248900986859e-07,,,,,,
0.569973528,,,,,,,,,,,-0.01610741578042507,1,0.005356169771403074,1,0.043618343770504,1
0.574085891,0.005,-0.006572986952960491,-0.01918448507785797,-0.9952775239944458,-9.701553062768653e-05,-3.237842975067906e-05,-0.004975786432623863,-3.683878048832412e-06,-6.786630706301366e-07,1.532536543891183e-06,,,,,,
0.574989557,,,,,,,,,,,-0.01798027381300926,1,0.006855137180536985,1,0.04457886517047882,1
0.579155982,0.005,-0.006833547260612249,-0.01900486275553703,-0.9953051209449768,-9.400401177117601e-05,-3.522012048051693e-05,-0.004976249299943447,-4.307500148570398e-06,3.157191486025113e-06,-1.969172899407567e-06,,,,,,
0.580000997,,,,,,,,,,,-0.01622801087796688,1,0.004280711989849806,1,0.04430872574448586,1
0.584203541,0.005,-0.00706897396594286,-0.01893190108239651,-0.9957695007324219,-9.427526674699038e-05,-3.686381023726426e-05,-0.004981371574103832,-5.447815283332602e-07,-4.859246473642997e-06,-8.401324862461479e-07,,,,,,
0.585007846,,,,,,,,,,,-0.01550604123622179,1,0.001954146660864353,1,0.03975408151745796,1
0.589234173,0.005,-0.00741287786513567,-0.01913902349770069,-0.9961841702461243,-9.71326298895292e-05,-3.929361264454201e-05,-0.004983691498637199,-1.676689180385438e-06,2.870326625270536e-06,2.365621867284062e-06,,,,,,
0.590011656,,,,,,,,,,,-0.01753059774637222,1,-0.001430812990292907,1,0.03568717837333679,1
0.594242036,0.005,-0.007465024013072252,-0.0189411211758852,-0.9960898756980896,-9.402817522641271e-05,-3.737236329470761e-05,-0.004980186466127634,-6.770475806661125e-07,5.290336048346944e-06,-1.209195659157558e-07,,,,,,
0.595010579,,,,,,,,,,,-0.01561176031827927,1,-0.001950289588421583,1,0.03661251440644264,1
0.599226117,0.005,-0.007831466384232044,-0.01873496174812317,-0.9954401254653931,-9.21756072784774e-05,-4.149168307776563e-05,-0.004973729141056538,-5.606252670986578e-06,-1.174870902787006e-07,1.214071630784019e-06,,,,,,
0.600004852,,,,,,,,,,,-0.01361262425780296,1,-0.005559940822422504,1,0.04298540204763412,1
0.604187369,0.005,-0.008115891367197037,-0.01852988824248314,-0.9952239394187927,-9.159913315670565e-05,-4.189768515061587e-05,-0.004974009469151497,-3.624561259130132e-06,1.639097604311246e-06,3.859096295855124e-07,,,,,,
0.604994535,,,,,,,,,,,-0.01161683443933725,1,-0.008375582285225391,1,0.04510586336255074,1
0.609125912,0.005,-0.008378385566174984,-0.01865394786000252,-0.9958251714706421,-9.400655108038336e-05,-4.329958028392866e-05,-0.004982341080904007,-5.38035328645492e-06,6.239910362637602e-06,-3.459914239556383e-07,,,,,,
0.609979391,,,,,,,,,,,-0.01286160573363304,1,-0.01098751369863749,1,0.03921108320355415,1
0.614041865,0.005,-0.0084887919947505,-0.01850372552871704,-0.9963129758834839,-9.152544953394681e-05,-4.34474422945641e-05,-0.004984768573194742,-2.19346233620854e-07,1.98848033505783e-06,4.218518824927742e-06,,,,,,
0.614959896,,,,,,,,,,,-0.01142453122884035,1,-0.01209235284477472,1,0.03442804887890816,1
0.618934810,0.005,-0.008691688999533653,-0.01850148104131222,-0.9961115121841431,-9.239844075636938e-05,-4.432134301168844e-05,-0.004979323130100965,-1.130682790062565e-06,-1.857834149632254e-06,1.602566953806672e-06,,,,,,
0.619935751,,,,,,,,,,,-0.01142269093543291,1,-0.01410354766994715,1,0.03640390560030937,1
0.623805165,0.005,-0.00878921989351511,-0.01860937103629112,-0.9959020018577576,-9.365052392240614e-05,-4.477794936974533e-05,-0.004978009033948183,2.103605538650299e-06,-5.099459485791158e-07,1.497775883763097e-06,,,,,,
0.624906778,,,,,,,,,,,-0.01248914282768965,1,-0.01506304740905762,1,0.03845837712287903,1
0.628652573,0.005,-0.008618027903139591,-0.01859228312969208,-0.9958612322807312,-9.289284935221076e-05,-4.193498170934618e-05,-0.004978872835636139,-6.738772299286211e-06,2.493731585673231e-07,-1.238921754520561e-06,,,,,,
0.629873157,,,,,,,,,,,-0.01232785545289516,1,-0.0133981266990304,1,0.03885849937796593,1
0.633477092,0.005,-0.008577208034694195,-0.01873775944113731,-0.9957146644592285,-9.444258466828614e-05,-4.261404683347791e-05,-0.004977881442755461,-2.90489379040082e-06,-1.953094169948599e-06,1.43617467074364e-06,,,,,,
0.634834945,,,,,,,,,,,-0.01375075802206993,1,-0.01301951520144939,1,0.0402962751686573,1
0.638279676,0.005,-0.008575545623898506,-0.0187788400799036,-0.9952759146690369,-9.432624210603535e-05,-4.260388959664851e-05,-0.004973120056092739,1.27590021747892e-06,-3.680618874568609e-06,1.920869408422732e-06,,,,,,
0.639792621,,,,,,,,,,,-0.01414349488914013,1,-0.01302199717611074,1,0.04459850490093231,1
0.643320560,0.005,-0.008497332222759724,-0.0191316045820713,-0.9954752326011658,-9.746803698362783e-05,-4.209301914670505e-05,-0.004978018812835217,1.528251004856429e-06,3.098937781942368e-07,1.89054696875246e-06,,,,,,
0.644832253,,,,,,,,,,,-0.0175892561674118,1,-0.01225466933101416,1,0.0426434762775898,1
0.648511767,0.005,-0.008238931186497211,-0.01885821670293808,-0.9962287545204163,-9.280424274038523e-05,-3.943623960367404e-05,-0.004985451698303223,2.392198894085595e-06,2.031271151281544e-06,-6.328893960017012e-07,,,,,,
0.649867237,,,,,,,,,,,-0.01491522137075663,1,-0.009707939811050892,1,0.03525441512465477,1
0.653679371,0.005,-0.008310123346745968,-0.01864843815565109,-0.9964978694915771,-9.174535807687789e-05,-4.204550714348443e-05,-0.004984105471521616,-7.840106945877778e-07,-5.220084631218924e-07,-1.328556663793279e-06,,,,,,
0.654897928,,,,,,,,,,,-0.0128603857010603,1,-0.01039551850408316,1,0.03261605650186539,1
0.658823669,0.005,-0.007852585054934025,-0.01858292520046234,-0.9958769679069519,-9.263677929993719e-05,-3.675242260214873e-05,-0.004976280033588409,2.300269443367142e-06,-2.324225306438166e-06,-6.037756179466669e-07,,,,,,
0.659923732,,,,,,,,,,,-0.01221673842519522,1,-0.005900014191865921,1,0.0387047678232193,1
0.663944423,0.005,-0.007943646982312202,-0.01885795965790749,-0.9952170252799988,-9.585022053215653e-05,-4.026581518701278e-05,-0.004972072783857584,1.072493418519116e-07,-2.187118752772221e-06,-1.943605639098678e-06,,,,,,
0.664944887,,,,,,,,,,,-0.01490340195596218,1,-0.006776980124413967,1,0.04517634958028793,1
0.669041157,0.005,-0.00759586738422513,-0.01839612051844597,-0.9957193732261658,-8.909261669032276e-05,-3.595384623622522e-05,-0.004981589503586292,5.723684353142744e-07,3.077237806792255e-07,-3.988389380538138e-06,,,,,,
0.669961214,,,,,,,,,,,-0.01037069503217936,1,-0.00335222389549017,1,0.04024988040328026,1
0.674114287,0.005,-0.007569265086203814,-0.0183256808668375,-0.9955586791038513,-9.1439054813236e-05,-3.751695840037428e-05,-0.004976994823664427,2.315742051450798e-07,-1.590330612089019e-06,-1.989096972465632e-06,,,,,,
0.674973428,,,,,,,,,,,-0.009673863649368286,1,-0.003081467933952808,1,0.04182485118508339,1
0.679164171,0.005,-0.007748697884380817,-0.01856845244765282,-0.9953433871269226,-9.399027476320043e-05,-3.970628313254565e-05,-0.004975066520273685,-2.517318307582173e-06,-1.537599018774927e-06,8.550974825993762e-07,,,,,,
0.679980814,,,,,,,,,,,-0.01204277761280537,1,-0.00483402144163847,1,0.04393550381064415,1
0.684190452,0.005,-0.007297075819224119,-0.01826921105384827,-0.9955664873123169,-8.950670599006116e-05,-3.381942588021047e-05,-0.004978893790394068,-1.367311483591038e-06,4.214828095427947e-06,-3.060841891056043e-06,,,,,,
0.684983552,,,,,,,,,,,-0.009115099906921387,1,-0.0004140765231568366,1,0.04174738377332687,1
0.689193726,0.005,-0.006875226274132729,-0.01775665953755379,-0.9963416457176208,-8.57888808241114e-05,-3.181786087225191e-05,-0.004986771382391453,2.959117864520522e-06,4.665208507503849e-06,1.220423513359492e-07,,,,,,
0.689981461,,,,,,,,,,,-0.004112027585506439,1,0.003725519403815269,1,0.03414656594395638,1
0.694175720,0.005,-0.006396641489118338,-0.01772852428257465,-0.9961997866630554,-8.837333734845743e-05,-2.903249151131604e-05,-0.004980743862688541,1.344080828857841e-06,-3.442191314206866e-07,-5.816411317027814e-07,,,,,,
0.694977283,,,,,,,,,,,-0.00383989536203444,1,0.008455631323158741,1,0.03553720936179161,1
0.699144959,0.005,-0.006662404630333185,-0.01774485222995281,-0.9954643249511719,-8.847651042742655e-05,-3.459281288087368e-05,-0.004972605034708977,3.586175125747104e-07,-2.095081299557933e-06,-7.438080160682148e-07,,,,,,
0.699968517,,,,,,,,,,,-0.003997481428086758,1,0.005874256603419781,1,0.04274945333600044,1
0.704091668,0.005,-0.006650757975876331,-0.01813355833292007,-0.9950767159461975,-9.295876225223765e-05,-3.319838288007304e-05,-0.004972703289240599,-1.130076611843833e-06,3.601461742164247e-07,6.699265213683248e-06,,,,,,
0.704954863,,,,,,,,,,,-0.007801893632858992,1,0.006003023125231266,1,0.0465504489839077,1
0.709015548,0.005,-0.006729330867528915,-0.01803936436772346,-0.9960381388664246,-8.945843728724867e-05,-3.443937748670578e-05,-0.00498566497117281,-2.067977504793816e-07,3.575785967768752e-06,-1.915235088745249e-06,,,,,,
0.709936917,,,,,,,,,,,-0.006886884104460478,1,0.005240956787019968,1,0.03712226077914238,1
0.713916659,0.005,-0.007267753593623638,-0.01791786588728428,-0.9962573051452637,-8.912657358450815e-05,-3.955970169045031e-05,-0.004982533864676952,1.953218543349067e-06,-2.357475750613958e-06,7.702684001742455e-07,,,,,,
0.714914560,,,,,,,,,,,-0.005705524235963821,1,-2.721173223108053e-05,1,0.03497329354286194,1
0.718795002,0.005,-0.007473965175449848,-0.01786846853792667,-0.9960721135139465,-8.903323760023341e-05,-3.874000685755163e-05,-0.004979025572538376,-6.21993876848137e-07,1.222292098645994e-06,1.897114202620287e-06,,,,,,
0.719887376,,,,,,,,,,,-0.005230065900832415,1,-0.002041084226220846,1,0.03678970783948898,1
0.723651826,0.005,-0.007727270480245352,-0.01803497970104218,-0.9955787658691406,-9.088781371247023e-05,-4.033227742183954e-05,-0.004974937532097101,-1.860300585576624e-06,-3.93105347029632e-06,-3.622748181442148e-07,,,,,,
0.724855781,,,,,,,,,,,-0.006859114393591881,1,-0.004527784883975983,1,0.04162781313061714,1
0.728486121,0.005,-0.008081521838903427,-0.01792061142623425,-0.9954624772071838,-8.91522504389286e-05,-4.247880133334547e-05,-0.004976484458893538,4.718006607618008e-07,5.74034447708982e-06,1.874802705970069e-06,,,,,,
0.729819655,,,,,,,,,,,-0.005747731775045395,1,-0.008003020659089088,1,0.04276851192116737,1
0.733297944,0.005,-0.008151821792125702,-0.0177113302052021,-0.9956415891647339,-8.701127080712467e-05,-4.122412792639807e-05,-0.004979139193892479,-1.344050815532682e-06,-3.854450199014536e-07,2.587292556199827e-06,,,,,,
0.734778881,,,,,,,,,,,-0.003708685515448451,1,-0.008691541850566864,1,0.04101204127073288,1
0.738258660,0.005,-0.008936969563364983,-0.0181654766201973,-0.9954718947410583,-9.3516253400594e-05,-4.918072954751551e-05,-0.004976343363523483,-2.552361593188834e-07,-1.150219304690836e-06,-1.372112706121698e-06,,,,,,
0.739818990,,,,,,,,,,,-0.008170569315552711,1,-0.01638726145029068,1,0.04267606511712074,1
0.743453443,0.005,-0.009323581121861935,-0.01832084357738495,-0.995435357093811,-9.275732736568898e-05,-4.945931141264737e-05,-0.004976531025022268,-1.279958723898744e-06,1.859771145973355e-06,1.941563567697813e-07,,,,,,
0.744854808,,,,,,,,,,,-0.009691526181995869,1,-0.02018758840858936,1,0.04303475841879845,1
0.748624921,0.005,-0.009278415702283382,-0.01802747882902622,-0.9958487749099731,-8.872809848980978e-05,-4.604843707056716e-05,-0.004981686361134052,1.955146217369474e-06,-5.744029749621404e-07,-1.350705474578717e-06,,,,,,
0.749885976,,,,,,,,,,,-0.006826671306043863,1,-0.01973732560873032,1,0.03898049518465996,1
0.753772259,0.005,-0.009359104558825493,-0.01745228469371796,-0.9957281947135925,-8.361541404156014e-05,-4.737117342301644e-05,-0.004978047218173742,2.329256631128374e-06,2.790991402434884e-06,-1.876395714361934e-07,,,,,,
0.754912257,,,,,,,,,,,-0.001195255666971207,1,-0.02051371335983276,1,0.04016286507248878,1
0.758896410,0.005,-0.008696516044437885,-0.01717079244554043,-0.9954244494438171,-8.412318857153878e-05,-4.03060948883649e-05,-0.004975314252078533,-6.652036518062232e-06,3.448320740062627e-06,-1.575531541675446e-06,,,,,,
0.759934187,,,,,,,,,,,0.001536904368549585,1,-0.01402074750512838,1,0.0431426614522934,1
0.764000773,0.005,-0.009520835243165493,-0.01720808260142803,-0.9948912858963013,-8.56237456900999e-05,-5.15499159519095e-05,-0.004970216192305088,-2.651937620612443e-06,-4.278514097677544e-06,1.848886199695698e-06,,,,,,
0.764952302,,,,,,,,,,,0.00116220535710454,1,-0.02212397195398808,1,0.04837145656347275,1
0.769081116,0.005,-0.008619731292128563,-0.01694723591208458,-0.9969337582588196,-8.43134184833616e-05,-3.861877485178411e-05,-0.004997242242097855,-1.322510433965363e-05,4.022969733341597e-06,-2.986389517900534e-07,,,,,,
0.769965827,,,,,,,,,,,0.003717229701578617,1,-0.01333757117390633,1,0.02834174782037735,1
0.774138391,0.005,-0.008940043859183788,-0.01604899950325489,-0.9970088005065918,-7.319149881368503e-05,-4.49600993306376e-05,-0.004987121559679508,7.949750397528987e-06,-2.848204758265638e-06,1.519989268672362e-06,,,,,,
0.774974704,,,,,,,,,,,0.01251719798892736,1,-0.01650930382311344,1,0.0276064146310091,1
0.779172599,0.005,-0.009100902825593948,-0.01682084240019321,-0.995047926902771,-8.906552830012515e-05,-4.747115963255055e-05,-0.004962933249771595,-4.574199294893333e-07,-1.18780030788912e-06,6.172999746922869e-06,,,,,,
0.779978752,,,,,,,,,,,0.004949143622070551,1,-0.01807805523276329,1,0.04683626815676689,1
0.784183562,0.005,-0.007962225936353207,-0.01605270616710186,-0.9951161742210388,-7.600177195854485e-05,-3.243383616791107e-05,-0.004975627642124891,-9.864514140645042e-06,2.191958401454031e-06,-1.096113192033954e-05,,,,,,
0.784978449,,,,,,,,,,,0.01247729547321796,1,-0.006942177191376686,1,0.04616717994213104,1
0.789172232,0.005,-0.008194776251912117,-0.01566213183104992,-0.9958298206329346,-7.495248428313062e-05,-4.251806240063161e-05,-0.004983567632734776,-1.984378968700184e-06,-1.978799673452158e-06,7.750348231638782e-06,,,,,,
0.789973497,,,,,,,,,,,0.01630366034805775,1,-0.009253137744963169,1,0.03916902840137482,1
0.794138908,0.005,-0.007401595823466778,-0.01571137644350529,-0.9971349239349365,-7.902947982074693e-05,-3.207570989616215e-05,-0.004992649424821138,8.779252311796881e-07,-2.668276465556119e-06,-1.317356804975134e-06,,,,,,
0.794964194,,,,,,,,,,,0.01582964137196541,1,-0.001495073782280087,1,0.02636987529695034,1
0.799082220,0.005,-0.006781011819839478,-0.01642279326915741,-0.9964479207992554,-8.622161840321496e-05,-3.019590803887695e-05,-0.004979737568646669,4.621943389793159e-06,-6.176003353175474e-06,-6.614650374103803e-06,,,,,,
0.799950063,,,,,,,,,,,0.00888538733124733,1,0.00459152739495039,1,0.03310700505971909,1
0.804002821,0.005,-0.006565151270478964,-0.01567331328988075,-0.9945158958435059,-7.459647895302624e-05,-3.152604404021986e-05,-0.004961114842444658,4.739169526146725e-06,1.255959318768873e-06,2.881542968680151e-06,,,,,,
0.804931581,,,,,,,,,,,0.01625035330653191,1,0.006744368001818657,1,0.05205268040299416,1
0.808901370,0.005,-0.00681051891297102,-0.01629245653748512,-0.9956022500991821,-8.396715566050261e-05,-3.567606472643092e-05,-0.004982475191354752,-7.520447525166674e-06,-6.472875156759983e-06,-8.436374628217891e-06,,,,,,
0.809908509,,,,,,,,,,,0.01020092982798815,1,0.004335637204349041,1,0.04139907285571098,1
0.813778937,0.005,-0.00584211153909564,-0.01650761067867279,-0.9966414570808411,-8.530986815458164e-05,-2.346831752220169e-05,-0.004991426598280668,8.92281695996644e-06,8.316595085489098e-06,-2.462235443090321e-06,,,,,,
0.814881563,,,,,,,,,,,0.00808966439217329,1,0.01384494826197624,1,0.0312078669667244,1
0.818636298,0.005,-0.006226810626685619,-0.01540059875696898,-0.9933838248252869,-6.926437345100567e-05,-3.265331906732172e-05,-0.004947949200868607,9.806762136577163e-06,-6.09851394983707e-06,-8.832500384414743e-07,,,,,,
0.819850266,,,,,,,,,,,0.01894054561853409,1,0.01013248041272163,1,0.06315390020608902,1
0.823471844,0.005,-0.007895191200077534,-0.01767032220959663,-0.9934898614883423,-0.0001020111667457968,-4.965131665812805e-05,-0.004964726977050304,-4.982893187843729e-06,-4.111873295187252e-06,-2.821544285325217e-06,,,,,,
0.824814081,,,,,,,,,,,-0.00327951111830771,1,-0.006188289728015661,1,0.0621129609644413,1
0.828284919,0.005,-0.006337012629956007,-0.01608587056398392,-0.9967363476753235,-7.282126171048731e-05,-2.38756874750834e-05,-0.005003970582038164,-1.083007555280346e-05,2.26362026296556e-05,1.132486772803531e-06,,,,,,
0.829773545,,,,,,,,,,,0.01220374926924706,1,0.009061903692781925,1,0.03027724474668503,1
0.833161473,0.005,-0.006986368913203478,-0.01455871388316154,-0.99537593126297,-6.17515470366925e-05,-3.713029946084134e-05,-0.004970013629645109,1.045814315148164e-05,-1.142752807936631e-05,-1.490132831349911e-06,,,,,,
0.834813952,,,,,,,,,,,0.02713841944932938,1,0.002698180731385946,1,0.04361921548843384,1
0.838357747,0.005,-0.008896525949239731,-0.0172494500875473,-0.9948216080665588,-0.0001024463417707011,-5.712239726562984e-05,-0.004968883004039526,-6.185574420669582e-06,-6.332148586807307e-06,-2.656246579135768e-06,,,,,,
0.839849710,,,,,,,,,,,0.0007772794924676418,1,-0.01602321863174438,1,0.04905475303530693,1
0.843528986,0.005,-0.007560005877166986,-0.01714532077312469,-0.9978718161582947,-8.631416130810976e-05,-3.037761780433357e-05,-0.00500692380592227,-7.83915129431989e-06,1.302289456361905e-05,1.173882083094213e-05,,,,,,
0.844880879,,,,,,,,,,,0.001781593193300068,1,-0.002949291374534369,1,0.01914284005761147,1
0.848676085,0.005,-0.007788503542542458,-0.01777851022779942,-0.9984886050224304,-9.168029646389186e-05,-3.963692870456725e-05,-0.004997826181352139,7.529587492172141e-06,-1.338158199359896e-05,5.389040779846255e-06,,,,,,
0.849907458,,,,,,,,,,,-0.004429938737303019,1,-0.005195983219891787,1,0.01309453696012497,1
0.853804529,0.005,-0.006078301928937435,-0.01869471929967403,-0.9944511651992798,-0.0001005581580102444,-2.034092176472768e-05,-0.004950034432113171,8.337335657415679e-07,-5.099303052702453e-06,-9.89537966233911e-07,,,,,,
0.854930162,,,,,,,,,,,-0.01336773671209812,1,0.01159053854644299,1,0.05268749594688416,1
0.858909190,0.005,-0.009316479787230492,-0.01898034662008286,-0.9905257821083069,-9.513421537121758e-05,-6.386730819940567e-05,-0.004926485475152731,8.027354851947166e-06,-2.779701389954425e-06,8.726971827854868e-06,,,,,,
0.859948277,,,,,,,,,,,-0.01613787189126015,1,-0.02012802287936211,1,0.09118124097585678,1
0.863989770,0.005,-0.007939750328660011,-0.01996460556983948,-0.9969106912612915,-0.0001082650269381702,-3.601603748393245e-05,-0.005019519478082657,-2.823506110871676e-05,1.879531191661954e-05,-7.919277777546085e-06,,,,,,
0.864961803,,,,,,,,,,,-0.02581385336816311,1,-0.006670338101685047,1,0.02856752648949623,1
0.869047284,0.005,-0.006188994273543358,-0.01710890978574753,-1.000368475914001,-6.762639532098547e-05,-1.645598422328476e-05,-0.005028326995670795,1.062536648532841e-05,6.278630735323532e-06,3.794505119003588e-06,,,,,,
0.869970679,,,,,,,,,,,0.002108429558575153,1,0.01043137162923813,1,-0.005340223666280508,1
0.874082804,0.005,-0.009794927202165127,-0.01962835900485516,-0.9937920570373535,-0.000111496883619111,-7.093489693943411e-05,-0.004930042661726475,2.285537811985705e-05,-1.884486482595094e-05,1.245049679710064e-05,,,,,,
0.874974966,,,,,,,,,,,-0.02258896827697754,1,-0.0248409528285265,1,0.05915173143148422,1
0.879095316,0.005,-0.008568324148654938,-0.01994304917752743,-0.993861973285675,-0.0001047784026013687,-3.63964463758748e-05,-0.00496564107015729,-2.094502087857109e-05,4.304192771087401e-06,-1.808460001484491e-05,,,,,,
0.879974902,,,,,,,,,,,-0.02564367651939392,1,-0.01280046161264181,1,0.05846597626805305,1
0.884085000,0.005,-0.008739837445318699,-0.01710219122469425,-0.9956879615783691,-6.817378016421571e-05,-4.400488614919595e-05,-0.004990642424672842,6.453066134781693e-07,1.079392495739739e-05,4.595809173224552e-07,,,,,,
0.884970009,,,,,,,,,,,0.002179972361773252,1,-0.01451900880783796,1,0.04055929929018021,1
0.889051139,0.005,-0.01007465925067663,-0.01647062972187996,-0.9958990812301636,-7.791285315761343e-05,-5.835247065988369e-05,-0.004980871453881264,4.486102170631057e-06,-5.630093255604152e-06,6.913154720677994e-06,,,,,,
0.889960706,,,,,,,,,,,0.008349191397428513,1,-0.02759196981787682,1,0.03848899155855179,1
0.893994749,0.005,-0.009740870445966721,-0.01924461685121059,-0.9955558776855469,-0.0001116029598051682,-4.791130777448416e-05,-0.004976531490683556,-3.631105869317253e-07,-9.58920645643957e-06,-8.718295248399954e-06,,,,,,
0.894946575,,,,,,,,,,,-0.01881612464785576,1,-0.02430000714957714,1,0.04185386747121811,1
0.898915350,0.005,-0.01022663060575724,-0.01777461357414722,-0.9948346614837646,-8.307825191877782e-05,-5.295064329402521e-05,-0.004969456233084202,1.114364476961782e-05,1.781140963430516e-05,1.570224776514806e-05,,,,,,
0.899927795,,,,,,,,,,,-0.004428202286362648,1,-0.02900855056941509,1,0.04892696812748909,1
0.903813362,0.005,-0.01042893435806036,-0.01706374250352383,-0.9977206587791443,-7.850184920243919e-05,-5.470618270919658e-05,-0.00500414939597249,-2.036874138866551e-05,-9.350079380965326e-06,-1.175316356238909e-05,,,,,,
0.904904962,,,,,,,,,,,0.002527931937947869,1,-0.03099599480628967,1,0.02062521502375603,1
0.908690691,0.005,-0.007894747890532017,-0.01726684533059597,-0.9992741346359253,-8.933675417210907e-05,-2.442486947984435e-05,-0.005008651409298182,-4.212109161016997e-06,8.49804564495571e-06,-5.106905064167222e-06,,,,,,
0.909877479,,,,,,,,,,,0.0005234521813690662,1,-0.006200780626386404,1,0.005391336046159267,1
0.913545728,0.005,-0.007539724931120872,-0.01401925832033157,-0.9924333095550537,-4.95943968417123e-05,-3.487053982098587e-05,-0.004922431893646717,1.464903562009567e-05,-7.76125853008125e-06,1.283928941120394e-05,,,,,,
0.914845467,,,,,,,,,,,0.03235463798046112,1,-0.002703786361962557,1,0.07247617840766907,1
0.918377995,0.005,-0.008570551872253418,-0.0180075541138649,-0.9907981753349304,-0.0001119035005103797,-4.881501808995381e-05,-0.004939673468470573,-1.184554457722697e-05,-1.892229920485988e-05,-8.086752131930552e-06,,,,,,
0.919808745,,,,,,,,,,,-0.006671466864645481,1,-0.01281014457345009,1,0.08851097524166107,1
0.923187435,0.005,-0.007850987836718559,-0.0177297405898571,-0.9974768161773682,-9.083007171284407e-05,-3.664617906906642e-05,-0.005026851780712605,-1.544753831694834e-05,3.432356606936082e-05,1.023039658321068e-05,,,,,,
0.924767256,,,,,,,,,,,-0.003980171866714954,1,-0.005820998456329107,1,0.02301665768027306,1
0.928061426,0.005,-0.005896791815757751,-0.01379268243908882,-0.9997639060020447,-4.320154039305635e-05,-1.659588269831147e-05,-0.005015586968511343,7.117301265679998e-06,-2.128863116013235e-06,8.304113521262479e-07,,,,,,
0.929807901,,,,,,,,,,,0.03453057259321213,1,0.01330188009887934,1,0.0005901159602217376,1
0.933259785,0.005,-0.007109095808118582,-0.01732291467487812,-0.9951725602149963,-0.0001060706126736477,-4.259058550815098e-05,-0.004950225818902254,7.840598300390411e-06,-2.20491874642903e-05,-1.586510734341573e-05,,,,,,
0.934844136,,,,,,,,,,,-4.567671567201614e-05,1,0.001436948892660439,1,0.04561518877744675,1
0.938434303,0.005,-0.007594214286655188,-0.01718392968177795,-0.99351567029953,-8.837883797241375e-05,-4.15110080211889e-05,-0.004954001400619745,-9.80732511379756e-06,1.557780524308328e-05,8.80811785464175e-06,,,,,,
0.939875603,,,,,,,,,,,0.001328054815530777,1,-0.003316748421639204,1,0.06186334416270256,1
0.943584263,0.005,-0.006084442138671875,-0.01620851829648018,-0.9983158111572266,-7.218337850645185e-05,-2.219490670540836e-05,-0.005020662676542997,-1.671335121500306e-05,-5.121369667904219e-06,-9.959751878341194e-06,,,,,,
0.944902420,,,,,,,,,,,0.01086933165788651,1,0.01141672395169735,1,0.01479046419262886,1
0.948713720,0.005,-0.004756996408104897,-0.01774891465902328,-0.9964702725410461,-0.0001004133810056373,-1.425227674189955e-05,-0.004975189454853535,9.686792509455699e-06,-1.183080030386918e-06,-3.272205731263966e-06,,,,,,
0.949925661,,,,,,,,,,,-0.004218652844429016,1,0.02438682690262794,1,0.03288871794939041,1
0.953820169,0.005,-0.007523640058934689,-0.01616016402840614,-0.9913789629936218,-7.082655793055892e-05,-5.360491195460781e-05,-0.004925213288515806,4.503708169067977e-06,-6.939615104784025e-06,-8.619563800493779e-07,,,,,,
0.954944253,,,,,,,,,,,0.0113731799647212,1,-0.002707555424422026,1,0.08281800895929337,1
0.958903790,0.005,-0.0084427110850811,-0.01918278262019157,-0.9949827194213867,-0.0001123409747378901,-4.958341014571488e-05,-0.004991749301552773,-2.081962338706944e-05,-2.377617420279421e-06,-8.460388016828801e-06,,,,,,
0.959958017,,,,,,,,,,,-0.01822853274643421,1,-0.01176324021071196,1,0.04747620224952698,1
0.963964164,0.005,-0.00676729017868638,-0.01727679558098316,-1.000756740570068,-7.878539327066392e-05,-2.376138218096457e-05,-0.005041110329329967,-4.320646439737175e-06,3.511375325615518e-05,9.514377552477526e-07,,,,,,
0.964967191,,,,,,,,,,,0.0003763958811759949,1,0.004585260059684515,1,-0.009145224466919899,1
0.968999922,0.005,-0.007899380289018154,-0.01468051131814718,-0.9957684278488159,-5.432539182947949e-05,-4.504372918745503e-05,-0.004952888004481792,2.170872903661802e-05,-1.814958159229718e-05,-2.616998017401784e-06,,,,,,
0.969971478,,,,,,,,,,,0.0257631428539753,1,-0.006491325795650482,1,0.03977463021874428,1
0.974012673,0.005,-0.009211753495037556,-0.01919799670577049,-0.9911759495735168,-0.000122236626339145,-5.433970727608539e-05,-0.004925627261400223,-6.519402631965932e-06,-1.117791271099122e-05,2.747236976574641e-06,,,,,,
0.974971414,,,,,,,,,,,-0.0184766985476017,1,-0.01931818202137947,1,0.08480997383594513,1
0.979003370,0.005,-0.008155554533004761,-0.01811773702502251,-0.9940589070320129,-8.683610940352082e-05,-3.507218934828416e-05,-0.004985678941011429,-1.52224201883655e-05,3.581089185900055e-05,9.935887646861374e-06,,,,,,
0.979966700,,,,,,,,,,,-0.007954047992825508,1,-0.009004062041640282,1,0.05653969198465347,1
0.983970046,0.005,-0.007022055797278881,-0.01516789104789495,-0.9979562163352966,-5.672797124134377e-05,-2.760684947133996e-05,-0.005014618393033743,4.149189408053644e-06,-3.271836021667696e-06,-1.991696763070649e-06,,,,,,
0.984957457,,,,,,,,,,,0.02086926065385342,1,0.002073309849947691,1,0.01832153461873531,1
0.988913417,0.005,-0.008318810723721981,-0.01803540252149105,-0.9967500567436218,-0.0001054534004651941,-4.784163320437074e-05,-0.004978008568286896,1.253582013305277e-05,-1.863275974756107e-05,7.194385943876114e-06,,,,,,
0.989943326,,,,,,,,,,,-0.00723434891551733,1,-0.01061494462192059,1,0.03014966286718845,1
0.993833959,0.005,-0.009117369540035725,-0.01986976154148579,-0.9974174499511719,-0.0001120969318435527,-5.197868449613452e-05,-0.004989305976778269,-4.323133452999173e-06,6.573097834916553e-07,7.886013918323442e-06,,,,,,
0.994924545,,,,,,,,,,,-0.02519036456942558,1,-0.01841393299400806,1,0.02360408380627632,1
0.998731494,0.005,-0.005505017936229706,-0.01982244662940502,-0.9984946846961975,-9.853331721387804e-05,-7.714833373029251e-06,-0.005001290235668421,-1.359389443678083e-05,-4.401711521495599e-06,-4.972070200892631e-06,,,,,,
0.999901712,,,,,,,,,,,-0.02470193803310394,1,0.01697391644120216,1,0.01304014213383198,1
1.003609061,0.005,-0.007178225554525852,-0.01982135698199272,-0.9922516345977783,-9.927833161782473e-05,-4.219198308419436e-05,-0.004925309680402279,2.433073859720025e-05,-4.602216904459056e-06,4.154072485107463e-06,,,,,,
1.004874229,,,,,,,,,,,-0.02465514466166496,1,0.0005877129733562469,1,0.07426252961158752,1
1.008464336,0.005,-0.009058178402483463,-0.01967666670680046,-0.9911847114562988,-9.748688898980618e-05,-6.021555600455031e-05,-0.004945330321788788,-1.060773411154514e-05,8.21546018414665e-06,-1.712844550638692e-06,,,,,,
1.009841919,,,,,,,,,,,-0.02323222532868385,1,-0.0177969541400671,1,0.084725022315979,1
1.013296843,0.005,-0.006482390221208334,-0.01898208260536194,-0.9964225888252258,-9.071870590560138e-05,-1.576795330038294e-05,-0.005013074725866318,-1.100832832889864e-05,9.230918294633739e-06,-6.854549610579852e-06,,,,,,
1.014804959,,,,,,,,,,,-0.01645903289318085,1,0.007410722784698009,1,0.03335937112569809,1
1.018106580,0.005,-0.009110325947403908,-0.01902851648628712,-0.9962559342384338,-9.502792818238959e-05,-6.038322680979036e-05,-0.004982289858162403,1.284755398955895e-05,5.721881279896479e-06,6.686055257887347e-06,,,,,,
1.019763470,,,,,,,,,,,-0.01697500981390476,1,-0.01834780909121037,1,0.03499523550271988,1
1.022981167,0.005,-0.008510441519320011,-0.01921065896749496,-0.996402382850647,-9.809716721065342e-05,-4.036898099002428e-05,-0.004980967380106449,-1.322363277722616e-05,-4.251872383065347e-07,-1.542911559226923e-05,,,,,,
1.024804831,,,,,,,,,,,-0.01880104094743729,1,-0.01247224025428295,1,0.03356014937162399,1
1.028182030,0.005,-0.008604339323937893,-0.01828404329717159,-0.9969438314437866,-8.515982335666195e-05,-4.281791188986972e-05,-0.004989222157746553,-4.214278305880725e-06,2.610208639453049e-06,-6.277017291722586e-06,,,,,,
1.029841661,,,,,,,,,,,-0.009739266708493233,1,-0.01343612093478441,1,0.02825142815709114,1
1.033359647,0.005,-0.009273112751543522,-0.01704731024801731,-0.9948936700820923,-7.837262091925368e-05,-5.020124444854446e-05,-0.004961815662682056,-4.608859853760805e-06,2.390050212852657e-06,8.795193934929557e-06,,,,,,
1.034873843,,,,,,,,,,,0.002355033764615655,1,-0.0200299397110939,1,0.04835724458098412,1
1.038513184,0.005,-0.009078811854124069,-0.01816252432763577,-0.9944320321083069,-9.565562504576519e-05,-4.468380939215422e-05,-0.004969427362084389,-7.290751455002464e-06,-9.276109267375432e-06,-6.891006250953069e-06,,,,,,
1.039901137,,,,,,,,,,,-0.00858256034553051,1,-0.01817644201219082,1,0.05288561061024666,1
1.043643951,0.005,-0.008243405260145664,-0.01853772066533566,-0.9943652153015137,-9.702703391667455e-05,-3.604298763093539e-05,-0.004971008747816086,4.286452167434618e-06,1.071619863068918e-05,9.837994184636045e-06,,,,,,
1.044924974,,,,,,,,,,,-0.0122684808447957,1,-0.009998483583331108,1,0.05354059487581253,1
1.048754692,0.005,-0.008706036955118179,-0.01655299216508865,-0.9955113530158997,-6.905842019477859e-05,-4.577863001031801e-05,-0.004983113147318363,-7.249072950799018e-06,-7.991759048309177e-06,-1.462668706153636e-07,,,,,,
1.049943805,,,,,,,,,,,0.007177412509918213,1,-0.01455984637141228,1,0.04230028390884399,1
1.053841352,0.005,-0.008485401049256325,-0.01846791617572308,-0.9984857439994812,-0.0001039690105244517,-4.214880391373299e-05,-0.005010401830077171,-1.219704518007347e-05,-6.572997790499358e-06,-7.081030162225943e-06,,,,,,
1.054958105,,,,,,,,,,,-0.01155720092356205,1,-0.01246152631938457,1,0.01313164085149765,1
1.058903813,0.005,-0.006697544362396002,-0.01499998569488525,-0.9969790577888489,-5.596788469119929e-05,-2.281696652062237e-05,-0.004978341050446033,6.53031338515575e-06,6.485737230832456e-06,1.161651834991062e-05,,,,,,
1.059967756,,,,,,,,,,,0.02244239486753941,1,0.005040230695158243,1,0.02790684066712856,1
1.063942194,0.005,-0.006688270717859268,-0.016104681417346,-0.9924602508544922,-8.293976134154946e-05,-3.228959394618869e-05,-0.004934527911245823,6.488566668849671e-06,-3.040712181245908e-05,-3.987643140135333e-07,,,,,,
1.064972520,,,,,,,,,,,0.01168953068554401,1,0.005153496749699116,1,0.07222017645835876,1
1.068957448,0.005,-0.007023943122476339,-0.01923651620745659,-0.9935102462768555,-0.0001171622352558188,-3.804323205258697e-05,-0.004971553105860949,-1.528297798358835e-05,8.746074854570907e-06,3.222910208933172e-06,,,,,,
1.069972754,,,,,,,,,,,-0.01893819868564606,1,0.001835514092817903,1,0.06192287802696228,1
1.073950171,0.005,-0.005765976384282112,-0.0162573829293251,-0.9964600801467896,-6.378911348292604e-05,-2.094736191793345e-05,-0.005001152865588665,-3.97962367060245e-06,1.674703889875673e-05,2.042557753156871e-06,,,,,,
1.074968338,,,,,,,,,,,0.01022669300436974,1,0.01411733217537403,1,0.03299544006586075,1
1.078919411,0.005,-0.006841498427093029,-0.01710060425102711,-0.9967477321624756,-8.798423368716612e-05,-3.945918433601037e-05,-0.00498616648837924,3.918958555004792e-06,-1.369327037537005e-05,-6.85476379658212e-06,,,,,,
1.079959273,,,,,,,,,,,0.001957145519554615,1,0.003553534857928753,1,0.03017450496554375,1
1.083865285,0.005,-0.007890958338975906,-0.01771827042102814,-0.9962557554244995,-9.41173784667626e-05,-4.624094071914442e-05,-0.004977849777787924,-1.620388843548426e-06,9.549258720653597e-06,-4.555166469799588e-06,,,,,,
1.084945679,,,,,,,,,,,-0.004103007726371288,1,-0.006744115613400936,1,0.03499987348914146,1
1.088787913,0.005,-0.007363188546150923,-0.01629683561623096,-0.9976497888565063,-7.239534170366824e-05,-3.391954669496045e-05,-0.004997147247195244,-7.228869435493834e-06,3.031773758266354e-06,-5.141182555234991e-06,,,,,,
1.089927435,,,,,,,,,,,0.009790223091840744,1,-0.001590210944414139,1,0.02132977545261383,1
1.093687296,0.005,-0.006701763719320297,-0.01747868023812771,-0.9961158037185669,-9.389931801706553e-05,-2.941117963928264e-05,-0.004972455557435751,1.350663865196111e-06,-1.255141069123056e-05,-4.006123162980657e-06,,,,,,
1.094904304,,,,,,,,,,,-0.001763059757649899,1,0.004893202800303698,1,0.03637262061238289,1
1.098565936,0.005,-0.007159971632063389,-0.0170875322073698,-0.9939785599708557,-8.411602902924642e-05,-3.811653368757106e-05,-0.004956286400556564,7.71692066336982e-06,1.055880375133711e-06,1.929909103637328e-06,,,,,,
1.099877119,,,,,,,,,,,0.002101060235872865,1,0.0004365176428109407,1,0.05733119696378708,1
1.103422761,0.005,-0.007749880198389292,-0.0168701596558094,-0.9939972758293152,-8.193239045795053e-05,-4.291581717552617e-05,-0.004969391040503979,-1.793403157535067e-06,-6.151901288831141e-06,1.242816892954579e-06,,,,,,
1.104845285,,,,,,,,,,,0.004268457647413015,1,-0.005319064483046532,1,0.05714652314782143,1
1.108257055,0.005,-0.007757884450256824,-0.01754045113921165,-0.9960402250289917,-9.27678556763567e-05,-3.889133949996904e-05,-0.004992159549146891,-4.531153990683379e-06,1.054909807862714e-05,1.093103037419496e-06,,,,,,
1.109808922,,,,,,,,,,,-0.002306194510310888,1,-0.005398985464125872,1,0.037111796438694,1
1.113069057,0.005,-0.008042288944125175,-0.01653409376740456,-0.9971758127212524,-7.64210126362741e-05,-4.195077781332657e-05,-0.004993931856006384,7.576812208753836e-07,5.334703018888831e-06,-2.538336900670402e-07,,,,,,
1.114767909,,,,,,,,,,,0.007512141950428486,1,-0.008189335465431213,1,0.02597578801214695,1
1.117945910,0.005,-0.008366638794541359,-0.01807046309113503,-0.9963039755821228,-9.81640987447463e-05,-4.415709190652706e-05,-0.004976688884198666,-5.159467946214136e-07,-7.392076440737583e-06,8.095901762317226e-07,,,,,,
1.119809747,,,,,,,,,,,-0.007553890813142061,1,-0.01137018762528896,1,0.03452563285827637,1
1.123149037,0.005,-0.007892893627285957,-0.01861510425806046,-0.9955001473426819,-9.794841753318906e-05,-3.687419666675851e-05,-0.004972499329596758,-2.825695446517784e-06,8.428492037637625e-06,4.119363438803703e-06,,,,,,
1.124846816,,,,,,,,,,,-0.01291280798614025,1,-0.006728895008563995,1,0.04240899160504341,1
1.128328681,0.005,-0.007471973076462746,-0.01779866404831409,-0.99558424949646,-8.384796819882467e-05,-3.468057548161596e-05,-0.004978286102414131,-3.51231477679903e-07,4.731332865048898e-06,4.107519998797216e-06,,,,,,
1.129879355,,,,,,,,,,,-0.004946955014020205,1,-0.002609861316159368,1,0.04158560559153557,1
1.133484840,0.005,-0.007676722947508097,-0.01843713410198689,-0.9951988458633423,-9.493099059909582e-05,-3.942145849578083e-05,-0.004973662551492453,-2.174277824451565e-07,-5.592313300439855e-06,2.88041132989747e-06,,,,,,
1.134907126,,,,,,,,,,,-0.01121614128351212,1,-0.004618673585355282,1,0.04536497965455055,1
1.138618350,0.005,-0.008758665062487125,-0.0191497877240181,-0.9959294199943542,-0.0001010820415103808,-5.019583477405831e-05,-0.004982579965144396,-1.871076506176905e-06,4.31886928708991e-06,4.161343440500787e-06,,,,,,
1.139931440,,,,,,,,,,,-0.01822142489254475,1,-0.01523166801780462,1,0.03820087388157845,1
1.143732429,0.005,-0.008490672335028648,-0.01897989399731159,-0.9971255660057068,-9.36477881623432e-05,-4.130582965444773e-05,-0.004993418231606483,-7.800072125974111e-06,2.429100902645587e-07,-3.07176173919288e-06,,,,,,
1.144951344,,,,,,,,,,,-0.01657198742032051,1,-0.01263338699936867,1,0.026470847427845,1
1.148823857,0.005,-0.008783571422100067,-0.01898921094834805,-0.996243417263031,-9.487825445830822e-05,-4.505185643211007e-05,-0.004976741038262844,4.398765213409206e-06,-4.990234174329089e-06,-1.902132339637319e-06,,,,,,
1.149966359,,,,,,,,,,,-0.01665346138179302,1,-0.01551978290081024,1,0.03512153774499893,1
1.153891325,0.005,-0.009490795433521271,-0.01826652511954308,-0.9942694306373596,-8.712885028216988e-05,-5.21332367497962e-05,-0.00495944544672966,-1.192872787214583e-07,1.260924022972176e-06,3.74547624915067e-07,,,,,,
1.154977083,,,,,,,,,,,-0.009561981074512005,1,-0.022452212870121,1,0.05448005348443985,1
1.158935785,0.005,-0.00887768343091011,-0.01844683662056923,-0.9938635230064392,-9.299526573158801e-05,-4.062178413732909e-05,-0.004965844564139843,4.365948825579835e-06,4.126223302591825e-06,8.921858096755386e-08,,,,,,
1.159982800,,,,,,,,,,,-0.01134281046688557,1,-0.01642600260674953,1,0.05846103653311729,1
1.163956165,0.005,-0.00854979082942009,-0.0182531327009201,-0.9955319762229919,-9.040742588695139e-05,-4.057225305587053e-05,-0.004987547174096107,4.358107162261149e-06,1.130891359935049e-05,3.411679017517599e-06,,,,,,
1.164984345,,,,,,,,,,,-0.00949317030608654,1,-0.01318029500544071,1,0.04209920763969421,1
1.168955684,0.005,-0.008462492376565933,-0.01790552213788033,-0.9969903826713562,-8.695277938386425e-05,-4.221249037072994e-05,-0.004993850830942392,-1.808672664083133e-06,4.248161289410746e-08,9.900060149448109e-07,,,,,,
1.169981480,,,,,,,,,,,-0.006137809716165066,1,-0.01230187248438597,1,0.0277981124818325,1
1.173931241,0.005,-0.00848116260021925,-0.0180057268589735,-0.9971179962158203,-9.041700832312927e-05,-4.269676719559357e-05,-0.004986386280506849,-1.047913769980369e-06,3.83069306053585e-07,-1.431301029697352e-06,,,,,,
1.174973726,,,,,,,,,,,-0.007141176611185074,1,-0.01248515304177999,1,0.02654705196619034,1
1.178884387,0.005,-0.00849131029099226,-0.01745449379086494,-0.9967108964920044,-8.443318074569106e-05,-4.237485700286925e-05,-0.004981287755072117,4.472159616852878e-06,-5.13392342327279e-06,-1.704965143289883e-06,,,,,,
1.179961324,,,,,,,,,,,-0.001738743740133941,1,-0.01256612315773964,1,0.03053930588066578,1
1.183814406,0.005,-0.008217171765863895,-0.01721006445586681,-0.9960088133811951,-8.450331370113418e-05,-3.984895374742337e-05,-0.004976251628249884,-7.342119374698086e-07,-3.785208491535741e-06,-2.047793259407626e-06,,,,,,
1.184944153,,,,,,,,,,,0.0006756840739399195,1,-0.009857923723757267,1,0.03742425516247749,1
1.188721180,0.005,-0.007134477607905865,-0.01744647324085236,-0.9948425889015198,-8.858824003254995e-05,-2.918248355854303e-05,-0.00496731698513031,2.543443770264275e-06,2.976447888158873e-07,1.217488943439093e-06,,,,,,
1.189922571,,,,,,,,,,,-0.001623937976546586,1,0.0007695626700296998,1,0.04886071756482124,1
1.193607211,0.005,-0.006897921208292246,-0.01778265088796616,-0.9941187500953674,-9.04438056750223e-05,-3.290048334747553e-05,-0.004965380765497684,1.364454988106445e-06,2.876793416817236e-07,9.92063405647059e-07,,,,,,
1.194897175,,,,,,,,,,,-0.0049208072014153,1,0.003108692821115255,1,0.05595863610506058,1
1.198472500,0.005,-0.006550059653818607,-0.01819694042205811,-0.9953254461288452,-9.400892304256558e-05,-3.095946158282459e-05,-0.004983643535524607,-6.131738246040186e-06,4.861527713728719e-07,-7.791313691996038e-06,,,,,,
1.199866891,,,,,,,,,,,-0.008982760831713676,1,0.0065159578807652,1,0.0441245324909687,1
1.203314900,0.005,-0.006246120668947697,-0.01746969670057297,-0.9963111877441406,-8.299497130792588e-05,-2.927620880655013e-05,-0.004987852647900581,1.695619744168653e-06,1.351175114905345e-06,-3.555287776180194e-06,,,,,,
1.204832315,,,,,,,,,,,-0.00185677467379719,1,0.009499113075435162,1,0.03445795178413391,1
1.208134651,0.005,-0.006584844551980495,-0.01702442765235901,-0.9958635568618774,-8.170827641151845e-05,-3.532485425239429e-05,-0.004976841155439615,2.126406798197422e-06,-5.295817118167179e-06,-3.433838458022365e-07,,,,,,
1.209792733,,,,,,,,,,,0.002511932514607906,1,0.006188159342855215,1,0.03884779661893845,1
1.213018417,0.005,-0.006971716415137053,-0.01778724603354931,-0.9953141212463379,-9.330160537501797e-05,-3.681634916574694e-05,-0.004972746130079031,-2.843588617906789e-06,1.642586539674085e-06,2.808442559398827e-06,,,,,,
1.214834690,,,,,,,,,,,-0.004961525090038776,1,0.002396261785179377,1,0.04423579946160316,1
1.218222380,0.005,-0.007361125200986862,-0.01781202293932438,-0.9955103397369385,-8.930428884923458e-05,-3.983266651630402e-05,-0.004978795535862446,-3.359814172654296e-06,3.192490112269297e-06,2.192055262639769e-06,,,,,,
1.219871759,,,,,,,,,,,-0.005213979166001081,1,-0.001434248173609376,1,0.04231157526373863,1
1.223402023,0.005,-0.006735128350555897,-0.01787891052663326,-0.9959274530410767,-8.985184103948995e-05,-2.941392085631378e-05,-0.004981843754649162,-9.89750333246775e-07,3.331600737510598e-06,2.155049969587708e-06,,,,,,
1.224904418,,,,,,,,,,,-0.005892399698495865,1,0.00469232676550746,1,0.03822178021073341,1
1.228558540,0.005,-0.007082305382937193,-0.01755029521882534,-0.9965782761573792,-8.641411841381341e-05,-3.771123010665178e-05,-0.004987036343663931,2.920291763075511e-06,3.636530720996234e-07,1.669738480813976e-06,,,,,,
1.229932785,,,,,,,,,,,-0.002693673130124807,1,0.001286271377466619,1,0.03183916583657265,1
1.233691931,0.005,-0.007241403684020042,-0.01719238050282001,-0.9959457516670227,-8.35745595395565e-05,-3.730622120201588e-05,-0.004976687487214804,7.840315561224998e-07,-2.27776104111399e-06,1.977538431674475e-06,,,,,,
1.234956264,,,,,,,,,,,0.0008156908443197608,1,-0.0002629086375236511,1,0.03804222494363785,1
1.238800883,0.005,-0.007617573719471693,-0.01693538203835487,-0.9955307245254517,-8.293637802125886e-05,-4.036532845930196e-05,-0.004974484909325838,-1.883465074570267e-06,8.098778380372096e-06,-2.256334255434922e-06,,,,,,
1.239975452,,,,,,,,,,,0.003309727646410465,1,-0.003945476841181517,1,0.04211302474141121,1
1.243886828,0.005,-0.007821016013622284,-0.01684780605137348,-0.9958251118659973,-8.378124766750261e-05,-4.018974141217768e-05,-0.004981113597750664,-3.360350774528342e-06,2.970835794258164e-06,3.695863370012376e-06,,,,,,
1.244989753,,,,,,,,,,,0.004131045658141375,1,-0.005949968006461859,1,0.03922682255506516,1
1.248949289,0.005,-0.007719768211245537,-0.01674657315015793,-0.9956994652748108,-8.296006126329303e-05,-3.831314825220034e-05,-0.004978327546268702,-4.923914502796833e-07,6.197021320986096e-06,9.657655937189702e-07,,,,,,
1.249999046,,,,,,,,,,,0.005082076415419579,1,-0.004968157038092613,1,0.04046033322811127,1
1.253989577,0.005,-0.007918758317828178,-0.01688416115939617,-0.9948798418045044,-8.503908611601219e-05,-4.055754106957465e-05,-0.004969333298504353,-1.355745780529105e-06,4.495123846481874e-07,4.834890887650545e-07,,,,,,
1.255004406,,,,,,,,,,,0.003694861195981503,1,-0.006927813868969679,1,0.04849909991025925,1
1.259006977,0.005,-0.008415462449193001,-0.01695066504180431,-0.9955018162727356,-8.523359429091215e-05,-4.509462087298743e-05,-0.004979871679097414,-4.102232196601108e-06,-1.142911742135766e-06,2.629206392157357e-06,,,,,,
1.260004878,,,,,,,,,,,0.003024832345545292,1,-0.01181959640234709,1,0.04239954426884651,1
1.264001250,0.005,-0.008879701606929302,-0.0172013808041811,-0.996557354927063,-8.801090734777972e-05,-4.694503149949014e-05,-0.0049895322881639,5.692749596164504e-07,4.675990567193367e-06,-1.450350964660174e-06,,,,,,
1.265000939,,,,,,,,,,,0.0005348709528334439,1,-0.01638182066380978,1,0.03204900026321411,1
1.268972039,0.005,-0.00900608766824007,-0.01710907183587551,-0.9964883923530579,-8.4825383964926e-05,-4.567137511912733e-05,-0.004982690792530775,-1.412338519912737e-06,-2.114352923854312e-07,-7.235571501951199e-07,,,,,,
1.269992232,,,,,,,,,,,0.001421180670149624,1,-0.01762713305652142,1,0.03272515535354614,1
1.273919702,0.005,-0.009325902909040451,-0.01723944768309593,-0.9955924153327942,-8.687347144586965e-05,-4.876728053204715e-05,-0.00497288815677166,1.029397509455521e-07,-3.540377520039328e-06,-3.273309630458243e-06,,,,,,
1.274978757,,,,,,,,,,,0.0001411300618201494,1,-0.02076864056289196,1,0.04151205718517303,1
1.278853893,0.005,-0.009627728722989559,-0.01741060800850391,-0.9953970313072205,-8.799302304396406e-05,-5.029440944781527e-05,-0.004975663963705301,1.241533936990891e-06,-1.046126635628752e-05,1.189593490380503e-06,,,,,,
1.279963136,,,,,,,,,,,-0.001507787383161485,1,-0.0237243864685297,1,0.04342770203948021,1
1.283767581,0.005,-0.009249931201338768,-0.01716442033648491,-0.9953927397727966,-8.468014129903167e-05,-4.411967529449612e-05,-0.004976627882570028,-6.703547796860221e-07,6.75167996178061e-07,3.797442332142964e-06,,,,,,
1.284943104,,,,,,,,,,,0.0009407564648427069,1,-0.02001245506107807,1,0.04346910864114761,1
1.288658738,0.005,-0.008943023160099983,-0.01707357540726662,-0.9954425692558289,-8.479693497065455e-05,-4.348095899331383e-05,-0.004977858625352383,-9.794016477826517e-07,1.700497250567423e-06,1.882989863588591e-06,,,,,,
1.289918184,,,,,,,,,,,0.001841933466494083,1,-0.01700178720057011,1,0.04298052191734314,1
1.293527603,0.005,-0.009085095487535,-0.01715421117842197,-0.9947430491447449,-8.638550934847444e-05,-4.530711885308847e-05,-0.004969262517988682,2.614487755181472e-07,-1.492712840445165e-06,5.122250854583399e-07,,,,,,
1.294888735,,,,,,,,,,,0.001064827665686607,1,-0.01837219670414925,1,0.04983962699770927,1
1.298373342,0.005,-0.00874744076281786,-0.01803965680301189,-0.9964612126350403,-9.555652650306001e-05,-4.321583764976822e-05,-0.004991794936358929,-8.335897291544825e-06,1.970422772501479e-06,-2.747687176452018e-06,,,,,,
1.299854875,,,,,,,,,,,-0.00760179664939642,1,-0.01505575235933065,1,0.03299024701118469,1
1.303197384,0.005,-0.006996023468673229,-0.01745463907718658,-0.9975623488426208,-8.371471631107852e-05,-2.373252937104553e-05,-0.004996038973331451,-2.078683110084967e-06,3.068134219574858e-06,4.048121809319127e-06,,,,,,
1.304816365,,,,,,,,,,,-0.001875266199931502,1,0.002086265478283167,1,0.02219178713858128,1
1.307999730,0.005,-0.007498163729906082,-0.01833475381135941,-0.9953362345695496,-9.661555668571964e-05,-4.015790182165802e-05,-0.004963962361216545,9.566737389832269e-06,-4.175590675004059e-06,1.053430992214999e-06,,,,,,
1.309858561,,,,,,,,,,,-0.01050493028014898,1,-0.002815834246575832,1,0.04402275756001472,1
1.313205481,0.005,-0.00688673323020339,-0.01785886473953724,-0.9938012957572937,-8.75502300914377e-05,-3.132052006549202e-05,-0.004958909004926682,-5.648665137414355e-06,2.929570428022998e-06,-8.211400199797936e-06,,,,,,
1.314896107,,,,,,,,,,,-0.005838565062731504,1,0.003191911615431309,1,0.05907514318823814,1
1.318386912,0.005,-0.007202679757028818,-0.01702293753623962,-0.9955759644508362,-7.975999324116856e-05,-3.741293767234311e-05,-0.004987283609807491,-1.494365619691962e-06,4.912177246296778e-06,1.415612246091769e-06,,,,,,
1.319928885,,,,,,,,,,,0.002332716016098857,1,9.038881398737431e-05,1,0.04167177155613899,1
1.323546171,0.005,-0.006687136832624674,-0.0172401238232851,-0.9983160495758057,-8.79087601788342e-05,-3.11015137413051e-05,-0.005008518230170012,-7.372030722763157e-06,1.507131401012884e-06,2.09748350243899e-06,,,,,,
1.324957490,,,,,,,,,,,0.0001743393950164318,1,0.005116342566907406,1,0.01480099931359291,1
1.328681469,0.005,-0.005995319224894047,-0.01703337766230106,-0.9970864057540894,-8.359590719919652e-05,-2.530579513404518e-05,-0.004980343859642744,7.044466201477917e-06,-1.516505744802998e-05,-4.765230187331326e-06,,,,,,
1.329981446,,,,,,,,,,,0.002227646531537175,1,0.01189214363694191,1,0.02685936167836189,1
1.333793998,0.005,-0.006847724318504333,-0.01691585220396519,-0.9940451383590698,-8.440034434897825e-05,-3.842456499114633e-05,-0.004950949922204018,6.998238404776203e-06,-8.623031135357451e-06,2.251577143397299e-06,,,,,,
1.335000873,,,,,,,,,,,0.003447041846811771,1,0.003573014633730054,1,0.05668278411030769,1
1.338883638,0.005,-0.007178882136940956,-0.01738277822732925,-0.9955213069915771,-8.923664427129552e-05,-3.919578739441931e-05,-0.004983563907444477,-1.510057973064249e-05,5.486559985001804e-06,-4.898594852420501e-06,,,,,,
1.340015888,,,,,,,,,,,-0.001102164387702942,1,0.0003140837652608752,1,0.04220682010054588,1
1.343949318,0.005,-0.005545424297451973,-0.01702628843486309,-0.9980264902114868,-8.41080691316165e-05,-1.778704790922347e-05,-0.005006641615182161,3.359303491379251e-06,1.458363658457529e-05,-2.3148213301738e-07,,,,,,
1.345026016,,,,,,,,,,,0.002354581840336323,1,0.01630072668194771,1,0.01763981021940708,1
1.348993063,0.005,-0.006211579311639071,-0.01605907827615738,-0.9946264028549194,-7.344858750002459e-05,-3.361546259839088e-05,-0.004954412579536438,1.737956881697755e-05,-3.774718834392843e-06,3.258163815189619e-06,,,,,,
1.350032091,,,,,,,,,,,0.01179801113903522,1,0.009817636571824551,1,0.05098320171236992,1
1.354013205,0.005,-0.008162361569702625,-0.01854574121534824,-0.9943801164627075,-0.0001070065627573058,-5.305821832735091e-05,-0.004966992419213057,-1.350826892121404e-06,-5.610865173366619e-06,4.145292678003898e-07,,,,,,
1.355033398,,,,,,,,,,,-0.0125736091285944,1,-0.009253155440092087,1,0.05339788272976875,1
1.359009504,0.005,-0.00708623044192791,-0.01731402240693569,-0.9991997480392456,-8.11154895927757e-05,-2.971743379021063e-05,-0.005025202408432961,-6.589893018826842e-06,2.270297591167036e-05,2.048671149168513e-06,,,,,,
1.360029936,,,,,,,,,,,-0.0005507096648216248,1,0.001299824565649033,1,0.006134651601314545,1
1.363982797,0.005,-0.006839171517640352,-0.01553858909755945,-0.9970842003822327,-6.540829781442881e-05,-3.130952609353699e-05,-0.004976558499038219,1.177421290776692e-05,-7.187907613115385e-06,2.232132601420744e-06,,,,,,
1.365024209,,,,,,,,,,,0.01680144853889942,1,0.00375018990598619,1,0.02688185498118401,1
1.368945360,0.005,-0.008956599980592728,-0.01797536574304104,-0.9927923083305359,-0.0001033170483424328,-5.746776150772348e-05,-0.004936686251312494,1.311581308982568e-05,-2.112114998453762e-05,1.85796704954555e-06,,,,,,
1.370013952,,,,,,,,,,,-0.007039736025035381,1,-0.01693177036941051,1,0.06896910071372986,1
1.373885155,0.005,-0.008665269240736961,-0.01823068782687187,-0.9944496154785156,-9.421625145478174e-05,-4.334394179750234e-05,-0.004980119410902262,-1.078390778275207e-05,1.222549417434493e-05,5.535627224162454e-06,,,,,,
1.374999046,,,,,,,,,,,-0.009520115330815315,1,-0.01404362451285124,1,0.05271594226360321,1
1.378802419,0.005,-0.00804106704890728,-0.01727747917175293,-0.9968621134757996,-8.032721234485507e-05,-3.512635521474294e-05,-0.005000305827707052,1.844510279624956e-06,7.367040780081879e-06,-1.612626419955632e-06,,,,,,
1.379979730,,,,,,,,,,,-0.0002086851163767278,1,-0.007921901531517506,1,0.02905787900090218,1
1.383696914,0.005,-0.009162263944745064,-0.01802974380552769,-0.9961849451065063,-9.434553794562817e-05,-5.324284211383201e-05,-0.004977374337613583,3.730435537363519e-06,-7.020493285381235e-06,-3.336532245157287e-06,,,,,,
1.384955645,,,,,,,,,,,-0.007597535848617554,1,-0.01889130473136902,1,0.03569913655519485,1
1.388568878,0.005,-0.008667020127177238,-0.0175829790532589,-0.9942436218261719,-8.559238631278276e-05,-3.905374614987522e-05,-0.004960672929883003,2.135842862571735e-07,4.970344434696017e-06,3.310770580355893e-06,,,,,,
1.389926910,,,,,,,,,,,-0.00322763086296618,1,-0.01402278430759907,1,0.05473708733916283,1
1.393419027,0.005,-0.01062437612563372,-0.01893060468137264,-0.9936872124671936,-0.0001013390719890594,-6.561882037203759e-05,-0.004963119048625231,-4.029591309517855e-06,-4.637856363842729e-06,-1.037750553223304e-05,,,,,,
1.394893527,,,,,,,,,,,-0.01644160598516464,1,-0.0332028716802597,1,0.0601932518184185,1
1.398246646,0.005,-0.007601622492074966,-0.0173207763582468,-0.9974558353424072,-7.997581997187808e-05,-2.071574999717996e-05,-0.005009006708860397,-1.828040876716841e-05,1.261007309949491e-05,-7.922924851300195e-06,,,,,,
1.399855852,,,,,,,,,,,-0.0006860848516225815,1,-0.003626976627856493,1,0.02323692664504051,1
1.403051496,0.005,-0.00854366272687912,-0.01665284670889378,-0.9972140789031982,-7.561287202406675e-05,-4.587760849972256e-05,-0.004987766500562429,1.791723479982466e-05,-9.315983334090561e-06,1.064704974851338e-05,,,,,,
1.404898286,,,,,,,,,,,0.005839832127094269,1,-0.01287264563143253,1,0.02560884319245815,1
1.408258080,0.005,-0.009091584943234921,-0.02050891704857349,-0.9939156770706177,-0.0001267579500563443,-5.129219425725751e-05,-0.004948252346366644,-1.708447598502971e-06,-9.764754395291675e-06,6.907817464707477e-07,,,,,,
1.409936070,,,,,,,,,,,-0.0319267064332962,1,-0.01821113005280495,1,0.05795435979962349,1
1.413439751,0.005,-0.008316426537930965,-0.01813307218253613,-0.9950116872787476,-7.822821498848498e-05,-3.49327310686931e-05,-0.004980918951332569,-3.280562168583856e-06,5.720713943446754e-06,-1.456064819649328e-05,,,,,,
1.414969087,,,,,,,,,,,-0.008621655404567719,1,-0.01061722449958324,1,0.04720570147037506,1
1.418598890,0.005,-0.009070539847016335,-0.01778307370841503,-0.9946695566177368,-8.505518781021237e-05,-5.016421710024588e-05,-0.004971264861524105,3.124842351098778e-06,-3.989907327195397e-06,1.049982529366389e-05,,,,,,
1.419997931,,,,,,,,,,,-0.005174966994673014,1,-0.0180019810795784,1,0.05056089907884598,1
1.423736095,0.005,-0.008775228634476662,-0.01811748184263706,-0.9972137212753296,-9.241692896466702e-05,-4.250880374456756e-05,-0.005000643897801638,-9.599924851499964e-06,2.287544475620962e-06,-7.41156327421777e-06,,,,,,
1.425022244,,,,,,,,,,,-0.00845028180629015,1,-0.0151219367980957,1,0.02561072446405888,1
1.428849697,0.005,-0.007085631601512432,-0.01861037313938141,-0.996360182762146,-9.687680721981451e-05,-2.53372490988113e-05,-0.00497889518737793,1.128086296375841e-05,-1.170951463791425e-06,-2.302943812537706e-06,,,,,,
1.430041909,,,,,,,,,,,-0.01328154746443033,1,0.001451903022825718,1,0.03398080542683601,1
1.433939695,0.005,-0.007204841356724501,-0.01682876423001289,-0.9929884076118469,-7.350144733209163e-05,-3.529236710164696e-05,-0.004944591782987118,7.888076652307063e-06,2.560632879067271e-07,6.412456059479155e-06,,,,,,
1.435056925,,,,,,,,,,,0.004183926619589329,1,0.0003403942100703716,1,0.06704598665237427,1
1.439005494,0.005,-0.008754819631576538,-0.01881811022758484,-0.9963950514793396,-0.0001045498793246225,-5.474612044054084e-05,-0.00499882223084569,-1.826643710955977e-05,-1.415080959077386e-07,-1.330015766143333e-05,,,,,,
1.440067053,,,,,,,,,,,-0.01531392429023981,1,-0.01487007830291986,1,0.03363824635744095,1
1.444047332,0.005,-0.006161266006529331,-0.01654876209795475,-0.9989113211631775,-7.247784378705546e-05,-1.606630030437373e-05,-0.005014167167246342,8.177193535630067e-07,2.456570837239269e-05,3.239258830944891e-06,,,,,,
1.445072651,,,,,,,,,,,0.006861858069896698,1,0.01051983796060085,1,0.008963515982031822,1
1.449067235,0.005,-0.007105887867510319,-0.01534701324999332,-0.9931865334510803,-6.511195533676073e-05,-3.864149039145559e-05,-0.004932248964905739,2.245658470201306e-05,-3.175650999764912e-05,-2.392770284131984e-06,,,,,,
1.450073600,,,,,,,,,,,0.01864370331168175,1,0.001313090324401855,1,0.06510370969772339,1
1.454063058,0.005,-0.00966328289359808,-0.02031486853957176,-0.993901789188385,-0.0001324255717918277,-6.525202479679137e-05,-0.004969384055584669,-1.100791450880934e-05,-1.070999769581249e-05,-5.502098701981595e-06,,,,,,
1.455069900,,,,,,,,,,,-0.02996018528938293,1,-0.02371790632605553,1,0.05808797851204872,1
1.459035635,0.005,-0.006477292627096176,-0.01738612167537212,-0.9990128874778748,-7.338485011132434e-05,-1.445691850676667e-05,-0.005027091130614281,-1.400521341565764e-05,3.447679409873672e-05,4.911664291284978e-06,,,,,,
1.460061669,,,,,,,,,,,-0.001291947439312935,1,0.007469725329428911,1,0.00796639546751976,1
1.463984847,0.005,-0.006462600082159042,-0.01549305766820908,-0.9962643980979919,-6.253085302887484e-05,-2.964907253044657e-05,-0.00496748136356473,1.58382626977982e-05,-2.590596704976633e-05,-9.652365406509489e-06,,,,,,
1.465048552,,,,,,,,,,,0.01725834794342518,1,0.007621331606060266,1,0.034920334815979,1
1.468911409,0.005,-0.008879170753061771,-0.0187862254679203,-0.9922038316726685,-0.0001141842876677401,-5.995159517624415e-05,-0.004934919998049736,-2.559710992500186e-06,-1.085758594854269e-05,-1.030669068313728e-06,,,,,,
1.470031142,,,,,,,,,,,-0.01494657155126333,1,-0.01603849232196808,1,0.07473909854888916,1
1.473817348,0.005,-0.007865064777433872,-0.01740012317895889,-0.9953439235687256,-8.018582593649626e-05,-3.407158510526642e-05,-0.00499255582690239,-8.613216778030619e-06,1.96902547031641e-05,7.638863280590158e-06,,,,,,
1.475009322,,,,,,,,,,,-0.001361707225441933,1,-0.006113966926932335,1,0.04394491761922836,1
1.478701353,0.005,-0.006873763166368008,-0.01740589179098606,-0.997870147228241,-8.547588367946446e-05,-2.797914567054249e-05,-0.00500755337998271,-1.593415959177946e-06,-1.782260255822621e-06,2.406688111022959e-07,,,,,,
1.479983091,,,,,,,,,,,-0.001457570237107575,1,0.003575288224965334,1,0.01917206682264805,1
1.483565807,0.005,-0.007907568477094173,-0.01813798770308495,-0.9943866729736328,-9.58612872636877e-05,-4.387932131066918e-05,-0.004952633287757635,7.792948963469826e-06,-5.707330274162814e-06,4.644230557460105e-06,,,,,,
1.484955668,,,,,,,,,,,-0.008632009848952293,1,-0.006556867621839046,1,0.05333293229341507,1
1.488421917,0.005,-0.009388093836605549,-0.01799561455845833,-0.9935310482978821,-8.850334415910766e-05,-5.67394272366073e-05,-0.004960315302014351,-4.288707259547664e-06,-3.803829713433515e-06,1.517964165032026e-06,,,,,,
1.489923596,,,,,,,,,,,-0.007213115692138672,1,-0.02105799876153469,1,0.06172335147857666,1
1.493255734,0.005,-0.007580476347357035,-0.0191293116658926,-0.9968079924583435,-0.0001032339932862669,-2.757410766207613e-05,-0.005002789199352264,-1.3278646292747e-05,1.305464866163675e-05,-4.17616047343472e-06,,,,,,
1.494886875,,,,,,,,,,,-0.01832818053662777,1,-0.003368445439264178,1,0.0295878816395998,1
1.498067737,0.005,-0.006921409163624048,-0.01677525974810123,-0.9969568848609924,-7.042973447823897e-05,-2.9566699595307e-05,-0.004988613538444042,1.144401630881475e-05,7.285505489562638e-06,1.729450104903663e-06,,,,,,
1.499929547,,,,,,,,,,,0.004690533969551325,1,0.003092757891863585,1,0.02812962792813778,1
1.503275514,0.005,-0.008325465954840183,-0.01800204999744892,-0.9938472509384155,-9.480399603489786e-05,-5.065344885224476e-05,-0.004949780181050301,1.888682959361176e-06,-1.817199154174887e-05,-7.762728841953503e-07,,,,,,
1.504967690,,,,,,,,,,,-0.007323902100324631,1,-0.01063433103263378,1,0.05862363800406456,1
1.508459210,0.005,-0.007857187651097775,-0.01982824318110943,-0.99453204870224,-0.0001120289525715634,-3.713358455570415e-05,-0.00497530959546566,-8.038009582378436e-06,6.169584594317712e-06,9.858111980065587e-07,,,,,,
1.510001183,,,,,,,,,,,-0.0252054501324892,1,-0.006044299341738224,1,0.05190791189670563,1
1.513619661,0.005,-0.007914380170404911,-0.01737034507095814,-0.9971657991409302,-7.232734787976369e-05,-3.958707384299487e-05,-0.005000683479011059,-3.727391003849334e-06,6.810356353526004e-06,-2.161142674594885e-06,,,,,,
1.515030026,,,,,,,,,,,-0.001134728081524372,1,-0.006627114024013281,1,0.02607959695160389,1
1.518756628,0.005,-0.007321189623326063,-0.01647424884140491,-0.9974936842918396,-7.613341585965827e-05,-3.342964919283986e-05,-0.004992248024791479,-2.11293945540092e-06,-7.883793841756415e-06,-5.135249011800624e-06,,,,,,
1.520054221,,,,,,,,,,,0.0076550068333745,1,-0.000836864230223,1,0.02286443486809731,1
1.523870230,0.005,-0.008089647628366947,-0.01814874447882175,-0.9941450357437134,-0.0001000298143480904,-4.383151099318638e-05,-0.004950697533786297,1.038485152093926e-05,-6.340704658214236e-06,7.753126737952698e-06,,,,,,
1.525073647,,,,,,,,,,,-0.008730593137443066,1,-0.008360489271581173,1,0.05570244789123535,1
1.528959513,0.005,-0.008009852841496468,-0.0183586124330759,-0.994189441204071,-9.39774326980114e-05,-4.1018589399755e-05,-0.00496958289295435,-1.250684454134898e-05,6.326684342639055e-06,-1.893204625957878e-06,,,,,,
1.530088186,,,,,,,,,,,-0.01078200712800026,1,-0.007578023709356785,1,0.05526722595095634,1
1.534024477,0.005,-0.007067889906466007,-0.01728073321282864,-0.9953656792640686,-7.964528049342334e-05,-2.797832530632149e-05,-0.004984354600310326,-7.724348506599199e-06,1.979087898007492e-07,-7.794917110004462e-06,,,,,,
1.535098314,,,,,,,,,,,-0.0002250070683658123,1,0.001602489734068513,1,0.04373319447040558,1
1.539065361,0.005,-0.008410317823290825,-0.01677276566624641,-0.9957735538482666,-8.13080623629503e-05,-5.104640149511397e-05,-0.00498141860589385,4.655674729292514e-06,4.805876301361423e-07,5.367779067455558e-06,,,,,,
1.540103674,,,,,,,,,,,0.004749171901494265,1,-0.01157436706125736,1,0.03973354399204254,1
1.544083476,0.005,-0.007263568695634604,-0.01692647859454155,-0.9967800378799438,-8.452854672214016e-05,-2.974430390167981e-05,-0.004989485256373882,-4.170842203166103e-06,-3.696945896081161e-06,-8.572615683988261e-07,,,,,,
1.545104384,,,,,,,,,,,0.003242336912080646,1,-0.0003414852544665337,1,0.02986341342329979,1
1.549077749,0.005,-0.007375587709248066,-0.01768382452428341,-0.9962576031684875,-9.336385119240731e-05,-3.6522946174955e-05,-0.00497957831248641,4.033066034025978e-06,1.110744349830384e-07,-3.851921064779162e-06,,,,,,
1.550100207,,,,,,,,,,,-0.004171587526798248,1,-0.001441060681827366,1,0.03498600423336029,1
1.554048538,0.005,-0.008352979086339474,-0.01690058968961239,-0.9952805638313293,-7.945283869048581e-05,-4.776484638568945e-05,-0.00496978685259819,-3.376787390152458e-06,-1.110863578901444e-07,3.917236426786985e-06,,,,,,
1.555091500,,,,,,,,,,,0.003509459784254432,1,-0.01102774310857058,1,0.0445675402879715,1
1.558995724,0.005,-0.007595675066113472,-0.01726428233087063,-0.9969109296798706,-8.820350922178477e-05,-3.449642099440098e-05,-0.004993969574570656,-1.112258632929297e-05,5.540990741792484e-07,-1.460587554902304e-06,,,,,,
1.560078025,,,,,,,,,,,-6.100721657276154e-05,1,-0.003640464041382074,1,0.02857949957251549,1
1.563928604,0.005,-0.006533109117299318,-0.01651340909302235,-0.9953807592391968,-7.914008892839774e-05,-2.517656139389146e-05,-0.004969594068825245,4.071220246260054e-06,3.666288421300123e-06,6.177125214890111e-06,,,,,,
1.565062404,,,,,,,,,,,0.00728776678442955,1,0.006748950574547052,1,0.04358603805303574,1
1.568840742,0.005,-0.008349105715751648,-0.01681727543473244,-0.9927918314933777,-8.417470235144719e-05,-5.201947715249844e-05,-0.004947178531438112,-1.576217869114771e-06,-2.246212261525216e-06,1.513217284809798e-06,,,,,,
1.570041895,,,,,,,,,,,0.004293824080377817,1,-0.01106398366391659,1,0.06897459179162979,1
1.573729515,0.005,-0.008294121362268925,-0.01917955838143826,-0.9959668517112732,-0.000110954832052812,-4.318867649999447e-05,-0.004996512550860643,-1.964452712854836e-05,1.171983967651613e-05,3.265309032940422e-06,,,,,,
1.575016737,,,,,,,,,,,-0.01889279671013355,1,-0.01058827061206102,1,0.03783947229385376,1
1.578595281,0.005,-0.00652763107791543,-0.01672983542084694,-0.9995492696762085,-7.024529622867703e-05,-2.142716039088555e-05,-0.005021742545068264,-5.533205467145308e-07,1.480945047660498e-05,3.000672677444527e-06,,,,,,
1.579986691,,,,,,,,,,,0.005033201072365046,1,0.00666511058807373,1,0.00271033332683146,1
1.583438039,0.005,-0.007595802191644907,-0.01681104488670826,-0.9951160550117493,-8.173340756911784e-05,-4.274809180060402e-05,-0.004950695671141148,1.325773700955324e-05,-2.23913011723198e-05,-2.002387191168964e-06,,,,,,
1.584952116,,,,,,,,,,,0.004231027793139219,1,-0.003800139063969254,1,0.04618512839078903,1
1.588258266,0.005,-0.009157615713775158,-0.01952850073575974,-0.9927330613136292,-0.0001150093085016124,-5.631973544950597e-05,-0.004946400411427021,-1.89567947472824e-06,-1.688897214080498e-06,2.781618150038412e-06,,,,,,
1.589912891,,,,,,,,,,,-0.02237194962799549,1,-0.01909026876091957,1,0.06955390423536301,1
1.593056560,0.005,-0.00768711743876338,-0.01816992275416851,-0.9964329600334167,-8.384481043322012e-05,-3.079337329836562e-05,-0.005003202706575394,-1.924414391396567e-05,1.672595135460142e-05,5.806326953461394e-06,,,,,,
1.594869018,,,,,,,,,,,-0.009079772979021072,1,-0.004720316268503666,1,0.03327075019478798,1
1.598266363,0.005,-0.007603065576404333,-0.01785512827336788,-0.9973203539848328,-8.59383653732948e-05,-3.644017124315724e-05,-0.00499451719224453,1.271536257263506e-05,-3.160464075335767e-06,-4.53023130830843e-06,,,,,,
1.599907875,,,,,,,,,,,-0.006037948653101921,1,-0.003917540889233351,1,0.02456944435834885,1
1.603453994,0.005,-0.009140430949628353,-0.01887614838778973,-0.9939780831336975,-0.0001009223633445799,-5.453080666484311e-05,-0.004949913825839758,1.443994915462099e-05,-5.063419848738704e-06,-3.184777142450912e-06,,,,,,
1.604942083,,,,,,,,,,,-0.01604356616735458,1,-0.01893460191786289,1,0.05734571814537048,1
1.608618021,0.005,-0.008897874504327774,-0.01916263066232204,-0.9950568675994873,-9.771782788448036e-05,-4.385252032079734e-05,-0.004979570396244526,-9.569477697368711e-06,6.302506790234474e-06,-3.469497414698708e-06,,,,,,
1.609971404,,,,,,,,,,,-0.01886048726737499,1,-0.01652384363114834,1,0.04676631838083267,1
1.613757968,0.005,-0.007382547948509455,-0.01836136355996132,-0.9977813363075256,-8.774866000749171e-05,-2.769707134575583e-05,-0.005006716120988131,-5.866422725375742e-06,4.70857230538968e-06,-3.732629693331546e-06,,,,,,
1.614996433,,,,,,,,,,,-0.01104146242141724,1,-0.001687054056674242,1,0.02004905976355076,1
1.618874311,0.005,-0.008241614326834679,-0.01717570424079895,-0.9955878257751465,-7.855013245716691e-05,-4.512960003921762e-05,-0.004966557957231998,7.879601980675943e-06,-4.858763077209005e-06,1.080406661913003e-07,,,,,,
1.620016694,,,,,,,,,,,0.0005769927520304918,1,-0.01010771654546261,1,0.04156043007969856,1
1.623970509,0.005,-0.008099605329334736,-0.01737614534795284,-0.991805374622345,-8.750460256123915e-05,-4.043950320919976e-05,-0.004936108365654945,2.383823982654576e-07,-5.504381078935694e-06,5.222057097853394e-06,,,,,,
1.625032902,,,,,,,,,,,-0.001369373290799558,1,-0.008692390285432339,1,0.07865229249000549,1
1.629043221,0.005,-0.009186834096908569,-0.01774080842733383,-0.9937066435813904,-9.111867984756827e-05,-5.272505950415507e-05,-0.004974946845322847,2.656453943927772e-06,1.05495391835575e-05,-5.701668897017953e-07,,,,,,
1.630044699,,,,,,,,,,,-0.004959443584084511,1,-0.01933268085122108,1,0.06000714004039764,1
1.634091973,0.005,-0.005957195069640875,-0.01461063418537378,-0.997649073600769,-5.645135024678893e-05,-1.186024292110233e-05,-0.005015415139496326,-9.606542334950063e-06,1.807330227165949e-05,7.239254955493379e-07,,,,,,
1.635051489,,,,,,,,,,,0.02564951032400131,1,0.01232060231268406,1,0.02134732529520988,1
1.639117360,0.005,-0.00765474047511816,-0.0156780518591404,-0.9973129034042358,-8.098840771708637e-05,-4.326248745201156e-05,-0.004983258433640003,2.293723082402721e-05,-1.586774305906147e-05,4.844081104238285e-06,,,,,,
1.640053749,,,,,,,,,,,0.01515543460845947,1,-0.004280611872673035,1,0.02464398555457592,1
1.644119501,0.005,-0.007582937832921743,-0.01669392362236977,-0.9992013573646545,-9.08313668332994e-05,-4.30471591243986e-05,-0.005008221603929996,-1.167474783869693e-05,2.537592763474095e-06,-1.934505462486413e-07,,,,,,
1.645051122,,,,,,,,,,,0.005195155274122953,1,-0.003523248247802258,1,0.006124615203589201,1
1.649098039,0.005,-0.005890432745218277,-0.01741333305835724,-0.9976888298988342,-9.13655458134599e-05,-1.39277835842222e-05,-0.00497906282544136,1.813840026443359e-05,-2.365296268180828e-06,6.290938472375274e-06,,,,,,
1.650044441,,,,,,,,,,,-0.001858935924246907,1,0.01310181990265846,1,0.02095687948167324,1
1.654054165,0.005,-0.008126028813421726,-0.01773515343666077,-0.9938463568687439,-9.035691618919373e-05,-5.62925124540925e-05,-0.004948189482092857,-1.955116204044316e-06,-6.568595267708588e-07,2.274794724144158e-06,,,,,,
1.655032873,,,,,,,,,,,-0.00500409584492445,1,-0.00875016488134861,1,0.05863801389932632,1
1.658986449,0.005,-0.006578620988875628,-0.01802041940391064,-0.995172381401062,-9.319942910224199e-05,-2.271151242894121e-05,-0.004981000907719135,-5.967126071482198e-06,9.001252692542039e-06,-4.595655809680466e-06,,,,,,
1.660016656,,,,,,,,,,,-0.007824437692761421,1,0.006424606777727604,1,0.04563460499048233,1
1.663895607,0.005,-0.007193427532911301,-0.01738951355218887,-0.995143711566925,-8.16864485386759e-05,-3.881942029693164e-05,-0.004977633245289326,4.374929631012492e-06,3.674443860290921e-06,1.211115773003257e-06,,,,,,
1.664995551,,,,,,,,,,,-0.001683204085566103,1,0.0004065900575369596,1,0.04591621086001396,1
1.668781281,0.005,-0.009404546581208706,-0.01833992637693882,-0.9962126612663269,-9.800092084333301e-05,-6.026227492839098e-05,-0.004986886400729418,-2.841749619619804e-06,1.535800151941658e-06,-6.019204192853067e-06,,,,,,
1.669969916,,,,,,,,,,,-0.01103321183472872,1,-0.02126407250761986,1,0.03543413057923317,1
1.673644304,0.005,-0.008003177121281624,-0.01908134296536446,-0.9969969987869263,-9.967376536224037e-05,-3.340058538015001e-05,-0.004990221001207829,-5.983257779007545e-06,9.614769851395977e-07,-5.033293291489827e-06,,,,,,
1.674939871,,,,,,,,,,,-0.01832642033696175,1,-0.007538347505033016,1,0.02774279564619064,1
1.678487301,0.005,-0.00817163847386837,-0.01769156754016876,-0.9962329268455505,-8.161502773873508e-05,-3.940167880500667e-05,-0.004977659322321415,1.554668961034622e-05,9.189020033772977e-07,3.065311830141582e-06,,,,,,
1.679905295,,,,,,,,,,,-0.004726065322756767,1,-0.009164575487375259,1,0.03523631021380424,1
1.683307290,0.005,-0.009949806146323681,-0.01880032382905483,-0.9945796728134155,-9.779790707398206e-05,-6.165236118249595e-05,-0.004961966071277857,-5.024905476602726e-06,-2.144539030268788e-05,-4.873197667620843e-06,,,,,,
1.684866071,,,,,,,,,,,-0.01555131189525127,1,-0.02657128125429153,1,0.05144800990819931,1
1.688104987,0.005,-0.009400256909430027,-0.02019823342561722,-0.9941972494125366,-0.0001121040841098875,-4.416771116666496e-05,-0.00496923690661788,-2.400599214524846e-06,1.163946308224695e-05,4.678513050748734e-06,,,,,,
1.689821959,,,,,,,,,,,-0.02922007814049721,1,-0.02118355222046375,1,0.0551975779235363,1
1.693229556,0.005,-0.009982336312532425,-0.01827589236199856,-0.9941475987434387,-7.836969598429278e-05,-5.141997098689899e-05,-0.004969589412212372,1.72413058407983e-06,-1.305556196484758e-07,-9.012024406729324e-07,,,,,,
1.694861054,,,,,,,,,,,-0.01037125196307898,1,-0.02686011046171188,1,0.05568473041057587,1
1.698418379,0.005,-0.01084611378610134,-0.01968930661678314,-0.9966686367988586,-0.0001061009534168988,-6.052208118489943e-05,-0.004997896030545235,-8.962685569713358e-06,-8.173471542249899e-06,-8.487360219078255e-07,,,,,,
1.699895501,,,,,,,,,,,-0.02419214136898518,1,-0.03532794862985611,1,0.03096037730574608,1
1.703583956,0.005,-0.009528784081339836,-0.01880278065800667,-0.9976177215576172,-9.124813368543983e-05,-3.974332139478065e-05,-0.004994463175535202,-6.453106493609084e-07,1.293416607950348e-05,-5.528126578724368e-08,,,,,,
1.704925179,,,,,,,,,,,-0.01550417859107256,1,-0.02243180945515633,1,0.02165332064032555,1
1.708725810,0.005,-0.009109213016927242,-0.01667917147278786,-0.9956721663475037,-6.801995186833665e-05,-4.249027551850304e-05,-0.004968392197042704,2.513313802410266e-06,-1.002645240077982e-05,-6.572386723746604e-07,,,,,,
1.709950447,,,,,,,,,,,0.005307712126523256,1,-0.0183209553360939,1,0.04073331877589226,1
1.713844180,0.005,-0.008593309670686722,-0.01923701912164688,-0.9938589930534363,-0.0001114705810323358,-4.044698289362714e-05,-0.004957210272550583,-1.440578330402786e-06,-1.180179151560878e-05,1.763833665791026e-06,,,,,,
1.714970827,,,,,,,,,,,-0.01970707625150681,1,-0.01325805112719536,1,0.05851279944181442,1
1.718938828,0.005,-0.007677885238081217,-0.01778551563620567,-0.9939091205596924,-8.274693391285837e-05,-3.261939855292439e-05,-0.004969796631485224,-6.575376573891845e-06,1.00138222478563e-05,6.504689736175351e-06,,,,,,
1.719987988,,,,,,,,,,,-0.005465243011713028,1,-0.004302014131098986,1,0.05802155658602715,1
1.724014878,0.005,-0.008177271112799644,-0.01799757406115532,-0.9938867092132568,-8.93007090780884e-05,-4.311069642426446e-05,-0.004968722350895405,-5.757729923061561e-06,-7.63179014029447e-06,-2.158015604436514e-06,,,,,,
1.725000143,,,,,,,,,,,-0.007534739561378956,1,-0.009234829805791378,1,0.05824166908860207,1
1.729066968,0.005,-0.008570409379899502,-0.01862082444131374,-0.9953677654266357,-9.775916259968653e-05,-4.580153108690865e-05,-0.00498511828482151,-2.080815193039598e-06,5.483063432620838e-06,3.540219495334895e-07,,,,,,
1.730007768,,,,,,,,,,,-0.01363398879766464,1,-0.01312426291406155,1,0.04371730983257294,1
1.734095931,0.005,-0.007954181171953678,-0.01701125502586365,-0.9968605637550354,-7.631037442479283e-05,-3.668690987979062e-05,-0.004994131159037352,-4.787329999089707e-06,1.762684405548498e-05,-1.620922489564691e-06,,,,,,
1.735011101,,,,,,,,,,,0.002084796316921711,1,-0.007112436462193727,1,0.02907862327992916,1
1.739102244,0.005,-0.008028469979763031,-0.01703300513327122,-0.9963482022285461,-8.422510290984064e-05,-4.031219214084558e-05,-0.004978749435395002,3.164125814691943e-07,-5.994972411826893e-07,-7.72850944485981e-06,,,,,,
1.740009427,,,,,,,,,,,0.001802504295483232,1,-0.007872398011386395,1,0.0341053195297718,1
1.744084954,0.005,-0.007355510722845793,-0.01719716005027294,-0.9976959228515625,-8.864840492606163e-05,-3.392124199308455e-05,-0.004996610805392265,-6.445558028644882e-06,4.627381713362411e-06,-3.642275260062888e-06,,,,,,
1.745003223,,,,,,,,,,,0.0001569746527820826,1,-0.001290821935981512,1,0.02088949270546436,1
1.749045730,0.005,-0.005470466334372759,-0.01569675095379353,-0.9962001442909241,-6.836170359747484e-05,-1.469150629418436e-05,-0.004973274189978838,-1.017175577544549e-06,-7.619785719725769e-06,3.117973619737313e-06,,,,,,
1.749992728,,,,,,,,,,,0.01484894379973412,1,0.01716536097228527,1,0.03555810451507568,1
1.753983498,0.005,-0.007255754433572292,-0.01709405891597271,-0.993686318397522,-9.394263906870037e-05,-4.680192796513438e-05,-0.004952888935804367,6.981099431868643e-06,-9.828489965002518e-06,2.77775313861639e-07,,,,,,
1.754977584,,,,,,,,,,,0.001183971296995878,1,-0.0003278928343206644,1,0.06020957231521606,1
1.758898377,0.005,-0.006327283568680286,-0.01630596816539764,-0.9937592148780823,-7.795765122864395e-05,-2.640763523231726e-05,-0.004967711865901947,-9.008134838950355e-06,3.068620571866632e-06,-2.020271722358302e-06,,,,,,
1.759957552,,,,,,,,,,,0.008935699239373207,1,0.008763732388615608,1,0.05949454754590988,1
1.763790607,0.005,-0.007076154928654432,-0.01454603672027588,-0.9955927133560181,-6.186267273733392e-05,-3.925088094547391e-05,-0.004990290850400925,3.254220928283758e-07,5.165979018784128e-06,1.630517999728909e-06,,,,,,
1.764932871,,,,,,,,,,,0.02618215791881084,1,0.001407223986461759,1,0.04151421040296555,1
1.768659711,0.005,-0.007350120227783918,-0.01515008602291346,-0.9968693256378174,-7.884349179221317e-05,-3.919169466826133e-05,-0.004992053844034672,-2.56535577136674e-06,1.059203555087151e-06,-1.016690475807991e-06,,,,,,
1.769903660,,,,,,,,,,,0.02024693787097931,1,-0.001300121541135013,1,0.028995705768466,1
1.773507357,0.005,-0.005963074043393135,-0.01513880677521229,-0.9962635040283203,-7.621445547556505e-05,-2.210524144174997e-05,-0.00497930683195591,4.643045940611046e-06,3.571539082258823e-06,-2.342333345950465e-06,,,,,,
1.774870276,,,,,,,,,,,0.02032894641160965,1,0.01230672560632229,1,0.03493716940283775,1
1.778334498,0.005,-0.005580728873610497,-0.01484839711338282,-0.9942566156387329,-7.302928861463442e-05,-2.509441401343793e-05,-0.004958402831107378,1.092968977900455e-05,2.653564024512889e-06,3.617184802351403e-06,,,,,,
1.779832840,,,,,,,,,,,0.02315708249807358,1,0.01610242761671543,1,0.05461808666586876,1
1.783147216,0.005,-0.006071519106626511,-0.01462372485548258,-0.9957587718963623,-7.119279325706884e-05,-3.34255637426395e-05,-0.004985890351235867,-6.085027052904479e-06,-3.64814718523121e-06,-1.558337743290394e-07,,,,,,
1.784792066,,,,,,,,,,,0.02534115314483643,1,0.01131771504878998,1,0.03988732770085335,1
1.788275719,0.005,-0.005865040700882673,-0.01588117331266403,-0.9992080926895142,-8.693127892911434e-05,-2.80660497082863e-05,-0.005018145311623812,3.11607118419488e-06,3.275417611803277e-06,4.443081706995144e-06,,,,,,
1.789831400,,,,,,,,,,,0.01300149969756603,1,0.0133491912856698,1,0.006060828920453787,1
1.793465614,0.005,-0.00668488722294569,-0.0156182749196887,-0.9981352686882019,-7.625530997756869e-05,-3.841649231617339e-05,-0.00498533807694912,6.213351298356429e-06,-3.133862719550962e-06,1.970021003216971e-06,,,,,,
1.794866204,,,,,,,,,,,0.01556852366775274,1,0.005346642341464758,1,0.01658138632774353,1
1.798632145,0.005,-0.006487506907433271,-0.01628711260855198,-0.9943999052047729,-8.53054370963946e-05,-3.118698441539891e-05,-0.00495190592482686,1.772176716485774e-07,-1.302453711105045e-05,6.703334065605304e-07,,,,,,
1.799896121,,,,,,,,,,,0.009057504124939442,1,0.007318540941923857,1,0.05321220681071281,1
1.803774238,0.005,-0.009274419397115707,-0.0173928365111351,-0.9921284914016724,-9.345472062705085e-05,-6.12802105024457e-05,-0.004943301901221275,5.12895758220111e-06,3.580517159207375e-06,-1.013653104564582e-06,,,,,,
1.804921627,,,,,,,,,,,-0.001746698748320341,1,-0.01997743174433708,1,0.07548669725656509,1
1.808892965,0.005,-0.007582576014101505,-0.01454248186200857,-0.9959608316421509,-5.835086631122977e-05,-3.240365913370624e-05,-0.005002453923225403,-1.9338289348525e-05,1.425434675184079e-05,-9.009992936626077e-06,,,,,,
1.809942484,,,,,,,,,,,0.02616860717535019,1,-0.00341344065964222,1,0.03790406510233879,1
1.813988328,0.005,-0.006479938980191946,-0.01441754214465618,-0.9952135682106018,-6.798077811254188e-05,-2.106083229591604e-05,-0.004973598290234804,1.855565278674476e-05,-8.477999472233932e-06,1.225144387717592e-05,,,,,,
1.814958811,,,,,,,,,,,0.02736184373497963,1,0.007386647164821625,1,0.04523292928934097,1
1.819060206,0.005,-0.009896417148411274,-0.01767650060355663,-0.9954322576522827,-0.0001083189417840913,-7.242956780828536e-05,-0.004976899363100529,-1.084818421759337e-07,-3.174616040269029e-06,6.48373361400445e-06,,,,,,
1.819970608,,,,,,,,,,,-0.004573425743728876,1,-0.02604953199625015,1,0.04308750480413437,1
1.824114680,0.005,-0.006113670766353607,-0.01804672181606293,-0.9990798234939575,-9.422909351997077e-05,-8.385877663386054e-06,-0.005016686394810677,-1.996941500692628e-05,8.700776561454404e-06,-8.483859346597455e-06,,,,,,
1.824979186,,,,,,,,,,,-0.008223157376050949,1,0.01099202875047922,1,0.007317867130041122,1
1.829148889,0.005,-0.007785867899656296,-0.01685619913041592,-0.9956009984016418,-7.626386650372297e-05,-4.606281072483398e-05,-0.004960260353982449,1.166472338809399e-05,-1.218121087731561e-05,2.705155338844634e-06,,,,,,
1.829983473,,,,,,,,,,,0.003457532497122884,1,-0.005418982822448015,1,0.04143352061510086,1
1.834159136,0.005,-0.01137133780866861,-0.01836315356194973,-0.9939827919006348,-0.0001000144329736941,-8.024556882446632e-05,-0.004957083612680435,-8.568999874114525e-06,-8.913186320569366e-06,3.499524154904066e-06,,,,,,
1.834982872,,,,,,,,,,,-0.01125697139650583,1,-0.04058518260717392,1,0.05730168521404266,1
1.839147568,0.005,-0.009310644119977951,-0.0203423947095871,-0.996775209903717,-0.0001139945452450775,-3.631973959272727e-05,-0.005000858567655087,-9.835393029788975e-06,1.476955821999582e-05,4.322316158322792e-07,,,,,,
1.839977980,,,,,,,,,,,-0.03066766075789928,1,-0.02043674886226654,1,0.02991793677210808,1
1.844112396,0.005,-0.008024875074625015,-0.0182750653475523,-0.995305061340332,-7.967931014718488e-05,-3.041876698262058e-05,-0.004969917237758636,2.107665204675868e-05,9.302940270572435e-06,8.687699846632313e-06,,,,,,
1.844968200,,,,,,,,,,,-0.0104620112106204,1,-0.007804835215210915,1,0.04433613270521164,1
1.849053979,0.005,-0.01043788250535727,-0.01959950663149357,-0.993780255317688,-0.0001021799835143611,-6.668734567938372e-05,-0.004956756718456745,-7.389584880002076e-06,-1.898858317872509e-05,-8.277109373011626e-06,,,,,,
1.849954247,,,,,,,,,,,-0.02343378216028214,1,-0.03143397718667984,1,0.05928909406065941,1
1.853973985,0.005,-0.008593283593654633,-0.02138909697532654,-0.9988335967063904,-0.0001210850532515906,-3.414335878915153e-05,-0.00502482196316123,-1.450576746719889e-05,2.409383159829304e-05,-1.215882548422087e-06,,,,,,
1.854935527,,,,,,,,,,,-0.04100700467824936,1,-0.01339052803814411,1,0.009733068756759167,1
1.858870745,0.005,-0.006798348389565945,-0.01677102223038673,-0.9964779615402222,-5.517011231859215e-05,-2.070675873255823e-05,-0.004972110968083143,1.342949053650955e-05,2.007260718528414e-06,3.041968170691689e-07,,,,,,
1.859912157,,,,,,,,,,,0.004180679563432932,1,0.00419906247407198,1,0.03283638134598732,1
1.863745332,0.005,-0.01011029630899429,-0.02051682583987713,-0.9908400774002075,-0.0001213597424793988,-6.981134356465191e-05,-0.004919048398733139,1.240066740137991e-05,-4.033759978483431e-05,-1.036247226693376e-06,,,,,,
1.864884257,,,,,,,,,,,-0.03245874121785164,1,-0.02820860594511032,1,0.08812285959720612,1
1.868597269,0.005,-0.01038273796439171,-0.02334966883063316,-0.9935610294342041,-0.0001381521433359012,-5.594847243628465e-05,-0.004979903344064951,-1.504560532339383e-05,2.355244032514747e-05,1.063340187101858e-05,,,,,,
1.869851589,,,,,,,,,,,-0.06018202751874924,1,-0.03086571395397186,1,0.06143878772854805,1
1.873426676,0.005,-0.007561672478914261,-0.01965218782424927,-0.9989925026893616,-7.512220327043906e-05,-2.111817775585223e-05,-0.005030524451285601,-3.454688339843415e-06,2.068399589916226e-05,-4.260848527337657e-06,,,,,,
1.874814749,,,,,,,,,,,-0.02402637526392937,1,-0.003239535260945559,1,0.00817560963332653,1
1.878236413,0.005,-0.009783226996660233,-0.02103538624942303,-0.9957175254821777,-0.0001116679195547476,-6.016013139742427e-05,-0.004960572812706232,1.744697692629416e-05,-1.853942922025453e-05,-5.961663191555999e-06,,,,,,
1.879773498,,,,,,,,,,,-0.03760942071676254,1,-0.02499105781316757,1,0.040292888879776,1
1.883280396,0.005,-0.01051650661975145,-0.02125113271176815,-0.9957797527313232,-0.0001104170733015053,-5.996510299155489e-05,-0.004977300763130188,-1.090263776859501e-05,8.815260116534773e-06,1.620114460365585e-07,,,,,,
1.884813309,,,,,,,,,,,-0.03972920030355453,1,-0.03215229883790016,1,0.03968195244669914,1
1.888473034,0.005,-0.006487256847321987,-0.01922850869596004,-0.9983580112457275,-8.18981570773758e-05,-7.646893209312111e-06,-0.005007537081837654,-8.017510481295176e-06,-2.220448322987068e-06,5.623882159966342e-08,,,,,,
1.889848590,,,,,,,,,,,-0.0199204757809639,1,0.007315904833376408,1,0.01439859345555305,1
