FILE_INFO
ListSeparator=,
DecimalSeparator=.

SESSION_INFO
TimeZone,UTC
TimeZoneOffset,0
DateTimeFormat,MM/DD/YY h:mm:ss.nnnnnnnnn
StartTime,01/01/70 00:00:00.000000000
TimeFormat,Relative

DEVICE_INFO
Address,*

CHANNEL_INFO
Channel,Type,SampleRate,Equation,Coefficients,Unit,UnitSymbol,WhereApplied,WhenApplied
inertial-6286.188861:timeInfo_deltaTime_ahrsImu,Timeseries,200Hz,,,,,,
inertial-6286.188861:scaledAccelY,Timeseries,200Hz,,,,,,
inertial-6286.188861:scaledAccelX,Timeseries,200Hz,,,,,,
inertial-6286.188861:scaledAccelZ,Timeseries,200Hz,,,,,,
inertial-6286.188861:deltaVelX,Timeseries,200Hz,,,,,,
inertial-6286.188861:deltaVelY,Timeseries,200Hz,,,,,,
inertial-6286.188861:deltaVelZ,Timeseries,200Hz,,,,,,
inertial-6286.188861:deltaThetaX,Timeseries,200Hz,,,,,,
inertial-6286.188861:deltaThetaY,Timeseries,200Hz,,,,,,
inertial-6286.188861:deltaThetaZ,Timeseries,200Hz,,,,,,
inertial-6286.188861:estLinearAccelX,Timeseries,200Hz,,,,,,
inertial-6286.188861:estLinearAccelX:valid,ValidFlag,200Hz,,,,,,
inertial-6286.188861:estLinearAccelY,Timeseries,200Hz,,,,,,
inertial-6286.188861:estLinearAccelY:valid,ValidFlag,200Hz,,,,,,
inertial-6286.188861:estLinearAccelZ,Timeseries,200Hz,,,,,,
inertial-6286.188861:estLinearAccelZ:valid,ValidFlag,200Hz,,,,,,

DATA_START
Time,inertial-6286.188861:timeInfo_deltaTime_ahrsImu,inertial-6286.188861:scaledAccelY,inertial-6286.188861:scaledAccelX,inertial-6286.188861:scaledAccelZ,inertial-6286.188861:deltaVelX,inertial-6286.188861:deltaVelY,inertial-6286.188861:deltaVelZ,inertial-6286.188861:deltaThetaX,inertial-6286.188861:deltaThetaY,inertial-6286.188861:deltaThetaZ,inertial-6286.188861:estLinearAccelX,inertial-6286.188861:estLinearAccelX:valid,inertial-6286.188861:estLinearAccelY,inertial-6286.188861:estLinearAccelY:valid,inertial-6286.188861:estLinearAccelZ,inertial-6286.188861:estLinearAccelZ:valid
0.000000000,0.005,-0.01179580483585596,-0.01928146369755268,-0.9956165552139282,-9.625616803532466e-05,-5.818630233989097e-05,-0.004976528231054544,-8.402291769016301e-07,3.605374558901531e-06,-3.008497287737555e-06,,,,,,
0.001264128,,,,,,,,,,,0.0009006424224935472,1,-0.008211011998355389,1,0.04055788740515709,1
0.004975360,0.005,-0.0116687836125493,-0.01938076876103878,-0.9957018494606018,-9.684204269433394e-05,-5.764739762526006e-05,-0.004978880286216736,-4.080158760189079e-06,4.60718155181894e-07,-2.796728495013667e-06,,,,,,
0.006256128,,,,,,,,,,,-7.800746243447065e-05,1,-0.006980305537581444,1,0.03972277790307999,1
0.009928448,0.005,-0.01187145803123713,-0.01959898322820663,-0.9955143332481384,-9.908452193485573e-05,-6.039483560016379e-05,-0.004976304247975349,2.088953806378413e-06,3.633342657849425e-06,7.542010393990495e-07,,,,,,
0.011243520,,,,,,,,,,,-0.002232550177723169,1,-0.008973965421319008,1,0.04156213626265526,1
0.014857728,0.005,-0.01193096674978733,-0.0195601973682642,-0.9951580166816711,-9.775305079529062e-05,-5.943615542491898e-05,-0.004973762203007936,-1.257763074136165e-06,1.242172970705724e-06,-1.081719801732106e-06,,,,,,
0.016226048,,,,,,,,,,,-0.001873824629001319,1,-0.009556589648127556,1,0.04505663737654686,1
0.019763969,0.005,-0.01191449724137783,-0.01960736326873302,-0.995431125164032,-9.802923159440979e-05,-5.911564221605659e-05,-0.004978407640010118,-2.954912361019524e-06,8.823910206956498e-07,1.219978571498359e-06,,,,,,
0.021204224,,,,,,,,,,,-0.002348159905523062,1,-0.009414326399564743,1,0.04237896949052811,1
0.024647169,0.005,-0.01216538809239864,-0.01944291032850742,-0.9955787062644958,-9.646324178902432e-05,-6.219355418579653e-05,-0.004978841170668602,6.086012831474363e-07,-1.290284217247972e-06,2.952652380372456e-07,,,,,,
0.026177537,,,,,,,,,,,-0.0007444884395226836,1,-0.01188332028687,1,0.04093172028660774,1
0.029508352,0.005,-0.01206901017576456,-0.01937125995755196,-0.9956098198890686,-9.654654422774911e-05,-5.956343375146389e-05,-0.004978413227945566,4.485671524889767e-06,2.140275455531082e-06,3.034435849258443e-06,,,,,,
0.031148288,,,,,,,,,,,-5.27168158441782e-05,1,-0.0109276445582509,1,0.04062633216381073,1
0.034356479,0.005,-0.0120679559186101,-0.01914547756314278,-0.9954521656036377,-9.423898882232606e-05,-6.089473754400387e-05,-0.004976291209459305,3.455161277088337e-07,-2.583222567409393e-06,-5.471509894050541e-07,,,,,,
0.036114432,,,,,,,,,,,0.002160658594220877,1,-0.01090347860008478,1,0.04217240214347839,1
0.039182335,0.005,-0.01206618268042803,-0.01921455934643745,-0.9952595233917236,-9.662818047218025e-05,-6.04368033236824e-05,-0.004974996671080589,1.148699084296823e-06,-3.617519951149006e-06,2.909588374677696e-07,,,,,,
0.041075967,,,,,,,,,,,0.001495742937549949,1,-0.01087277662009001,1,0.04406162723898888,1
0.043985665,0.005,-0.0120173143222928,-0.01931936293840408,-0.9951848983764648,-9.700801456347108e-05,-5.999228596920148e-05,-0.004975629504770041,-1.926417212416709e-07,-1.159604153144755e-06,1.174367980638635e-06,,,,,,
0.046118654,,,,,,,,,,,0.0004835837753489614,1,-0.01038784440606833,1,0.04479256272315979,1
0.049195264,0.005,-0.012196971103549,-0.0192343108355999,-0.9952402710914612,-9.606407547835261e-05,-6.19587954133749e-05,-0.004976673051714897,-3.434265636315104e-06,-2.000845825023134e-06,-1.384544134452881e-06,,,,,,
0.051156480,,,,,,,,,,,0.001332902116701007,1,-0.0121460072696209,1,0.04424843192100525,1
0.054380286,0.005,-0.01243468746542931,-0.01924684643745422,-0.9953673481941223,-9.617059549782425e-05,-6.360117549775168e-05,-0.004977043252438307,-1.928318170030252e-06,1.424717652298568e-06,-1.428803443559445e-06,,,,,,
0.056189697,,,,,,,,,,,0.00121519505046308,1,-0.0144897922873497,1,0.04300252348184586,1
0.059542015,0.005,-0.01218150462955236,-0.01915786415338516,-0.9953270554542542,-9.538452286506072e-05,-5.962255454505794e-05,-0.004976640921086073,-5.080829851067392e-06,3.953039595216978e-06,-1.521137392046512e-06,,,,,,
0.061218560,,,,,,,,,,,0.002073375508189201,1,-0.0120273195207119,1,0.04339798912405968,1
0.064680189,0.005,-0.01232675742357969,-0.01933729462325573,-0.9956386089324951,-9.749207674758509e-05,-6.260927330004051e-05,-0.004980044905096292,-1.262265300283616e-06,-1.057303393281472e-06,5.680992671841523e-07,,,,,,
0.066242814,,,,,,,,,,,0.0003044175682589412,1,-0.01347759552299976,1,0.04034343361854553,1
0.069795325,0.005,-0.01246777549386024,-0.01949501037597656,-0.9954909682273865,-9.851536742644385e-05,-6.310641765594482e-05,-0.004976573400199413,3.06625997836818e-06,2.091770511469804e-06,1.693305421213154e-06,,,,,,
0.071262464,,,,,,,,,,,-0.001252448884770274,1,-0.01486437395215034,1,0.04179171845316887,1
0.074886397,0.005,-0.01225586328655481,-0.0193948820233345,-0.9951114058494568,-9.655148460296914e-05,-6.010579818394035e-05,-0.004973161034286022,1.867995138127299e-06,2.553103513491806e-06,9.414198984813993e-07,,,,,,
0.076277502,,,,,,,,,,,-0.0002886103757191449,1,-0.01277220621705055,1,0.04551427066326141,1
0.079953410,0.005,-0.01220809761434793,-0.01952140592038631,-0.9955810904502869,-9.855312237050384e-05,-6.030928125255741e-05,-0.004980443045496941,-4.068714645200089e-07,1.613981908121787e-06,9.219281196237716e-07,,,,,,
0.081287682,,,,,,,,,,,-0.001542226527817547,1,-0.01229649223387241,1,0.04090903699398041,1
0.084998399,0.005,-0.01196042262017727,-0.01943488791584969,-0.9952579736709595,-9.610284178052098e-05,-5.818294448545203e-05,-0.004974303301423788,-4.386461114336271e-06,2.94863889394037e-06,-2.793381952415075e-07,,,,,,
0.086293757,,,,,,,,,,,-0.0007202086853794754,1,-0.009877715259790421,1,0.04407881572842598,1
0.090020351,0.005,-0.01236383058130741,-0.01958004385232925,-0.9956377148628235,-9.884764585876837e-05,-6.430682697100565e-05,-0.004980210214853287,3.535346877470147e-07,3.840827673684544e-07,-3.06053266285744e-06,,,,,,
0.091295235,,,,,,,,,,,-0.002161459997296333,1,-0.0138465091586113,1,0.04035579040646553,1
0.095023103,0.005,-0.01218404062092304,-0.01959525980055332,-0.9953960776329041,-9.796143422136083e-05,-6.032325472915545e-05,-0.004975335672497749,1.704976995142715e-07,-2.048634542006766e-06,2.039632818195969e-06,,,,,,
0.096292861,,,,,,,,,,,-0.002317720791324973,1,-0.01204263791441917,1,0.04272402077913284,1
0.100003071,0.005,-0.01187609322369099,-0.01962554268538952,-0.9955151677131653,-9.843093721428886e-05,-5.726571907871403e-05,-0.004978224635124207,2.469418404871249e-06,-5.281898211251246e-06,-1.599532197360531e-06,,,,,,
0.101285629,,,,,,,,,,,-0.002589956624433398,1,-0.008989705704152584,1,0.04155544936656952,1
0.104959741,0.005,-0.01181226968765259,-0.01939926855266094,-0.9956228137016296,-9.549536480335519e-05,-5.880468597752042e-05,-0.004978680983185768,-4.43988596998679e-07,-3.773538082896266e-06,-5.330867338670942e-07,,,,,,
0.106274046,,,,,,,,,,,-0.0003471995878499001,1,-0.008343135938048363,1,0.04049874842166901,1
0.109892868,0.005,-0.01212740782648325,-0.01949344575405121,-0.9955105185508728,-9.815393423195928e-05,-6.216793553903699e-05,-0.004976869560778141,-1.667440187702596e-06,-1.930510734382551e-06,1.409880496794358e-06,,,,,,
0.111257598,,,,,,,,,,,-0.001247490523383021,1,-0.01142288185656071,1,0.04159942641854286,1
0.114802942,0.005,-0.01216814294457436,-0.0193714052438736,-0.9956138730049133,-9.635355672799051e-05,-6.108851812314242e-05,-0.004978332202881575,3.201270374120213e-06,2.814013839724794e-07,1.161117779702181e-06,,,,,,
0.116236545,,,,,,,,,,,-3.394618397578597e-05,1,-0.01181086432188749,1,0.0405852235853672,1
0.119690493,0.005,-0.0123049421235919,-0.01940956152975559,-0.9953911304473877,-9.740226960275322e-05,-6.215732719283551e-05,-0.004975894466042519,-1.207793957291869e-06,3.59612249667407e-06,-3.709940301632741e-07,,,,,,
0.121210627,,,,,,,,,,,-0.0004147499857936054,1,-0.01314578484743834,1,0.0427696593105793,1
0.124555267,0.005,-0.01199955213814974,-0.01944156177341938,-0.9955877065658569,-9.716446220409125e-05,-5.841938764206134e-05,-0.004978921730071306,3.945294793084031e-06,6.045996201464732e-07,1.333991264118595e-07,,,,,,
0.126180097,,,,,,,,,,,-0.0007344334153458476,1,-0.01013715751469135,1,0.04084248468279839,1
0.129396990,0.005,-0.0118953725323081,-0.01945890113711357,-0.9956194162368774,-9.785244037630036e-05,-5.885782957193442e-05,-0.004978666547685862,-4.408880158734974e-07,-1.73731166341895e-06,9.89210434454435e-07,,,,,,
0.131144702,,,,,,,,,,,-0.0009101238683797419,1,-0.00910117756575346,1,0.04053186625242233,1
0.134215936,0.005,-0.01211266592144966,-0.01954849623143673,-0.9957618713378906,-9.837153629632667e-05,-6.20227147010155e-05,-0.004979684017598629,1.090522459890053e-06,-9.798724249776569e-07,1.886105906123703e-06,,,,,,
0.136104703,,,,,,,,,,,-0.001782767358236015,1,-0.01121915318071842,1,0.03913410753011703,1
0.139012352,0.005,-0.01230022590607405,-0.0196805689483881,-0.996076762676239,-9.875494288280606e-05,-6.238817150006071e-05,-0.004982199985533953,-7.046855898806825e-07,1.567979893479787e-06,-9.210085067934415e-07,,,,,,
0.141147643,,,,,,,,,,,-0.00308002857491374,1,-0.01305471919476986,1,0.03604546189308167,1
0.144223750,0.005,-0.01222409587353468,-0.01959741488099098,-0.9959231615066528,-9.735902131069452e-05,-6.069783557904884e-05,-0.004978856537491083,2.728448862399091e-07,-3.845109858957585e-06,5.162846150597034e-07,,,,,,
0.146185979,,,,,,,,,,,-0.002262615598738194,1,-0.01230329088866711,1,0.03755224496126175,1
0.149409786,0.005,-0.01195367984473705,-0.01957515813410282,-0.9958762526512146,-9.794710786081851e-05,-5.810794755234383e-05,-0.004979170393198729,-4.188194452581229e-06,-2.097742935802671e-06,-1.357347390040786e-08,,,,,,
0.151219711,,,,,,,,,,,-0.002025291789323092,1,-0.009658052586019039,1,0.03801211342215538,1
0.154572800,0.005,-0.01206334587186575,-0.01935583911836147,-0.9957634210586548,-9.527507791062817e-05,-6.107030640123412e-05,-0.004978093784302473,-8.531225148544763e-07,-1.082734229385096e-06,-3.294859993729915e-07,,,,,,
0.156248569,,,,,,,,,,,0.0001351287646684796,1,-0.01075020059943199,1,0.03911823779344559,1
0.159711748,0.005,-0.0120421014726162,-0.01965474896132946,-0.9956855177879333,-0.0001005521044135094,-6.000729263178073e-05,-0.004977797623723745,-4.141139925195603e-06,-1.372343945149623e-06,1.364026161354559e-06,,,,,,
0.161273092,,,,,,,,,,,-0.002783920848742127,1,-0.01055173203349113,1,0.03988171368837357,1
0.164827138,0.005,-0.01191279478371143,-0.01958884857594967,-0.9956207871437073,-9.768329618964344e-05,-5.864028935320675e-05,-0.004978018347173929,-2.724010528254439e-06,4.71087059850106e-06,1.472403369007225e-06,,,,,,
0.166292742,,,,,,,,,,,-0.002140094293281436,1,-0.009307594038546085,1,0.04051660001277924,1
0.169918716,0.005,-0.01182984001934528,-0.01949179358780384,-0.9954363703727722,-9.664081153459847e-05,-5.861351746716537e-05,-0.004976188763976097,8.538799534107966e-07,2.421392309770454e-06,-8.642421676086087e-07,,,,,,
0.171307772,,,,,,,,,,,-0.001203686464577913,1,-0.008504757657647133,1,0.04232639074325562,1
0.174984962,0.005,-0.01168488897383213,-0.01936778984963894,-0.9954315423965454,-9.616667375667021e-05,-5.740238339058124e-05,-0.004977267235517502,-3.053822865695111e-07,1.321702143286529e-07,8.187993785213621e-07,,,,,,
0.176317692,,,,,,,,,,,-3.367269528098404e-06,1,-0.007090710569173098,1,0.04237369447946548,1
0.180027902,0.005,-0.01185152307152748,-0.01919425092637539,-0.9956504702568054,-9.487976058153436e-05,-6.065446359571069e-05,-0.004979697521775961,-1.152484045974234e-07,2.124596448993543e-06,-1.297154881285678e-06,,,,,,
0.181323007,,,,,,,,,,,0.00168237800244242,1,-0.008726108819246292,1,0.0402274914085865,1
0.185046777,0.005,-0.01194146648049355,-0.01929608918726444,-0.9956066608428955,-9.718611545395106e-05,-6.033069803379476e-05,-0.004977885168045759,-1.842520191530639e-06,-1.983661832127837e-06,-1.176609316644317e-06,,,,,,
0.186323449,,,,,,,,,,,0.0006773734930902719,1,-0.009613189846277237,1,0.04065747186541557,1
0.190041348,0.005,-0.01209590956568718,-0.01927590556442738,-0.9957007169723511,-9.621524077374488e-05,-6.183744699228555e-05,-0.004979156889021397,-8.357145816262346e-06,4.416790488903644e-06,-1.031319357025495e-06,,,,,,
0.191320583,,,,,,,,,,,0.000860120402649045,1,-0.01116034761071205,1,0.03973508253693581,1
0.195019007,0.005,-0.01221056748181581,-0.01916029490530491,-0.9956263303756714,-9.514591511106119e-05,-6.182340439409018e-05,-0.004977489355951548,-5.434700938167225e-07,-2.466780870236107e-06,3.416797937916272e-07,,,,,,
0.196312830,,,,,,,,,,,0.00197891634888947,1,-0.01231728866696358,1,0.04046530276536942,1
0.199973121,0.005,-0.01205725315958261,-0.01920139789581299,-0.9955178499221802,-9.662922093411908e-05,-5.934823639108799e-05,-0.004977054428309202,-4.501177045312943e-06,-3.85733710572822e-06,5.859132556906843e-07,,,,,,
0.201300487,,,,,,,,,,,0.001589851803146303,1,-0.01084210630506277,1,0.04152896627783775,1
0.204904199,0.005,-0.01215973310172558,-0.01931131817400455,-0.9954166412353516,-9.706136916065589e-05,-6.151497655082494e-05,-0.004976472817361355,-5.476411388372071e-06,4.814260705643392e-07,-4.302321030991152e-06,,,,,,
0.206283525,,,,,,,,,,,0.0005190160009078681,1,-0.01188335008919239,1,0.04252202808856964,1
0.209812731,0.005,-0.01226613577455282,-0.01915447786450386,-0.9951611161231995,-9.508059883955866e-05,-6.215348548721522e-05,-0.004974076058715582,-3.754795898203156e-06,1.800799623197236e-06,1.582950517331483e-06,,,,,,
0.211261690,,,,,,,,,,,0.002046231413260102,1,-0.01296600885689259,1,0.04502818360924721,1
0.214697734,0.005,-0.01201213710010052,-0.01910500042140484,-0.9955528378486633,-9.556527948006988e-05,-5.873681948287413e-05,-0.004980284254997969,-4.097792498214403e-06,-1.526395067230624e-06,-3.701186187754502e-06,,,,,,
0.216235265,,,,,,,,,,,0.002531443722546101,1,-0.01050998270511627,1,0.04118711873888969,1
0.219560966,0.005,-0.01208573114126921,-0.01912319846451283,-0.9956434369087219,-9.585669613443315e-05,-6.084715278120711e-05,-0.004979112651199102,4.177369703484146e-07,-2.195477009081515e-06,-1.726177856653521e-06,,,,,,
0.221204475,,,,,,,,,,,0.002364362590014935,1,-0.01125939376652241,1,0.04029908403754234,1
0.224400893,0.005,-0.01227444782853127,-0.01928454451262951,-0.9957376718521118,-9.718873479869217e-05,-6.249418947845697e-05,-0.004979379940778017,1.815129962778883e-06,3.623287284426624e-06,-4.191089828964323e-06,,,,,,
0.226168826,,,,,,,,,,,0.0007818613667041063,1,-0.01311371196061373,1,0.03937507793307304,1
0.229217529,0.005,-0.01224181894212961,-0.01940921694040298,-0.9955861568450928,-9.737259097164497e-05,-6.105626380303875e-05,-0.004976879805326462,-3.7898300888628e-06,-2.556413619458908e-06,-1.83629185812606e-06,,,,,,
0.231128573,,,,,,,,,,,-0.0004455872694961727,1,-0.01280461717396975,1,0.04086093977093697,1
0.234011650,0.005,-0.01214899029582739,-0.01937801763415337,-0.9955953359603882,-9.649076673667878e-05,-5.99541344854515e-05,-0.004978278651833534,-1.090828618544037e-06,-6.999952120168018e-07,-4.399225019824371e-07,,,,,,
0.236083463,,,,,,,,,,,-0.0001353530387859792,1,-0.01190736144781113,1,0.04077057912945747,1
0.239224061,0.005,-0.0122845908626914,-0.01959558762609959,-0.9954703450202942,-9.951296669896692e-05,-6.230904546100646e-05,-0.004976888187229633,-2.03878198590246e-06,-3.347867050251807e-07,3.794189069594722e-06,,,,,,
0.241122305,,,,,,,,,,,-0.002265201881527901,1,-0.01325018331408501,1,0.04199674353003502,1
0.244413182,0.005,-0.01205051317811012,-0.01939810439944267,-0.9952104687690735,-9.567275264998898e-05,-5.896742368349805e-05,-0.004974155221134424,-1.796197693693102e-06,-2.705274653180822e-07,1.821558726078365e-06,,,,,,
0.246156543,,,,,,,,,,,-0.000322554464219138,1,-0.01096749491989613,1,0.04454566538333893,1
0.249578759,0.005,-0.01186258625239134,-0.01941272243857384,-0.9952381253242493,-9.722138929646462e-05,-5.805243563372642e-05,-0.004976604133844376,3.743394927369081e-07,-2.151155484853007e-07,-2.810017349474947e-06,,,,,,
0.251186162,,,,,,,,,,,-0.00046450414811261,1,-0.009137954562902451,1,0.04427477344870567,1
0.254720777,0.005,-0.01183562353253365,-0.01917936094105244,-0.9956557750701904,-9.440822759643197e-05,-5.963370495010167e-05,-0.004980797413736582,-3.285121238150168e-06,-8.707550023245858e-07,1.111833626055159e-06,,,,,,
0.256211191,,,,,,,,,,,0.001824156148359179,1,-0.008885478600859642,1,0.04017892107367516,1
0.259838969,0.005,-0.01179276499897242,-0.01938388124108315,-0.9956042766571045,-9.767522715264931e-05,-5.852765752933919e-05,-0.0049775755032897,3.461478854660527e-07,-8.175376251529087e-07,1.802788688110013e-06,,,,,,
0.261231363,,,,,,,,,,,-0.0001767794601619244,1,-0.008475882932543755,1,0.04068394377827644,1
0.264938235,0.005,-0.01215373165905476,-0.01953814178705215,-0.9953933954238892,-9.857087570708245e-05,-6.285277777351439e-05,-0.004975736606866121,2.744465973592014e-06,-3.943169758713339e-06,2.116273890351295e-06,,,,,,
0.266248196,,,,,,,,,,,-0.001671647420153022,1,-0.0120101235806942,1,0.04275127127766609,1
0.270013958,0.005,-0.01224666647613049,-0.01959105208516121,-0.9953705072402954,-9.803095599636436e-05,-6.247656710911542e-05,-0.004976837430149317,2.716963081184076e-07,-3.041461241082288e-06,4.210968199913623e-06,,,,,,
0.271260172,,,,,,,,,,,-0.002167835831642151,1,-0.01291035208851099,1,0.04297535121440887,1
0.275065869,0.005,-0.01207514572888613,-0.01941658928990364,-0.9954538941383362,-9.587661770638078e-05,-5.934622095082887e-05,-0.004977805074304342,-5.946479419982609e-10,-1.891960323519015e-06,3.846708750643302e-06,,,,,,
0.276267767,,,,,,,,,,,-0.0004433686262927949,1,-0.01122387405484915,1,0.04215714707970619,1
0.280094981,0.005,-0.01228817645460367,-0.01940068416297436,-0.9956218600273132,-9.660810610512272e-05,-6.266891432460397e-05,-0.004979315213859081,-2.532291546231136e-06,-8.179154065146577e-07,1.179174546450668e-06,,,,,,
0.281270534,,,,,,,,,,,-0.0002710793341975659,1,-0.01331661269068718,1,0.04050984978675842,1
0.285100788,0.005,-0.01223244611173868,-0.01933837682008743,-0.995538055896759,-9.661765943747014e-05,-6.064183253329247e-05,-0.004977250006049871,-1.988904386962531e-06,-8.824266473084208e-08,-2.585792117315577e-06,,,,,,
0.286268413,,,,,,,,,,,0.000355152937117964,1,-0.01277512311935425,1,0.04133191332221031,1
0.290083587,0.005,-0.01203386299312115,-0.01938443630933762,-0.9959732294082642,-9.71476620179601e-05,-5.88676193729043e-05,-0.004982482641935349,-1.387311840517214e-06,2.772242169157835e-06,-1.832656153055723e-06,,,,,,
0.291262209,,,,,,,,,,,-0.0001053705927915871,1,-0.01084135100245476,1,0.03706450760364532,1
0.295043826,0.005,-0.01190766040235758,-0.01950722932815552,-0.9956926703453064,-9.869718633126467e-05,-5.876072827959433e-05,-0.004976936616003513,-3.599931687858771e-06,1.710427341095055e-06,-2.221453769379877e-06,,,,,,
0.296251148,,,,,,,,,,,-0.001320996438153088,1,-0.009582680650055408,1,0.03981566801667213,1
0.299980789,0.005,-0.01203009393066168,-0.0196625217795372,-0.9957244992256165,-9.913020767271519e-05,-6.109003152232617e-05,-0.00497906282544136,-1.707640421955148e-06,3.942184036986873e-07,1.162844341706659e-06,,,,,,
0.301235467,,,,,,,,,,,-0.002850811928510666,1,-0.01077699661254883,1,0.03950324654579163,1
0.304894984,0.005,-0.01185514684766531,-0.01964359544217587,-0.9955515265464783,-9.842650615610182e-05,-5.829511792398989e-05,-0.004976785741746426,-9.811423069550074e-07,-4.257527507434133e-06,5.392353614297463e-06,,,,,,
0.306214899,,,,,,,,,,,-0.002661624690517783,1,-0.009066693484783173,1,0.04119952768087387,1
0.309786111,0.005,-0.0118304155766964,-0.01965232938528061,-0.9956958293914795,-9.828656038735062e-05,-5.897154187550768e-05,-0.004978886805474758,-3.58619331564114e-06,9.034785364292475e-09,-6.422092155844439e-07,,,,,,
0.311190009,,,,,,,,,,,-0.002741541480645537,1,-0.00883156806230545,1,0.03978452086448669,1
0.314655989,0.005,-0.0117240734398365,-0.01933338679373264,-0.995622992515564,-9.496108395978808e-05,-5.777412297902629e-05,-0.004977764096111059,-2.239934474346228e-06,-6.547200428030919e-06,-3.772891545850143e-07,,,,,,
0.316161275,,,,,,,,,,,0.000406231265515089,1,-0.007807869929820299,1,0.04049809649586678,1
0.319505930,0.005,-0.011679882183671,-0.01935713179409504,-0.9956020712852478,-9.689561557024717e-05,-5.80860250920523e-05,-0.004977787379175425,-1.926156755871489e-06,-5.156590759725077e-06,5.247935064289777e-07,,,,,,
0.321127921,,,,,,,,,,,0.0002135667600668967,1,-0.007390837650746107,1,0.04070296883583069,1
0.324333042,0.005,-0.01184725388884544,-0.01942610368132591,-0.9954538345336914,-9.758518717717379e-05,-6.006369221722707e-05,-0.004976612515747547,3.179737177561037e-06,1.060201597624655e-07,-2.344033873669105e-06,,,,,,
0.326089978,,,,,,,,,,,-0.0004361782048363239,1,-0.009032290428876877,1,0.04215608909726143,1
0.329137653,0.005,-0.0118114436045289,-0.0195349957793951,-0.9955046772956848,-9.833170770434663e-05,-5.864988634129986e-05,-0.00497758062556386,-1.995013235500664e-06,-1.968527840290335e-06,-4.374956290575938e-07,,,,,,
0.331047177,,,,,,,,,,,-0.001483234344050288,1,-0.008678043261170387,1,0.04165714979171753,1
0.334264308,0.005,-0.01170670986175537,-0.01966147683560848,-0.9953560829162598,-9.914120164467022e-05,-5.799999053124338e-05,-0.004975552204996347,-4.073850050190231e-06,2.505598786228802e-06,-2.803336428769398e-06,,,,,,
0.336086273,,,,,,,,,,,-0.002715075388550758,1,-0.007667371537536383,1,0.04311514273285866,1
0.339454204,0.005,-0.01192166469991207,-0.01931464485824108,-0.9950478076934814,-9.465032781008631e-05,-6.129715620772913e-05,-0.004973177798092365,8.659814056954929e-07,4.958462341164704e-06,-1.910346099975868e-06,,,,,,
0.341120511,,,,,,,,,,,0.0006659689825028181,1,-0.009779186919331551,1,0.04613897576928139,1
0.344620287,0.005,-0.0118517791852355,-0.01951020210981369,-0.9955697655677795,-9.86507729976438e-05,-5.879198215552606e-05,-0.004980998113751411,-4.110891950404039e-06,-2.06020672521845e-06,1.917636154757929e-06,,,,,,
0.346150398,,,,,,,,,,,-0.001264882739633322,1,-0.009109624661505222,1,0.04102015495300293,1
0.349762291,0.005,-0.01204601209610701,-0.01974593847990036,-0.995191216468811,-0.0001001615455606952,-6.10815841355361e-05,-0.004974005743861198,-3.545666800164327e-07,1.588599957358383e-06,-1.45227375014656e-06,,,,,,
0.351175427,,,,,,,,,,,-0.003586519742384553,1,-0.01102743577212095,1,0.04473263770341873,1
0.354881018,0.005,-0.0123083209618926,-0.01965021342039108,-0.9956094026565552,-9.772046178113669e-05,-6.280074740061536e-05,-0.004980072379112244,4.712082954938523e-06,1.606262912901002e-06,-1.226532049258822e-06,,,,,,
0.356195837,,,,,,,,,,,-0.002660470316186547,1,-0.01359114516526461,1,0.04063219577074051,1
0.359980553,0.005,-0.01230175979435444,-0.01975226029753685,-0.9954830408096313,-9.905319166136906e-05,-6.172396388137713e-05,-0.004976860713213682,-2.679356157386792e-06,5.216657541495806e-07,-3.844529146590503e-06,,,,,,
0.361212671,,,,,,,,,,,-0.003672722494229674,1,-0.01352198608219624,1,0.04187148436903954,1
0.365056515,0.005,-0.01218118332326412,-0.01968311704695225,-0.9956126809120178,-9.829360351432115e-05,-6.046599082765169e-05,-0.004979277029633522,-6.572112170033506e-07,1.627050664865237e-06,-5.285603037918918e-06,,,,,,
0.366224885,,,,,,,,,,,-0.003009170293807983,1,-0.01234615594148636,1,0.04060062021017075,1
0.370108932,0.005,-0.01225009094923735,-0.01960143074393272,-0.9957783222198486,-9.770692849997431e-05,-6.149608816485852e-05,-0.004979998804628849,1.278557874684338e-06,1.053137680173677e-06,-1.357162318527116e-06,,,,,,
0.371232510,,,,,,,,,,,-0.002222899347543716,1,-0.01301642600446939,1,0.03897594287991524,1
0.375138044,0.005,-0.01194168068468571,-0.01960893161594868,-0.9958005547523499,-9.788189345272258e-05,-5.775621684733778e-05,-0.004978927783668041,9.000077625387348e-07,3.651745146271423e-06,-8.810013696347596e-07,,,,,,
0.376235276,,,,,,,,,,,-0.002316393423825502,1,-0.009984697215259075,1,0.03875837475061417,1
0.380143881,0.005,-0.01217609830200672,-0.01971018686890602,-0.9955602884292603,-9.936545393429697e-05,-6.230060535017401e-05,-0.004976236261427402,-7.343673473769741e-07,-4.818893557967385e-06,3.717579602380283e-06,,,,,,
0.381233662,,,,,,,,,,,-0.003316768212243915,1,-0.01227801945060492,1,0.04111448302865028,1
0.385126650,0.005,-0.01207505818456411,-0.01960023492574692,-0.9955950975418091,-9.734415652928874e-05,-5.951014827587642e-05,-0.004978562705218792,-3.10656810142973e-06,-3.427699311941979e-06,3.392296321180766e-06,,,,,,
0.386227459,,,,,,,,,,,-0.002218751236796379,1,-0.01129418611526489,1,0.04077238589525223,1
0.390086919,0.005,-0.01201026141643524,-0.01965632289648056,-0.9956954717636108,-9.8346674349159e-05,-5.952069477643818e-05,-0.004978738725185394,6.273557573877042e-06,1.055300685948168e-06,2.791673296087538e-06,,,,,,
0.391216397,,,,,,,,,,,-0.002756800735369325,1,-0.01065325178205967,1,0.0397881418466568,1
0.395024627,0.005,-0.01202853582799435,-0.01936847530305386,-0.995648980140686,-9.503462933935225e-05,-6.007964475429617e-05,-0.004978103563189507,2.490565293555846e-06,-2.062745352304773e-06,-4.709694110260898e-07,,,,,,
0.396200955,,,,,,,,,,,7.401441689580679e-05,1,-0.0108122993260622,1,0.04024378210306168,1
0.399939597,0.005,-0.0120547953993082,-0.01956360787153244,-0.9955071806907654,-9.86874001682736e-05,-6.023794412612915e-05,-0.004976586438715458,-1.707782985249651e-06,5.353826054488309e-06,-1.399726784256927e-06,,,,,,
0.401180923,,,,,,,,,,,-0.001852895133197308,1,-0.01104632019996643,1,0.04163457825779915,1
0.404831737,0.005,-0.01219754852354527,-0.01947356574237347,-0.9954192638397217,-9.647147089708596e-05,-6.191310239955783e-05,-0.004976511932909489,3.276338247815147e-06,1.942260041687405e-06,-7.350565169872425e-07,,,,,,
0.406156301,,,,,,,,,,,-0.0009925136109814048,1,-0.01243518386036158,1,0.04249723255634308,1
0.409701645,0.005,-0.01236849464476109,-0.01948774233460426,-0.9954646229743958,-9.785626753000543e-05,-6.30215072305873e-05,-0.004977107513695955,-1.084322093447554e-06,-1.793417396811492e-07,4.697615167970071e-07,,,,,,
0.411127537,,,,,,,,,,,-0.001139895990490913,1,-0.01410224288702011,1,0.0420527309179306,1
0.414551288,0.005,-0.01203824020922184,-0.01939111575484276,-0.9953271150588989,-9.626859537092969e-05,-5.827099812449887e-05,-0.004975784569978714,7.51944924104464e-07,-1.302529199165292e-06,-1.945320349250323e-09,,,,,,
0.416094214,,,,,,,,,,,-0.000197721179574728,1,-0.01085135526955128,1,0.04340086132287979,1
0.419377923,0.005,-0.01201830990612507,-0.01935743354260921,-0.9953292608261108,-9.678721835371107e-05,-5.978868284728378e-05,-0.004976891446858644,1.435402168681321e-06,3.524313569869264e-07,-4.182167856470187e-07,,,,,,
0.421056271,,,,,,,,,,,0.0001243656442966312,1,-0.01064497418701649,1,0.04337969794869423,1
0.424182028,0.005,-0.01195477694272995,-0.01916482672095299,-0.9953981041908264,-9.459570719627663e-05,-5.906217120354995e-05,-0.004977165721356869,-1.36471470568722e-07,-3.292949941169354e-06,1.160579131465056e-06,,,,,,
0.426013440,,,,,,,,,,,0.00202538981102407,1,-0.01001365203410387,1,0.04270403832197189,1
0.429310709,0.005,-0.01208008360117674,-0.01927219517529011,-0.9956853985786438,-9.673283057054505e-05,-6.142136408016086e-05,-0.004980485420674086,-1.525793322798563e-06,-1.958838851123801e-07,1.636211209188332e-06,,,,,,
0.431053042,,,,,,,,,,,0.0009787925519049168,1,-0.01124551706016064,1,0.03988641500473022,1
0.434502661,0.005,-0.01206373050808907,-0.01938251219689846,-0.9959481954574585,-9.753148333402351e-05,-6.022113666404039e-05,-0.004981471225619316,2.348831458220957e-06,2.403966163910809e-06,2.476545205354341e-06,,,,,,
0.436088055,,,,,,,,,,,-0.0001037381880450994,1,-0.01107864920049906,1,0.03730880469083786,1
0.439671040,0.005,-0.01208645943552256,-0.01948412507772446,-0.9957110285758972,-9.807889728108421e-05,-6.094445416238159e-05,-0.004977521020919085,-2.823943987095845e-06,-2.692843054319383e-06,-2.246889380330686e-06,,,,,,
0.441118479,,,,,,,,,,,-0.001098960754461586,1,-0.01130249910056591,1,0.03963495045900345,1
0.444815367,0.005,-0.01225943211466074,-0.01954161562025547,-0.9958290457725525,-9.854361269390211e-05,-6.237116031115875e-05,-0.004979525692760944,6.038828814780572e-07,5.175294148784815e-08,-3.229002231819322e-06,,,,,,
0.446144253,,,,,,,,,,,-0.001659400877542794,1,-0.01299848966300488,1,0.03847785294055939,1
0.449935883,0.005,-0.01247152034193277,-0.01950357481837273,-0.9959545135498047,-9.704630065243691e-05,-6.348835449898615e-05,-0.004980602767318487,-1.716356564429589e-06,-3.079619546042522e-06,3.368759848854097e-07,,,,,,
0.451165169,,,,,,,,,,,-0.001276619848795235,1,-0.01507748663425446,1,0.03724708780646324,1
0.455032825,0.005,-0.01248085964471102,-0.01921086013317108,-0.9957518577575684,-9.466204937780276e-05,-6.248822319321334e-05,-0.004977532662451267,-1.781174660209217e-06,-4.299620741221588e-06,4.266250925866188e-06,,,,,,
0.456181496,,,,,,,,,,,0.001615560729987919,1,-0.01518323644995689,1,0.03923450037837029,1
0.460105479,0.005,-0.01246742904186249,-0.01948724500834942,-0.9954301118850708,-9.874359238892794e-05,-6.221919466042891e-05,-0.004975182004272938,2.696822775760666e-06,1.308167043134745e-06,1.090657406166429e-06,,,,,,
0.461193204,,,,,,,,,,,-0.001083301147446036,1,-0.01505185104906559,1,0.04238977655768394,1
0.465160698,0.005,-0.01219307538121939,-0.01931464299559593,-0.9955188035964966,-9.52752452576533e-05,-5.926430822000839e-05,-0.004977984819561243,-7.61100011459348e-07,-1.2776147286786e-06,-2.111313051500474e-06,,,,,,
0.466201603,,,,,,,,,,,0.0006186952814459801,1,-0.01235696114599705,1,0.04151957482099533,1
0.470193416,0.005,-0.01214421447366476,-0.01938283257186413,-0.9957008957862854,-9.762794070411474e-05,-6.034181569702923e-05,-0.004980131052434444,1.577842226652137e-06,6.845977509328804e-07,4.064672509684897e-07,,,,,,
0.471205115,,,,,,,,,,,-4.568934673443437e-05,1,-0.01187040843069553,1,0.03973353281617165,1
0.475202054,0.005,-0.01201686356216669,-0.01913388818502426,-0.9954489469528198,-9.429541387362406e-05,-5.959271584288217e-05,-0.004975819960236549,1.784903702173324e-06,-3.04015230767618e-08,9.208137612404244e-07,,,,,,
0.476204276,,,,,,,,,,,0.002392530208453536,1,-0.01060934271663427,1,0.0422041080892086,1
0.480188161,0.005,-0.011866744607687,-0.01908707246184349,-0.9954742789268494,-9.504362242296338e-05,-5.845626583322883e-05,-0.004977245815098286,2.697403715501423e-06,1.24819337088411e-07,-6.514811161650869e-07,,,,,,
0.481198579,,,,,,,,,,,0.002847160678356886,1,-0.009111400693655014,1,0.04195545986294746,1
0.485149950,0.005,-0.01161646656692028,-0.0194797720760107,-0.9954803586006165,-9.960874012904242e-05,-5.605034675681964e-05,-0.004977600183337927,-6.65897596263676e-06,-2.249642420792952e-06,-1.969089908016031e-06,,,,,,
0.486188293,,,,,,,,,,,-0.0009952756809070706,1,-0.006662417203187943,1,0.04189514368772507,1
0.490088969,0.005,-0.01189044117927551,-0.01925948075950146,-0.9956820011138916,-9.467529889661819e-05,-6.060141458874568e-05,-0.004979281686246395,1.676914735071477e-06,1.104337684409984e-06,2.297288574482081e-06,,,,,,
0.491173387,,,,,,,,,,,0.001164827961474657,1,-0.009354544803500175,1,0.03991730138659477,1
0.495005190,0.005,-0.01195439044386148,-0.019371397793293,-0.9954692721366882,-9.771025361260399e-05,-6.030712756910361e-05,-0.004976264666765928,2.612935759316315e-06,-5.370814506022725e-06,3.419399263293599e-06,,,,,,
0.496153861,,,,,,,,,,,9.121789480559528e-05,1,-0.009943580254912376,1,0.04200329631567001,1
0.499898106,0.005,-0.01202904898673296,-0.01960686780512333,-0.9955397844314575,-9.928213694365695e-05,-6.056005076970905e-05,-0.004977940116077662,3.738931582120131e-06,-5.073847546555044e-07,1.383363155582629e-06,,,,,,
0.501129448,,,,,,,,,,,-0.002202268224209547,1,-0.01062946114689112,1,0.04131108894944191,1
0.504767716,0.005,-0.01178227737545967,-0.01959404349327087,-0.9959255456924438,-9.833948570303619e-05,-5.746399983763695e-05,-0.004981860518455505,-3.139469754387392e-06,2.43732142735098e-06,1.154739308617536e-07,,,,,,
0.506100476,,,,,,,,,,,-0.00207617343403399,1,-0.008187118917703629,1,0.03752786666154861,1
0.509614348,0.005,-0.0119656641036272,-0.01955804787576199,-0.9959948658943176,-9.737943764775991e-05,-6.106076034484431e-05,-0.004980340600013733,-2.815270363498712e-06,1.874567374215985e-06,-7.736554152870667e-07,,,,,,
0.511066616,,,,,,,,,,,-0.001732746255584061,1,-0.009984780102968216,1,0.0368485189974308,1
0.514438152,0.005,-0.01192597765475512,-0.01965035125613213,-0.9952287077903748,-9.861384751275182e-05,-5.944420990999788e-05,-0.00497167743742466,4.026663191325497e-06,-3.162855819027754e-06,3.257921150634502e-07,,,,,,
0.516028404,,,,,,,,,,,-0.002634539268910885,1,-0.00958829652518034,1,0.0443619005382061,1
0.519241452,0.005,-0.01203411538153887,-0.01936055906116962,-0.995244562625885,-9.530130046186969e-05,-6.080091407056898e-05,-0.004976572468876839,1.29364843814983e-06,-1.313605935138185e-06,-5.872277952789773e-08,,,,,,
0.520985365,,,,,,,,,,,0.000217439403058961,1,-0.01063318271189928,1,0.04420625045895576,1
0.524284422,0.005,-0.01186599768698215,-0.01949878595769405,-0.9953755140304565,-9.833674994297326e-05,-5.818635690957308e-05,-0.004977426026016474,-2.231780626971158e-06,-4.485432896217389e-07,-9.210114058078034e-07,,,,,,
0.526025474,,,,,,,,,,,-0.001134334248490632,1,-0.008978582918643951,1,0.04292185604572296,1
0.529478908,0.005,-0.01193325314670801,-0.01951484195888042,-0.995539128780365,-9.794460493139923e-05,-6.032806777511723e-05,-0.004978704266250134,-4.328877821535571e-06,4.79934328723175e-07,3.356365709805686e-07,,,,,,
0.531060755,,,,,,,,,,,-0.00129061727784574,1,-0.009646538645029068,1,0.04131747409701347,1
0.534649074,0.005,-0.01197449583560228,-0.01930238865315914,-0.9958049654960632,-9.488319483352825e-05,-6.016710540279746e-05,-0.004980860278010368,-2.312480319233146e-06,-4.523488769336836e-06,-1.026777681545354e-06,,,,,,
0.536091626,,,,,,,,,,,0.0008070662152022123,1,-0.01006838958710432,1,0.03871049731969833,1
0.539794922,0.005,-0.01221383176743984,-0.01946824789047241,-0.995936393737793,-9.821980347624049e-05,-6.256870983634144e-05,-0.004980570636689663,-1.396966354150209e-06,-2.948105702671455e-06,-3.919960249731957e-07,,,,,,
0.541117668,,,,,,,,,,,-0.000795534229837358,1,-0.01243411935865879,1,0.03742076456546783,1
0.544918299,0.005,-0.01219498924911022,-0.019329983741045,-0.9956868886947632,-9.581127960700542e-05,-6.114732241258025e-05,-0.00497662927955389,1.468638970436587e-07,2.434452426314238e-06,2.656217077401379e-07,,,,,,
0.546139896,,,,,,,,,,,0.0005701579502783716,1,-0.01225629262626171,1,0.03986764326691628,1
0.550021350,0.005,-0.01213594991713762,-0.01903595961630344,-0.995464563369751,-9.358921670354903e-05,-6.014529571984895e-05,-0.004975659772753716,2.671518814167939e-06,-1.569339019624749e-06,-4.441316718839516e-07,,,,,,
0.551157475,,,,,,,,,,,0.00345981027930975,1,-0.0116743566468358,1,0.04204782843589783,1
0.555100441,0.005,-0.01207189820706844,-0.01931283436715603,-0.995431661605835,-9.806644811760634e-05,-6.021762237651274e-05,-0.004976890981197357,-4.317540060583269e-06,-1.885583742478047e-07,-1.217504973283212e-06,,,,,,
0.556170523,,,,,,,,,,,0.000749601109419018,1,-0.01105221640318632,1,0.04237044602632523,1
0.560156643,0.005,-0.01228391472250223,-0.01952129788696766,-0.9954878687858582,-9.920336015056819e-05,-6.253708124859259e-05,-0.004977378062903881,-1.229415147463442e-06,1.329950691797421e-06,-3.552028374542715e-06,,,,,,
0.561179161,,,,,,,,,,,-0.001297793816775084,1,-0.01314900256693363,1,0.04181989282369614,1
0.565189660,0.005,-0.01218491606414318,-0.019483532756567,-0.9952120184898376,-9.701696399133652e-05,-6.040359585313126e-05,-0.004974610637873411,-8.566901215090184e-07,-1.230706402566284e-06,-1.457718326491886e-06,,,,,,
0.566182911,,,,,,,,,,,-0.0009306431747972965,1,-0.0121862031519413,1,0.04452560469508171,1
0.570198774,0.005,-0.01207960024476051,-0.01950613409280777,-0.9956909418106079,-9.751178731676191e-05,-5.982477523502894e-05,-0.004981006029993296,-5.745671842305455e-06,6.698419952044787e-07,-2.945527285191929e-06,,,,,,
0.571182072,,,,,,,,,,,-0.001154097844846547,1,-0.01117208506911993,1,0.03982880711555481,1
0.575186670,0.005,-0.01225193403661251,-0.01929506286978722,-0.9955547451972961,-9.518316073808819e-05,-6.25961329205893e-05,-0.004976997151970863,-1.325767129856104e-06,-5.852654894056286e-08,-2.439676336507546e-06,,,,,,
0.576176882,,,,,,,,,,,0.0009180683991871774,1,-0.01288502756506205,1,0.0411641001701355,1
0.580150545,0.005,-0.01190188620239496,-0.01941496320068836,-0.9957122206687927,-9.757794759934768e-05,-5.710462210117839e-05,-0.004979387857019901,1.068969027073763e-06,1.731365699697562e-07,-9.686075372883352e-07,,,,,,
0.581166863,,,,,,,,,,,-0.0002643100160639733,1,-0.009461447596549988,1,0.03961982578039169,1
0.585091352,0.005,-0.01195211429148912,-0.01943388395011425,-0.9955750107765198,-9.69904795056209e-05,-5.989471537759528e-05,-0.004977119155228138,1.25002111417416e-06,9.604900697013363e-07,-3.368588295415975e-06,,,,,,
0.586152196,,,,,,,,,,,-0.0004551052115857601,1,-0.009954671375453472,1,0.04096603766083717,1
0.590009332,0.005,-0.01198302861303091,-0.01951766386628151,-0.9951584339141846,-9.831872739596292e-05,-6.032676174072549e-05,-0.004973621107637882,6.196398061319996e-08,1.55699024162459e-06,1.190810053230962e-06,,,,,,
0.591132939,,,,,,,,,,,-0.001291535096243024,1,-0.010251484811306,1,0.04505098983645439,1
0.594904602,0.005,-0.01180763635784388,-0.01940750144422054,-0.9951562881469727,-9.633850277168676e-05,-5.799529753858224e-05,-0.004976082593202591,-1.352925949049677e-08,1.268958499167638e-06,-8.831053150970547e-07,,,,,,
0.596108794,,,,,,,,,,,-0.000220330897718668,1,-0.008532698266208172,1,0.04507183283567429,1
0.599778831,0.005,-0.01186380349099636,-0.01964617520570755,-0.9951740503311157,-9.973330452339724e-05,-5.964116644463502e-05,-0.004975635558366776,8.076187896222109e-07,1.30032231027144e-06,1.459821987737087e-06,,,,,,
0.601080835,,,,,,,,,,,-0.002574359765276313,1,-0.009080034680664539,1,0.04489826038479805,1
0.604631543,0.005,-0.01173945236951113,-0.01960321329534054,-0.9954074025154114,-9.769746975507587e-05,-5.806464105262421e-05,-0.004978412762284279,-1.655638698139228e-06,-6.301905273176089e-07,-4.116079708182951e-06,,,,,,
0.606047988,,,,,,,,,,,-0.002162441145628691,1,-0.007858410477638245,1,0.04260996729135513,1
0.609461486,0.005,-0.01190394069999456,-0.01957038976252079,-0.9954806566238403,-9.763718117028475e-05,-6.037958519300446e-05,-0.004977750591933727,1.040032344690189e-07,9.522436243969423e-07,6.67756296479638e-07,,,,,,
0.611010790,,,,,,,,,,,-0.001851956592872739,1,-0.009470950812101364,1,0.04189208522439003,1
0.614268661,0.005,-0.01201543118804693,-0.01958419196307659,-0.9954249262809753,-9.801331907510757e-05,-6.101028338889591e-05,-0.004977081902325153,2.279290356455022e-06,-5.689430508937221e-07,-2.848238636943279e-06,,,,,,
0.615968764,,,,,,,,,,,-0.001992292469367385,1,-0.01055873651057482,1,0.04243830218911171,1
0.619227409,0.005,-0.01229201350361109,-0.01958774775266647,-0.9951243996620178,-9.771958139026538e-05,-6.292060425039381e-05,-0.004973871633410454,-1.766486832366354e-07,-5.184115821066371e-07,-1.825076537897985e-06,,,,,,
0.621009171,,,,,,,,,,,-0.002027916489169002,1,-0.01326240226626396,1,0.04538580402731895,1
0.624424458,0.005,-0.01232481468468904,-0.01958442106842995,-0.9954653382301331,-9.784327266970649e-05,-6.223797390703112e-05,-0.00497944001108408,-3.754706085601356e-06,-4.2282699723728e-06,1.204811383104243e-06,,,,,,
0.626044929,,,,,,,,,,,-0.001986317103728652,1,-0.0135890506207943,1,0.04204200953245163,1
0.629597962,0.005,-0.01240951288491488,-0.01925009116530418,-0.995704710483551,-9.408235928276554e-05,-6.23631858616136e-05,-0.00497979111969471,-1.412118535881746e-06,8.915772014006507e-07,-2.467362719471566e-06,,,,,,
0.631076336,,,,,,,,,,,0.001303992816247046,1,-0.01442372798919678,1,0.0396941751241684,1
0.634746611,0.005,-0.01201232895255089,-0.01931326277554035,-0.9956375360488892,-9.681836672825739e-05,-5.758415500167757e-05,-0.004977794364094734,6.412460038518475e-07,1.929457994265249e-06,1.303391968576761e-06,,,,,,
0.636102915,,,,,,,,,,,0.0006836307584308088,1,-0.01053499151021242,1,0.04035338386893272,1
0.639872491,0.005,-0.0119243310764432,-0.01924296654760838,-0.9959507584571838,-9.562281775288284e-05,-5.939683251199313e-05,-0.004981605336070061,-8.093293786259892e-07,-5.287085059535457e-06,-1.1353624813637e-06,,,,,,
0.641124845,,,,,,,,,,,0.001383415190503001,1,-0.009680603630840778,1,0.03728166595101357,1
0.644974351,0.005,-0.01194234751164913,-0.01912936940789223,-0.995740532875061,-9.481720189796761e-05,-5.958995461696759e-05,-0.004977672826498747,-6.650279374298407e-06,5.87515046390763e-07,7.592648785248457e-07,,,,,,
0.646142185,,,,,,,,,,,0.002507540630176663,1,-0.009879831224679947,1,0.03934314101934433,1
0.650056183,0.005,-0.01222288329154253,-0.0192080195993185,-0.9956027269363403,-9.617362229619175e-05,-6.300500535871834e-05,-0.004976942669600248,-1.003663101073471e-06,8.596400107308e-07,-4.84152508306579e-07,,,,,,
0.651155949,,,,,,,,,,,0.001734943361952901,1,-0.01265883445739746,1,0.04069508612155914,1
0.655116260,0.005,-0.01244409196078777,-0.01928945630788803,-0.9953668713569641,-9.680127550382167e-05,-6.379059777827933e-05,-0.004975152667611837,4.438869382283883e-06,-3.174072389811045e-06,-6.099609777265869e-07,,,,,,
0.656165123,,,,,,,,,,,0.0009482313180342317,1,-0.0148296132683754,1,0.0430079884827137,1
0.660151780,0.005,-0.01234032865613699,-0.01927506551146507,-0.9957356452941895,-9.648645209381357e-05,-6.086733628762886e-05,-0.004980854690074921,-5.947396175542963e-07,3.859932348859729e-06,-7.199188871709339e-07,,,,,,
0.661169410,,,,,,,,,,,0.00108236470259726,1,-0.01379996910691261,1,0.03939123451709747,1
0.665164053,0.005,-0.01247600000351667,-0.0193460900336504,-0.9958384037017822,-9.695619519334286e-05,-6.343346467474476e-05,-0.004979564342647791,-4.422352503752336e-06,-5.213054009800544e-06,-1.424866695742821e-06,,,,,,
0.666169107,,,,,,,,,,,0.0003938541922252625,1,-0.01513375900685787,1,0.03838357701897621,1
0.670153499,0.005,-0.01211335230618715,-0.01913011819124222,-0.9957980513572693,-9.479338768869638e-05,-5.843914186698385e-05,-0.00497880857437849,1.647740418775356e-06,-3.290716449555475e-06,-6.117387556514586e-07,,,,,,
0.671164155,,,,,,,,,,,0.002532562240958214,1,-0.01158978510648012,1,0.03877944499254227,1
0.675119340,0.005,-0.01189532689750195,-0.01936450600624084,-0.9956571459770203,-9.78883690549992e-05,-5.819984289701097e-05,-0.0049776965752244,1.731445195218839e-06,-1.344600605079904e-06,-2.35895709010947e-06,,,,,,
0.676154613,,,,,,,,,,,0.0002541185240261257,1,-0.00944272056221962,1,0.04016068950295448,1
0.680062711,0.005,-0.01181165501475334,-0.01951163075864315,-0.9955089688301086,-9.824053995544091e-05,-5.841870734002441e-05,-0.004976630676537752,-1.686211021478812e-06,-2.464688122927328e-06,-2.044457687588874e-07,,,,,,
0.681140244,,,,,,,,,,,-0.001169586554169655,1,-0.008620090782642365,1,0.04161292314529419,1
0.684982538,0.005,-0.0115657951682806,-0.0194422397762537,-0.9953563809394836,-9.689258877187967e-05,-5.674832209479064e-05,-0.004975687712430954,-1.624032279323728e-06,2.902727374021197e-06,5.448734441415581e-07,,,,,,
0.686121225,,,,,,,,,,,-0.0004859206965193152,1,-0.006213279440999031,1,0.04310899972915649,1
0.689879060,0.005,-0.01181770022958517,-0.01963079161942005,-0.99537593126297,-9.973021951736882e-05,-6.07858964940533e-05,-0.004977313801646233,-3.055104343729909e-06,4.730007276521064e-06,3.888736046064878e-06,,,,,,
0.691097617,,,,,,,,,,,-0.002350710099563003,1,-0.00870194099843502,1,0.04291781410574913,1
0.694753051,0.005,-0.01176142320036888,-0.01937595568597317,-0.9955291748046875,-9.542838233755901e-05,-5.823545143357478e-05,-0.004978200420737267,-3.643003992692684e-06,-9.827730309552862e-07,-4.298437090710649e-07,,,,,,
0.696069360,,,,,,,,,,,0.0001361918693874031,1,-0.008134839124977589,1,0.04141529276967049,1
0.699603975,0.005,-0.01167236734181643,-0.01962364092469215,-0.9956297278404236,-9.967340884031728e-05,-5.776352918474004e-05,-0.004978887736797333,1.432860301520122e-07,-9.688008049124619e-07,-3.537134716680157e-06,,,,,,
0.701036811,,,,,,,,,,,-0.002301023807376623,1,-0.007250761613249779,1,0.04042926803231239,1
0.704434931,0.005,-0.0117545984685421,-0.01958927512168884,-0.9955102205276489,-9.808007598621771e-05,-5.921961565036327e-05,-0.004976800642907619,1.08701476619899e-06,2.63231140706921e-06,-1.057995973496872e-06,,,,,,
0.705999613,,,,,,,,,,,-0.001973833423107862,1,-0.008041626773774624,1,0.04160106182098389,1
0.709243417,0.005,-0.01178057584911585,-0.01955429837107658,-0.9959328174591064,-9.721377864480019e-05,-5.918934766668826e-05,-0.004982019774615765,-9.620761147743906e-07,-6.267529897741042e-06,2.401862673195865e-07,,,,,,
0.710957587,,,,,,,,,,,-0.001616859692148864,1,-0.008291777223348618,1,0.03745681792497635,1
0.714116096,0.005,-0.01182921137660742,-0.01949409395456314,-0.9956458210945129,-9.69464163063094e-05,-5.96584432059899e-05,-0.004976603202521801,-1.209516085509676e-06,-1.523427727079252e-06,2.695091552595841e-06,,,,,,
0.715998471,,,,,,,,,,,-0.001014227163977921,1,-0.008769107982516289,1,0.04027101024985313,1
0.719314694,0.005,-0.01179306861013174,-0.01941655389964581,-0.9954026341438293,-9.70552209764719e-05,-5.900000542169437e-05,-0.004975702613592148,-2.015669679167331e-06,3.193599468431785e-06,4.199295290163718e-06,,,,,,
0.721034765,,,,,,,,,,,-0.0002501956187188625,1,-0.008424840867519379,1,0.04265575483441353,1
0.724489987,0.005,-0.01201785355806351,-0.01946886815130711,-0.9952998757362366,-9.730640886118636e-05,-6.139075412647799e-05,-0.004976064898073673,-4.182743680303247e-07,-2.563012458267622e-06,2.314621951882145e-06,,,,,,
0.726066411,,,,,,,,,,,-0.000762918614782393,1,-0.01063035987317562,1,0.04366332665085793,1
0.729641497,0.005,-0.01198002882301807,-0.01953161507844925,-0.9954985380172729,-9.808139293454587e-05,-5.949592377874069e-05,-0.004978247918188572,3.129172455373919e-06,-2.293516899953829e-06,-6.882567618049507e-07,,,,,,
0.731093526,,,,,,,,,,,-0.001365336938761175,1,-0.01025197561830282,1,0.04171454161405563,1
0.734772742,0.005,-0.01238389406353235,-0.01949125900864601,-0.9954075217247009,-9.73273636191152e-05,-6.430152279790491e-05,-0.004976856522262096,-2.555045966801117e-06,6.76360059514991e-07,3.529121386236511e-06,,,,,,
0.736116707,,,,,,,,,,,-0.0009641556534916162,1,-0.01421646773815155,1,0.04260722920298576,1
0.739881456,0.005,-0.01221548579633236,-0.01973813772201538,-0.9955999851226807,-9.974309068638831e-05,-6.014350947225466e-05,-0.004978960379958153,-1.320289584327838e-06,1.640309051254007e-06,-2.73733576250379e-06,,,,,,
0.741135359,,,,,,,,,,,-0.003385407384485006,1,-0.0125676691532135,1,0.04071987420320511,1
0.744966149,0.005,-0.01235265377908945,-0.02000311948359013,-0.9956505298614502,-0.0001013863075058907,-6.225518154678866e-05,-0.004978562705218792,-2.407064812359749e-06,3.379269401193596e-06,-2.080324520647991e-06,,,,,,
0.746149361,,,,,,,,,,,-0.005998386070132256,1,-0.01391930039972067,1,0.04022426530718803,1
0.750027537,0.005,-0.01195240207016468,-0.0197569951415062,-0.9955958127975464,-9.716024942463264e-05,-5.776002581114881e-05,-0.004977765958756208,-7.434365215885919e-06,2.681120577108231e-06,-2.433537474644254e-06,,,,,,
0.751158774,,,,,,,,,,,-0.003608051221817732,1,-0.01002668682485819,1,0.04076149314641953,1
0.755064845,0.005,-0.01182213239371777,-0.01975462585687637,-0.9952958226203918,-9.907187632052228e-05,-5.78093713556882e-05,-0.004974431358277798,-6.106648697823402e-07,2.08863161788031e-06,-2.070696154987672e-06,,,,,,
0.756163299,,,,,,,,,,,-0.003604290075600147,1,-0.008782804012298584,1,0.04370396584272385,1
0.760079086,0.005,-0.01195752806961536,-0.01968869939446449,-0.9952622652053833,-9.840128768701106e-05,-6.068584480090067e-05,-0.004976077005267143,4.048550636071013e-06,2.979802729896619e-06,-2.269990091008367e-06,,,,,,
0.761163533,,,,,,,,,,,-0.002989350818097591,1,-0.01010933145880699,1,0.04403374344110489,1
0.765071094,0.005,-0.01193920616060495,-0.01953676156699657,-0.9956284165382385,-9.660293289925903e-05,-5.961705392110161e-05,-0.004980156663805246,-7.950645226628694e-07,-1.782476260814292e-06,-1.823126694944222e-06,,,,,,
0.766159117,,,,,,,,,,,-0.001512995455414057,1,-0.009924730286002159,1,0.04044418036937714,1
0.770039320,0.005,-0.01213291194289923,-0.01945319771766663,-0.9957115054130554,-9.681911615189165e-05,-6.20296414126642e-05,-0.004979318007826805,-1.671839640948747e-06,-3.999055024905829e-06,-5.115697945257125e-07,,,,,,
0.771149814,,,,,,,,,,,-0.0006872921949252486,1,-0.0118290139362216,1,0.03962907567620277,1
0.774984181,0.005,-0.01188654638826847,-0.01918948814272881,-0.9956164956092834,-9.42386977840215e-05,-5.780140782007948e-05,-0.004977894946932793,-2.495257149348618e-06,-1.383035851176828e-06,-1.881285697891144e-06,,,,,,
0.776135921,,,,,,,,,,,0.001906392397359014,1,-0.009427281096577644,1,0.04056072607636452,1
0.779906809,0.005,-0.01205668319016695,-0.01950057595968246,-0.9954597949981689,-9.965107165044174e-05,-6.156084418762475e-05,-0.004976768046617508,-4.094853466085624e-06,-1.840957111198804e-06,-3.011787612194894e-06,,,,,,
0.781117439,,,,,,,,,,,-0.001129977288655937,1,-0.01111079752445221,1,0.04209762811660767,1
0.784806907,0.005,-0.01205960474908352,-0.01933131366968155,-0.9954248666763306,-9.562279592501e-05,-6.018873682478443e-05,-0.004976771771907806,-3.042950083909091e-06,2.895747570619278e-07,-8.690663548804878e-07,,,,,,
0.786095083,,,,,,,,,,,0.0005382808740250766,1,-0.01116406265646219,1,0.04243975877761841,1
0.789687276,0.005,-0.01195104327052832,-0.01924801990389824,-0.9955909848213196,-9.583156497683376e-05,-5.89395931456238e-05,-0.00497859250754118,-1.785427457434707e-06,-3.160119604217471e-06,-1.369839083054103e-06,,,,,,
0.791068137,,,,,,,,,,,0.00136491796001792,1,-0.01011873129755259,1,0.04081049188971519,1
0.794545174,0.005,-0.01189378090202808,-0.01951141841709614,-0.9955059885978699,-9.903041791403666e-05,-5.929838516749442e-05,-0.004977114032953978,5.113573138260108e-07,-5.018736828787951e-06,3.640490604084334e-06,,,,,,
0.796036601,,,,,,,,,,,-0.001190533977933228,1,-0.009571144357323647,1,0.04164376854896545,1
0.799380481,0.005,-0.01187343802303076,-0.01953515969216824,-0.9953153729438782,-9.799827239476144e-05,-5.911104381084442e-05,-0.004975203890353441,2.649867155923857e-06,-4.173849902144866e-06,6.252962521102745e-07,,,,,,
0.801000476,,,,,,,,,,,-0.001392350881360471,1,-0.009370195679366589,1,0.04351229220628738,1
0.804192781,0.005,-0.0119745833799243,-0.01939289830625057,-0.9953206181526184,-9.59093013079837e-05,-6.049954026821069e-05,-0.00497672613710165,-6.154686360559936e-08,2.965574594782083e-06,7.085965876285627e-07,,,,,,
0.805959404,,,,,,,,,,,2.09730351343751e-05,1,-0.01035968866199255,1,0.04346034303307533,1
0.809069574,0.005,-0.01199849508702755,-0.01969855651259422,-0.9954026937484741,-0.0001003812794806436,-6.00780695094727e-05,-0.004977663978934288,-1.840329218794068e-06,2.676903932297137e-06,1.316133648288087e-06,,,,,,
0.811000586,,,,,,,,,,,-0.002981511875987053,1,-0.01058721542358398,1,0.04265577346086502,1
0.814268947,0.005,-0.0119389845058322,-0.01967435143887997,-0.995663583278656,-9.807906462810934e-05,-5.936029992881231e-05,-0.00497974269092083,-6.202226359164342e-06,-5.244018552730267e-07,-1.168187679922994e-07,,,,,,
0.816036880,,,,,,,,,,,-0.002756288042291999,1,-0.01002602837979794,1,0.04009794071316719,1
0.819443941,0.005,-0.01181536354124546,-0.01968207024037838,-0.9956186413764954,-9.881657751975581e-05,-5.819328725920059e-05,-0.004977755714207888,-4.597496626956854e-06,9.334518153991667e-07,-2.382191496508312e-06,,,,,,
0.821068525,,,,,,,,,,,-0.002834951039403677,1,-0.008848929777741432,1,0.04053906723856926,1
0.824595213,0.005,-0.01179882977157831,-0.01952881366014481,-0.9954957962036133,-9.655042231315747e-05,-5.880066237295978e-05,-0.004976915195584297,-1.276672719541239e-06,4.711808969659614e-07,-1.840130380514893e-06,,,,,,
0.826095343,,,,,,,,,,,-0.001338620204478502,1,-0.008710497990250587,1,0.04174433648586273,1
0.829722881,0.005,-0.01216060761362314,-0.01967253163456917,-0.9957562685012817,-9.902818419504911e-05,-6.308760202955455e-05,-0.004980376921594143,-3.438973635638831e-06,-5.806987246614881e-06,-2.171723423316507e-07,,,,,,
0.831117332,,,,,,,,,,,-0.002733620116487145,1,-0.01228503417223692,1,0.03919048234820366,1
0.834830582,0.005,-0.01193895377218723,-0.01950290240347385,-0.9957737922668457,-9.661728836363181e-05,-5.82040156587027e-05,-0.004978959448635578,-2.167830416510697e-06,-2.402715608695871e-07,1.816297753975959e-06,,,,,,
0.836135924,,,,,,,,,,,-0.001054585445672274,1,-0.01014092564582825,1,0.03901846706867218,1
0.839915276,0.005,-0.01221643108874559,-0.01921598426997662,-0.995836079120636,-9.40707977861166e-05,-6.267643038881943e-05,-0.004979661665856838,2.79995379059983e-06,2.974499466290581e-06,-1.771996039678925e-06,,,,,,
0.841149926,,,,,,,,,,,0.001757543883286417,1,-0.01286986377090216,1,0.03840803354978561,1
0.844976664,0.005,-0.01219749823212624,-0.01921059191226959,-0.9958410859107971,-9.587168460711837e-05,-6.126879452494904e-05,-0.004979349672794342,-2.112490165018244e-06,1.473349243497069e-06,-3.766178679143195e-06,,,,,,
0.846159101,,,,,,,,,,,0.001797916134819388,1,-0.01268901955336332,1,0.03835958987474442,1
0.850014746,0.005,-0.01199276559054852,-0.01955204084515572,-0.9956268072128296,-9.979886817745864e-05,-5.861324098077603e-05,-0.004976653028279543,-1.524510508943422e-07,1.593794081600208e-06,-1.623298089725722e-06,,,,,,
0.851163924,,,,,,,,,,,-0.001561795128509402,1,-0.01068538799881935,1,0.04046118259429932,1
0.855029762,0.005,-0.01186537742614746,-0.01972875185310841,-0.9952967166900635,-9.977775334846228e-05,-5.839709046995267e-05,-0.004974551498889923,-6.90158856286871e-07,-1.226460153702646e-05,-3.381388978596078e-06,,,,,,
0.856163859,,,,,,,,,,,-0.003272864036262035,1,-0.009438535198569298,1,0.04369781166315079,1
0.860021234,0.005,-0.01195568218827248,-0.01932287402451038,-0.9952552318572998,-9.44071653066203e-05,-6.078943988541141e-05,-0.004975688643753529,3.596421038309927e-06,2.872523282348993e-06,5.572990744440176e-07,,,,,,
0.861159444,,,,,,,,,,,0.0007281071739271283,1,-0.01031157653778791,1,0.04410363733768463,1
0.864990234,0.005,-0.01221686881035566,-0.01943672634661198,-0.9951892495155334,-9.803523425944149e-05,-6.232523446669802e-05,-0.004975503776222467,-1.820287707232637e-06,-3.586766752050607e-06,3.650009148259414e-06,,,,,,
0.866150141,,,,,,,,,,,-0.0003723536501638591,1,-0.01287109777331352,1,0.04475021734833717,1
0.869936109,0.005,-0.0121712489053607,-0.01945311576128006,-0.9954720735549927,-9.736358333611861e-05,-6.068398215575144e-05,-0.004978920798748732,2.642921344886418e-06,-5.025101472710958e-06,4.558222826744895e-06,,,,,,
0.871136248,,,,,,,,,,,-0.0004984322586096823,1,-0.01241504028439522,1,0.04197598248720169,1
0.874859035,0.005,-0.01175677217543125,-0.01925511099398136,-0.9955312609672546,-9.515580313745886e-05,-5.634662738884799e-05,-0.00497784186154604,-2.723629222600721e-06,-5.474858539855632e-07,-4.085206057879986e-07,,,,,,
0.876117527,,,,,,,,,,,0.001463329652324319,1,-0.008349183015525341,1,0.04139544814825058,1
0.879758596,0.005,-0.01175142452120781,-0.01921162940561771,-0.995593249797821,-9.570977272232994e-05,-5.876910290680826e-05,-0.004978662356734276,-6.265998308663256e-06,1.440526716578461e-06,3.5429886224847e-07,,,,,,
0.881094158,,,,,,,,,,,0.001896105706691742,1,-0.008315878920257092,1,0.04078726842999458,1
0.884634852,0.005,-0.01187568716704845,-0.01924978382885456,-0.9954569935798645,-9.641974611440673e-05,-6.002341615385376e-05,-0.004976138472557068,-3.401072490305523e-06,-2.104353143295157e-06,-3.380114094397868e-06,,,,,,
0.886066675,,,,,,,,,,,0.001527850399725139,1,-0.009561804123222828,1,0.04212352633476257,1
0.889490664,0.005,-0.01223889831453562,-0.01935729570686817,-0.9956328868865967,-9.758221858646721e-05,-6.330522592179477e-05,-0.004979217424988747,-1.269686890736921e-06,-2.655161097209202e-06,-3.210101567674428e-06,,,,,,
0.891034603,,,,,,,,,,,0.000491454906295985,1,-0.01315150503069162,1,0.04039881750941277,1
0.894323707,0.005,-0.01209828536957502,-0.01945344731211662,-0.9953706860542297,-9.747401054482907e-05,-5.974420855636708e-05,-0.004974883515387774,-1.834000272538105e-06,2.864158432203112e-06,4.239776899339631e-06,,,,,,
0.895997941,,,,,,,,,,,-0.0004466677200980484,1,-0.01175117492675781,1,0.04296915978193283,1
0.899134219,0.005,-0.01201455481350422,-0.01975822262465954,-0.9956472516059875,-0.0001006070815492421,-5.908307866775431e-05,-0.004979422781616449,1.538333549433446e-06,3.739861540452694e-06,3.333194854349131e-06,,,,,,
0.900956392,,,,,,,,,,,-0.003447023220360279,1,-0.01090998668223619,1,0.04025769978761673,1
0.904010236,0.005,-0.01210810523480177,-0.01956867054104805,-0.9959388375282288,-9.701299859443679e-05,-6.100464815972373e-05,-0.004981375299394131,1.719945544209622e-06,2.711623665163643e-06,-2.658481207618024e-06,,,,,,
0.905998051,,,,,,,,,,,-0.001609205733984709,1,-0.01181117631494999,1,0.03739819303154945,1
0.909213722,0.005,-0.0122536662966013,-0.01971321366727352,-0.9959056377410889,-9.954767301678658e-05,-6.202272197697312e-05,-0.004979222547262907,-3.175248934894626e-07,-3.651368274404376e-07,-7.71278507727402e-07,,,,,,
0.911035120,,,,,,,,,,,-0.003037472488358617,1,-0.01322481315582991,1,0.03772437945008278,1
0.914393365,0.005,-0.01221230160444975,-0.01939601637423038,-0.9959977865219116,-9.530615352559835e-05,-6.101716644479893e-05,-0.004980598576366901,-1.524280719422677e-06,3.546183734215447e-06,-2.753940862021409e-06,,,,,,
0.916067302,,,,,,,,,,,5.128874909132719e-05,1,-0.01281379908323288,1,0.03682064637541771,1
0.919549465,0.005,-0.01209460012614727,-0.01941348426043987,-0.9959911108016968,-9.717172360979021e-05,-5.98040314798709e-05,-0.004980209283530712,-1.92069137483486e-06,-9.204652542393887e-07,-2.714201173148467e-06,,,,,,
0.921095192,,,,,,,,,,,-0.0001398901222273707,1,-0.01166630070656538,1,0.03688608109951019,1
0.924685836,0.005,-0.01192883774638176,-0.01929256692528725,-0.9957388639450073,-9.584878716850653e-05,-5.888221494387835e-05,-0.004977454431355,-3.052243755519157e-06,1.122129106079228e-06,1.773803205651348e-06,,,,,,
0.926119149,,,,,,,,,,,0.001037465059198439,1,-0.01005124114453793,1,0.03936037048697472,1
0.929798663,0.005,-0.01190856099128723,-0.01943189091980457,-0.9956180453300476,-9.766002040123567e-05,-5.952507126494311e-05,-0.004977096803486347,-9.736704669194296e-07,3.091989810855011e-07,1.97582767214044e-06,,,,,,
0.931138575,,,,,,,,,,,-0.0003342957934364676,1,-0.009860750287771225,1,0.04054570198059082,1
0.934888184,0.005,-0.01189461257308722,-0.01951884850859642,-0.9954631924629211,-9.817859245231375e-05,-5.932308704359457e-05,-0.004976200871169567,-3.951124199375045e-06,-1.008359390652913e-06,-4.874577825830784e-07,,,,,,
0.936153352,,,,,,,,,,,-0.001189871458336711,1,-0.009748101234436035,1,0.04206469655036926,1
0.939953923,0.005,-0.01183446776121855,-0.01954035833477974,-0.9956851601600647,-9.752265032147989e-05,-5.864614649908617e-05,-0.004979564342647791,-7.199219567155524e-07,-1.298803113058966e-06,1.458065071346937e-06,,,,,,
0.941163242,,,,,,,,,,,-0.001397733576595783,1,-0.00916958786547184,1,0.03988802060484886,1
0.944995582,0.005,-0.01216279622167349,-0.01957114972174168,-0.9960194230079651,-9.820800914894789e-05,-6.28023553872481e-05,-0.004982001148164272,-2.84309010112338e-07,4.20439528170391e-06,-4.486132183956215e-06,,,,,,
0.946168840,,,,,,,,,,,-0.001713311765342951,1,-0.0124061144888401,1,0.03661029413342476,1
0.950014710,0.005,-0.01227952446788549,-0.01976637355983257,-0.9959869980812073,-9.984324424294755e-05,-6.223426316864789e-05,-0.004979386925697327,-3.36311973114789e-06,-2.106401552737225e-06,-1.285179905607947e-06,,,,,,
0.951169789,,,,,,,,,,,-0.003635393688455224,1,-0.01356330700218678,1,0.03692827746272087,1
0.955011070,0.005,-0.01225282531231642,-0.0196877159178257,-0.9958430528640747,-9.829016198636964e-05,-6.114433199400082e-05,-0.004978540353477001,-1.809002014852013e-06,7.870131639720057e-07,2.009254785662051e-06,,,,,,
0.956166148,,,,,,,,,,,-0.002863167552277446,1,-0.01332008000463247,1,0.03833983093500137,1
0.959984362,0.005,-0.01206395123153925,-0.01962872222065926,-0.9959769248962402,-9.742294787429273e-05,-5.901083568460308e-05,-0.004980340600013733,4.952916015099618e-07,-1.503374846834049e-06,2.388468978153924e-08,,,,,,
0.961157620,,,,,,,,,,,-0.002283486071974039,1,-0.01147700753062963,1,0.03702716901898384,1
0.964934170,0.005,-0.01192362699657679,-0.01945981755852699,-0.9958478808403015,-9.61029581958428e-05,-5.873084228369407e-05,-0.004978411830961704,1.392455033055739e-06,-2.78997617897403e-06,3.20050162372354e-06,,,,,,
0.966144502,,,,,,,,,,,-0.0006258933572098613,1,-0.01010154373943806,1,0.03829257935285568,1
0.969860852,0.005,-0.0116534186527133,-0.01933180168271065,-0.9955964684486389,-9.602402860764414e-05,-5.628750659525394e-05,-0.004976307041943073,-3.09820416077855e-06,-7.490967846024432e-07,-6.400102847692324e-07,,,,,,
0.971126795,,,,,,,,,,,0.0006398361874744296,1,-0.007454329170286655,1,0.04075776413083076,1
0.974765301,0.005,-0.01198793388903141,-0.0194708202034235,-0.9957600235939026,-9.778620733413845e-05,-6.197231414262205e-05,-0.004979647230356932,-1.143906956713181e-06,3.403495156817371e-06,-3.130764525849372e-06,,,,,,
0.976105213,,,,,,,,,,,-0.0007239521364681423,1,-0.01074913144111633,1,0.03915401548147202,1
0.979650319,0.005,-0.01194585766643286,-0.01952297426760197,-0.9954950213432312,-9.808755567064509e-05,-5.974223677185364e-05,-0.00497598759829998,-1.010885171126574e-06,-1.280919263990654e-06,2.065851958832354e-06,,,,,,
0.981079042,,,,,,,,,,,-0.00124357407912612,1,-0.01034865621477365,1,0.04175317287445068,1
0.984512269,0.005,-0.01189156714826822,-0.019528953358531,-0.9956806898117065,-9.772657358553261e-05,-5.942447387496941e-05,-0.004979529418051243,4.211176019452978e-06,-5.240603513811948e-06,3.77885453417548e-06,,,,,,
0.986048281,,,,,,,,,,,-0.001283498597331345,1,-0.009804637171328068,1,0.03993170335888863,1
0.989351690,0.005,-0.01196920499205589,-0.01962946355342865,-0.9955241680145264,-9.876392141450197e-05,-6.041179585736245e-05,-0.004976901691406965,8.716156116861384e-07,2.897327703976771e-06,-6.357981874316465e-07,,,,,,
0.991012633,,,,,,,,,,,-0.00226283585652709,1,-0.01055589132010937,1,0.04146686196327209,1
0.994168580,0.005,-0.01209498010575771,-0.01958040706813335,-0.9954469203948975,-9.748535376274958e-05,-6.070176095818169e-05,-0.004976195283234119,6.448852332141541e-07,-2.25491726268956e-06,-1.100491772376699e-06,,,,,,
0.995972335,,,,,,,,,,,-0.001777839264832437,1,-0.01177453808486462,1,0.04222402349114418,1
0.999049485,0.005,-0.01198184210807085,-0.01944511942565441,-0.995336651802063,-9.629059059079736e-05,-5.948597390670329e-05,-0.004976119380444288,1.75192428741866e-06,-2.243804146928596e-06,-4.857089606957743e-06,,,,,,
1.001014233,,,,,,,,,,,-0.0004393996496219188,1,-0.01065607462078333,1,0.04330531880259514,1
1.004254222,0.005,-0.01191035658121109,-0.0192883275449276,-0.9954831600189209,-9.566009975969791e-05,-5.897725714021362e-05,-0.004978127311915159,-2.097076276186272e-06,-4.242614977556514e-06,-2.627168441904359e-06,,,,,,
1.006051540,,,,,,,,,,,0.001123028108850121,1,-0.009944448247551918,1,0.04186714813113213,1
1.009435177,0.005,-0.01203639432787895,-0.01919499412178993,-0.9954348802566528,-9.592052083462477e-05,-6.123280763858929e-05,-0.004977142438292503,-1.223171807396284e-06,-2.04380125978787e-06,-1.678490662015975e-06,,,,,,
1.011084080,,,,,,,,,,,0.002060709754005075,1,-0.01118176523596048,1,0.04234103485941887,1
1.014592528,0.005,-0.01196734607219696,-0.01920142956078053,-0.9955872297286987,-9.615511953597888e-05,-5.945001976215281e-05,-0.004978861194103956,-2.269709057145519e-06,-2.512593027859111e-06,3.48649655279587e-06,,,,,,
1.016112685,,,,,,,,,,,0.002020016778260469,1,-0.01051048096269369,1,0.04084618762135506,1
1.019728899,0.005,-0.01212896779179573,-0.01909671910107136,-0.9957555532455444,-9.515099372947589e-05,-6.153796130092815e-05,-0.004979970864951611,-1.868902018031804e-06,-1.7823970210884e-06,3.484041371848434e-06,,,,,,
1.021136403,,,,,,,,,,,0.003068381920456886,1,-0.01211349200457335,1,0.03919534012675285,1
1.024840713,0.005,-0.01224796380847692,-0.01918371953070164,-0.9958329200744629,-9.635880996938795e-05,-6.179380579851568e-05,-0.004979811608791351,3.334584334879764e-06,-3.96808627556311e-06,-1.112394784286153e-06,,,,,,
1.026155472,,,,,,,,,,,0.002237852197140455,1,-0.01327722333371639,1,0.03843621164560318,1
1.029929519,0.005,-0.01237829495221376,-0.0194555688649416,-0.995339035987854,-9.91702254395932e-05,-6.263798422878608e-05,-0.004973430652171373,9.578710660207435e-07,-2.254302444271161e-06,-2.104048917317414e-06,,,,,,
1.031170011,,,,,,,,,,,-0.0004069189017172903,1,-0.01454175915569067,1,0.04327902942895889,1
1.034994483,0.005,-0.01215320732444525,-0.01962286047637463,-0.995250940322876,-9.929254156304523e-05,-5.936530578765087e-05,-0.004975459072738886,-4.918413651466835e-06,7.61875824650815e-08,3.629796481163794e-07,,,,,,
1.036179662,,,,,,,,,,,-0.002030298346653581,1,-0.01233442034572363,1,0.0441424548625946,1
1.040035129,0.005,-0.01201103162020445,-0.01940219476819038,-0.9953262805938721,-9.556203440297395e-05,-5.908799357712269e-05,-0.004977190867066383,-1.995677394006634e-06,-6.320235570456134e-07,-6.165424224491289e-07,,,,,,
1.041185021,,,,,,,,,,,0.000139177922392264,1,-0.01095688808709383,1,0.04340388253331184,1
1.045052648,0.005,-0.01202597469091415,-0.01948759146034718,-0.9956313371658325,-9.843455336522311e-05,-6.020080036250874e-05,-0.004979966674000025,-2.232639417343307e-06,1.640703544580902e-06,3.00797910313122e-06,,,,,,
1.046185732,,,,,,,,,,,-0.0006972717819735408,1,-0.01112406328320503,1,0.04041288420557976,1
1.050047278,0.005,-0.01203542482107878,-0.01919215358793736,-0.995789110660553,-9.452832455281168e-05,-6.037881757947616e-05,-0.004980132915079594,-4.774521130457288e-06,-1.817864585973439e-06,2.999842763529159e-06,,,,,,
1.051181793,,,,,,,,,,,0.002201381139457226,1,-0.01123730186372995,1,0.03886591270565987,1
1.055017710,0.005,-0.01231031771749258,-0.01927243173122406,-0.995603084564209,-9.650002903072163e-05,-6.299588130787015e-05,-0.004977304954081774,-4.282991085347021e-06,-4.626573172572535e-06,-1.315310782956658e-06,,,,,,
1.056172848,,,,,,,,,,,0.001426327507942915,1,-0.01396895479410887,1,0.04069022834300995,1
1.059964895,0.005,-0.01225729566067457,-0.01934890262782574,-0.9956984519958496,-9.721118840388954e-05,-6.15362951066345e-05,-0.00497940881177783,6.153826461741119e-07,-3.275824610682321e-06,2.077921550380779e-07,,,,,,
1.061159372,,,,,,,,,,,0.0007041845819912851,1,-0.01347752287983894,1,0.0397542268037796,1
1.064888597,0.005,-0.01209435053169727,-0.01947263441979885,-0.9953569173812866,-9.795225923880935e-05,-5.914286157349125e-05,-0.004974552430212498,-5.946321266492305e-07,-5.098920155433007e-06,-4.764006575896929e-07,,,,,,
1.066140890,,,,,,,,,,,-0.0004784254706464708,1,-0.01189025957137346,1,0.04310287162661552,1
1.069790959,0.005,-0.01201010495424271,-0.01954991929233074,-0.9952035546302795,-9.809525363380089e-05,-5.95215788052883e-05,-0.004975101910531521,1.360217083856696e-06,-1.750320393512084e-06,3.413019840081688e-06,,,,,,
1.071118593,,,,,,,,,,,-0.001201642211526632,1,-0.01106513012200594,1,0.04460692405700684,1
1.074671388,0.005,-0.01186551246792078,-0.01942414045333862,-0.9952194094657898,-9.641247743275017e-05,-5.837372009409592e-05,-0.004975470714271069,-1.882960191323946e-06,-4.671733222494368e-06,-4.910881216346752e-06,,,,,,
1.076091409,,,,,,,,,,,6.504310294985771e-05,1,-0.009650308638811111,1,0.04445024207234383,1
1.079528689,0.005,-0.01208470668643713,-0.01970159634947777,-0.995432436466217,-0.0001000544725684449,-6.175015005283058e-05,-0.004978498909622431,4.381080088933231e-06,1.910015498651774e-06,3.736798532827379e-07,,,,,,
1.081059575,,,,,,,,,,,-0.002639778656885028,1,-0.01178549043834209,1,0.04236115515232086,1
1.084362984,0.005,-0.01180858630686998,-0.01944344118237495,-0.9954642653465271,-9.564591164235026e-05,-5.7604891480878e-05,-0.004977266304194927,4.973549039277714e-06,-1.780634875103715e-06,9.579656534697278e-07,,,,,,
1.086022854,,,,,,,,,,,-0.000101634141174145,1,-0.009051425382494926,1,0.04204859957098961,1
1.089184999,0.005,-0.01184320822358131,-0.01937244087457657,-0.9953258037567139,-9.659458737587556e-05,-5.913076165597886e-05,-0.004976232536137104,1.758039388732868e-06,5.83121027375455e-06,-4.213217380311107e-06,,,,,,
1.090984225,,,,,,,,,,,0.0005851357127539814,1,-0.009366121143102646,1,0.04340649023652077,1
1.094072819,0.005,-0.0116961570456624,-0.01943810097873211,-0.9953534007072449,-9.760956891113892e-05,-5.769077688455582e-05,-0.004976866766810417,2.094249339279486e-06,4.257781711203279e-06,-1.248204171133693e-06,,,,,,
1.096026659,,,,,,,,,,,-8.335866732522845e-05,1,-0.007862420752644539,1,0.04313557967543602,1
1.099279404,0.005,-0.01206017099320889,-0.01961986906826496,-0.9955289363861084,-9.921062883222476e-05,-6.187586404848844e-05,-0.00497860461473465,-3.421742349019041e-06,-1.974550741579151e-06,4.320068285323941e-07,,,,,,
1.101064444,,,,,,,,,,,-0.001884309924207628,1,-0.01139194425195456,1,0.04141391441226006,1
1.104462624,0.005,-0.01212126947939396,-0.01959395594894886,-0.9951777458190918,-9.771704208105803e-05,-6.114380084909499e-05,-0.00497378408908844,-3.545535946614109e-06,-1.587583255968639e-06,-9.793652679945808e-07,,,,,,
1.106097460,,,,,,,,,,,-0.001631814637221396,1,-0.01198942959308624,1,0.04485809803009033,1
1.109620690,0.005,-0.0121705299243331,-0.01963433250784874,-0.9959625601768494,-9.860713907983154e-05,-6.108129309723154e-05,-0.004984531551599503,9.199432611239899e-07,1.47736693634215e-06,2.218708686996251e-06,,,,,,
1.111125708,,,,,,,,,,,-0.002027484588325024,1,-0.01246981136500835,1,0.03716206550598145,1
1.114758611,0.005,-0.01202661637216806,-0.01952434331178665,-0.9959011077880859,-9.711142047308385e-05,-5.942587449681014e-05,-0.004978995304554701,9.379955372423865e-06,-5.588124167843489e-07,-1.219211640091089e-06,,,,,,
1.116150498,,,,,,,,,,,-0.0009483807370997965,1,-0.0110245943069458,1,0.03776432201266289,1
1.119874001,0.005,-0.01223274040967226,-0.01939924247562885,-0.9955981969833374,-9.647261322243139e-05,-6.214489985723048e-05,-0.004976345226168633,2.174833298340673e-06,6.703221970383311e-06,-1.719684661338761e-07,,,,,,
1.121170402,,,,,,,,,,,0.0002561301516834646,1,-0.0130091980099678,1,0.04073484241962433,1
1.124965429,0.005,-0.01229900307953358,-0.0193477738648653,-0.9955554604530334,-9.635580499889329e-05,-6.190525891724974e-05,-0.004977884702384472,-2.329683866264531e-06,1.187166276395146e-06,9.70018959378649e-07,,,,,,
1.126186013,,,,,,,,,,,0.0007300627185031772,1,-0.01364146266132593,1,0.04115399345755577,1
1.130033970,0.005,-0.01242826692759991,-0.01940015889704227,-0.9957476854324341,-9.752977348398417e-05,-6.300459062913433e-05,-0.004979956895112991,4.534817890089471e-07,4.84509428133606e-07,6.951590307835431e-07,,,,,,
1.131196618,,,,,,,,,,,0.0001974009501282126,1,-0.01489545870572329,1,0.03926872834563255,1
1.135079145,0.005,-0.01267150044441223,-0.01942406035959721,-0.9953352808952332,-9.709635924082249e-05,-6.487994687631726e-05,-0.004973931703716516,-4.073447598784696e-06,2.238815284272277e-07,1.842521896833205e-06,,,,,,
1.136202455,,,,,,,,,,,-4.935453762300313e-05,1,-0.01728778705000877,1,0.0433134064078331,1
1.140101075,0.005,-0.01220298279076815,-0.01947692036628723,-0.9953707456588745,-9.772066550794989e-05,-5.813276948174462e-05,-0.004976990632712841,1.895571358545567e-06,-3.931057563022478e-06,1.286937276745448e-07,,,,,,
1.141204238,,,,,,,,,,,-0.0005595252732746303,1,-0.01270011626183987,1,0.04296629130840302,1
1.145100236,0.005,-0.01233613304793835,-0.01912832260131836,-0.9954847693443298,-9.331355977337807e-05,-6.240160291781649e-05,-0.004978031385689974,3.870518867188366e-06,2.336519855816732e-06,9.678171863924945e-07,,,,,,
1.146201134,,,,,,,,,,,0.002860267879441381,1,-0.01398105919361115,1,0.04184770956635475,1
1.150076151,0.005,-0.01250421162694693,-0.01925461925566196,-0.9957775473594666,-9.70957480603829e-05,-6.333818600978702e-05,-0.004980809986591339,-1.313069788011489e-06,-1.732600480863766e-06,-2.32226261687174e-06,,,,,,
1.151193380,,,,,,,,,,,0.001621260540559888,1,-0.01562491618096828,1,0.03897615894675255,1
1.155028701,0.005,-0.01220526080578566,-0.01936929114162922,-0.9955439567565918,-9.745609713718295e-05,-5.930431507294998e-05,-0.004975526127964258,-2.693926504093724e-08,1.248897660843795e-06,-1.617025986888621e-06,,,,,,
1.156180739,,,,,,,,,,,0.0004945750697515905,1,-0.01268809661269188,1,0.04126648604869843,1
1.159958243,0.005,-0.01212613750249147,-0.01957345940172672,-0.9955798387527466,-9.904975013341755e-05,-5.998655979055911e-05,-0.004978429991751909,-2.395097169483051e-07,-1.697584934845509e-06,9.155288580586785e-07,,,,,,
1.161163807,,,,,,,,,,,-0.001511510345153511,1,-0.01191028207540512,1,0.04091547057032585,1
1.164864779,0.005,-0.01203964930027723,-0.01965196430683136,-0.9956668615341187,-9.890574438031763e-05,-5.98586666455958e-05,-0.004978387150913477,8.21461640043708e-07,-1.684794142420287e-06,5.596366008830955e-06,,,,,,
1.166142464,,,,,,,,,,,-0.002272112295031548,1,-0.01105829142034054,1,0.04006173089146614,1
1.169751763,0.005,-0.0118006868287921,-0.01933190785348415,-0.9955425262451172,-9.480617882218212e-05,-5.746330498368479e-05,-0.004977742210030556,3.488336460577557e-06,-1.851179263212543e-06,2.577268560344237e-06,,,,,,
1.171116590,,,,,,,,,,,0.0008787542465142906,1,-0.008694563992321491,1,0.04128077626228333,1
1.174615860,0.005,-0.0119379535317421,-0.01933703571557999,-0.9954797029495239,-9.656768088461831e-05,-6.02120635448955e-05,-0.004976786207407713,-6.381737307492585e-07,1.461146439396543e-07,2.920670567618799e-07,,,,,,
1.176086545,,,,,,,,,,,0.0008338921470567584,1,-0.01002796739339828,1,0.04189613834023476,1
1.179457784,0.005,-0.01226399466395378,-0.01921448856592178,-0.995625913143158,-9.535612480249256e-05,-6.35725591564551e-05,-0.004978680517524481,-1.275940803679987e-06,-1.067608309313073e-06,-1.718746716505848e-06,,,,,,
1.181051612,,,,,,,,,,,0.002042537787929177,1,-0.01322260685265064,1,0.04046237468719482,1
1.184277534,0.005,-0.01219667587429285,-0.01914123073220253,-0.9956215023994446,-9.48885572142899e-05,-6.06449248152785e-05,-0.004978263285011053,-2.972492211483768e-06,1.54891623083131e-07,-4.229792011756217e-06,,,,,,
1.186012149,,,,,,,,,,,0.00276167644187808,1,-0.01256849244236946,1,0.04050542041659355,1
1.189075232,0.005,-0.01230877451598644,-0.01943817734718323,-0.9956567287445068,-9.898049756884575e-05,-6.249367288546637e-05,-0.004978208802640438,-3.125478542642668e-07,-2.431037955830107e-06,2.328334630874451e-06,,,,,,
1.191054344,,,,,,,,,,,-0.0001454214798286557,1,-0.01367739122360945,1,0.04016003385186195,1
1.194281936,0.005,-0.01224490720778704,-0.0194711834192276,-0.9954569935798645,-9.741749090608209e-05,-6.054922414477915e-05,-0.004976144060492516,-3.152998488076264e-06,-9.986493978431099e-07,7.365055125774234e-07,,,,,,
1.196091890,,,,,,,,,,,-0.0004600675601977855,1,-0.01306173764169216,1,0.04211874306201935,1
1.199464202,0.005,-0.01194139942526817,-0.01931768096983433,-0.9951724410057068,-9.5511379186064e-05,-5.791957664769143e-05,-0.004974194802343845,6.17406954006583e-07,2.435094074826338e-06,-2.741774096648442e-06,,,,,,
1.201124907,,,,,,,,,,,0.00105190509930253,1,-0.01010010670870543,1,0.04490908235311508,1
1.204623342,0.005,-0.01215784344822168,-0.01935005001723766,-0.9955129623413086,-9.721879177959636e-05,-6.165818922454491e-05,-0.004979598335921764,-2.836166686392971e-06,2.09555696528696e-06,-1.459107124901493e-06,,,,,,
1.206153750,,,,,,,,,,,0.0007251458009704947,1,-0.01223285403102636,1,0.04156967997550964,1
1.209760785,0.005,-0.01198639534413815,-0.0195586271584034,-0.9953476190567017,-9.918025898514315e-05,-5.878110096091405e-05,-0.004975518677383661,-2.89369768324832e-06,2.290613565492094e-06,-4.05526907343301e-06,,,,,,
1.211177945,,,,,,,,,,,-0.001340668648481369,1,-0.01056865882128477,1,0.04319161176681519,1
1.214874387,0.005,-0.01214365661144257,-0.01962094940245152,-0.9955737590789795,-9.834367665462196e-05,-6.173305882839486e-05,-0.004979487508535385,3.61212329380578e-07,-1.037672063830541e-06,-4.918148988508619e-06,,,,,,
1.216197371,,,,,,,,,,,-0.001960992813110352,1,-0.01212095562368631,1,0.0409741997718811,1
1.219963431,0.005,-0.01185601856559515,-0.01924194395542145,-0.9954730272293091,-9.411896462552249e-05,-5.806429544463754e-05,-0.004976555705070496,-4.309083578846185e-07,-3.592193252188736e-06,-1.627605001885968e-07,,,,,,
1.221212149,,,,,,,,,,,0.001756343292072415,1,-0.009306369349360466,1,0.04196194559335709,1
1.225028396,0.005,-0.0119864996522665,-0.01944073475897312,-0.9956693649291992,-9.845683234743774e-05,-6.046191265340894e-05,-0.004979497753083706,-1.84063799224532e-06,-2.98273619137035e-08,-2.461190206304309e-06,,,,,,
1.226222277,,,,,,,,,,,-0.0001851421548053622,1,-0.01059795822948217,1,0.04003725945949554,1
1.230070233,0.005,-0.01190028805285692,-0.01952127739787102,-0.9956091642379761,-9.813733049668372e-05,-5.902708653593436e-05,-0.004977775737643242,6.282317372097168e-06,-4.231832917866996e-06,-1.148967712083504e-07,,,,,,
1.231227636,,,,,,,,,,,-0.0009606264065951109,1,-0.009740378707647324,1,0.04062732309103012,1
1.235088587,0.005,-0.01194001734256744,-0.0196184478700161,-0.9956100583076477,-9.82655183179304e-05,-6.022476009093225e-05,-0.004978009965270758,-1.393802108395903e-06,5.072444650977559e-07,1.584458004799671e-06,,,,,,
1.236228347,,,,,,,,,,,-0.00190272624604404,1,-0.01011489890515804,1,0.04061856865882874,1
1.240083456,0.005,-0.01200395449995995,-0.01937792077660561,-0.9957451224327087,-9.507224604021758e-05,-5.98581027588807e-05,-0.004979542922228575,-1.819003955461085e-06,-2.193644832004793e-06,9.195332495437469e-07,,,,,,
1.241224170,,,,,,,,,,,0.0004667810280807316,1,-0.01073588337749243,1,0.03929322957992554,1
1.245055199,0.005,-0.01229714695364237,-0.01951249688863754,-0.9959460496902466,-9.848236368270591e-05,-6.349274917738512e-05,-0.004980904515832663,-8.671749469613133e-07,-6.12118310527876e-06,-1.910871560539817e-06,,,,,,
1.246215701,,,,,,,,,,,-0.000826267700176686,1,-0.01362188626080751,1,0.0373220294713974,1
1.250003695,0.005,-0.01222496759146452,-0.01964425295591354,-0.9958595633506775,-9.891358786262572e-05,-6.052603202988394e-05,-0.004978745710104704,2.177182750529028e-06,1.42567762395629e-06,-8.269305453723064e-07,,,,,,
1.251202345,,,,,,,,,,,-0.002102568745613098,1,-0.01291159261018038,1,0.03816968947649002,1
1.254929423,0.005,-0.01209847908467054,-0.0197139848023653,-0.9957726001739502,-9.839108679443598e-05,-5.983021401334554e-05,-0.004978550598025322,-4.999500106350752e-06,1.19279707178066e-06,-5.226902999311278e-07,,,,,,
1.256184340,,,,,,,,,,,-0.002776945242658257,1,-0.01167921256273985,1,0.03902234137058258,1
1.259832859,0.005,-0.01224441640079021,-0.01967286877334118,-0.9956234693527222,-9.832854993874207e-05,-6.21410581516102e-05,-0.004976657219231129,-3.662192284537014e-06,-7.937466648400004e-07,1.111855681301677e-06,,,,,,
1.261162043,,,,,,,,,,,-0.002374951262027025,1,-0.01312605198472738,1,0.04048567265272141,1
1.264714003,0.005,-0.01208723150193691,-0.01982547529041767,-0.995334267616272,-0.0001002116332529113,-5.972942017251626e-05,-0.004975149873644114,-3.556573801688501e-06,5.395736479840707e-07,2.951230953840422e-06,,,,,,
1.266135097,,,,,,,,,,,-0.003870105370879173,1,-0.01161149702966213,1,0.04332177713513374,1
1.269571781,0.005,-0.01209810469299555,-0.01998496055603027,-0.9951338171958923,-0.0001009272527880967,-6.030287840985693e-05,-0.004974466282874346,2.80161339105689e-06,1.014015197142726e-06,-3.109101669451775e-07,,,,,,
1.271103263,,,,,,,,,,,-0.005438028834760189,1,-0.01173336431384087,1,0.04528776928782463,1
1.274406672,0.005,-0.01187117304652929,-0.01969810575246811,-0.9952780604362488,-9.711402526590973e-05,-5.791048897663131e-05,-0.004977334756404161,7.689439371461049e-06,1.296667392125528e-06,-1.016418423205323e-06,,,,,,
1.276070356,,,,,,,,,,,-0.002636093180626631,1,-0.009480663575232029,1,0.0438736155629158,1
1.279237390,0.005,-0.01197144761681557,-0.01961730606853962,-0.9955331683158875,-9.754509665071964e-05,-6.020574801368639e-05,-0.004979315679520369,-2.638411160660326e-06,-2.425532784400275e-06,6.389027618070031e-08,,,,,,
1.281032920,,,,,,,,,,,-0.001850022817961872,1,-0.0104466425254941,1,0.04137173667550087,1
1.284045815,0.005,-0.01196745596826077,-0.01943033188581467,-0.9958648085594177,-9.590577246854082e-05,-6.002826194162481e-05,-0.004981160163879395,-8.74212275903119e-07,-6.690049048074798e-08,9.330497618975642e-08,,,,,,
1.286075592,,,,,,,,,,,-7.218390237540007e-06,1,-0.01039876136928797,1,0.0381193645298481,1
1.289255381,0.005,-0.01193568017333746,-0.01949532702565193,-0.9958201050758362,-9.77198506006971e-05,-5.951405910309404e-05,-0.004979098681360483,-1.087668692889565e-06,-1.870587425401027e-06,-7.580791816508281e-08,,,,,,
1.291113734,,,,,,,,,,,-0.0006357037927955389,1,-0.0100930891931057,1,0.03855711594223976,1
1.294440746,0.005,-0.01200210303068161,-0.01971445046365261,-0.9958060383796692,-9.991572733270004e-05,-6.041498636477627e-05,-0.004978884011507034,8.882244628694025e-07,6.990779866100638e-07,4.891456910627312e-07,,,,,,
1.296147466,,,,,,,,,,,-0.002778993919491768,1,-0.01070360373705626,1,0.038694828748703,1
1.299603224,0.005,-0.01214215997606516,-0.01952946372330189,-0.9956225752830505,-9.634959133109078e-05,-6.179157935548574e-05,-0.00497715687379241,-2.624045009724796e-06,2.701441871977295e-06,3.763499307751772e-06,,,,,,
1.301176548,,,,,,,,,,,-0.0009717853972688317,1,-0.01205663196742535,1,0.04049433395266533,1
1.304741859,0.005,-0.01202058419585228,-0.01930827274918556,-0.995542585849762,-9.544575004838407e-05,-5.923128992435522e-05,-0.004977044649422169,-3.434026893955888e-06,4.486103080125758e-06,7.171174161157978e-07,,,,,,
1.306200862,,,,,,,,,,,0.001176012214273214,1,-0.01086748670786619,1,0.0412784107029438,1
1.309856772,0.005,-0.01215347368270159,-0.01923876069486141,-0.995705783367157,-9.529792441753671e-05,-6.141299672890455e-05,-0.004979641176760197,4.144691502006026e-06,-3.484004537313012e-06,-2.073165603633242e-07,,,,,,
1.311220765,,,,,,,,,,,0.001849622232839465,1,-0.01216652896255255,1,0.03967843949794769,1
1.314947367,0.005,-0.01232068613171577,-0.01922437734901905,-0.9956600666046143,-9.627940016798675e-05,-6.258991925278679e-05,-0.004978074226528406,6.118028750279336e-07,-3.790872824538383e-06,2.972734819195466e-06,,,,,,
1.316235542,,,,,,,,,,,0.00199517048895359,1,-0.01379089988768101,1,0.04012646526098251,1
1.320013523,0.005,-0.01224977057427168,-0.01932471804320812,-0.9955866932868958,-9.727745782583952e-05,-6.051247328286991e-05,-0.004977354779839516,2.215489075751975e-06,-2.352866431465372e-06,9.697376981421257e-07,,,,,,
1.321245670,,,,,,,,,,,0.001030872808769345,1,-0.01307855732738972,1,0.04084508866071701,1
1.325057507,0.005,-0.01212447509169579,-0.01908213272690773,-0.9952881932258606,-9.368799510411918e-05,-5.990572390146554e-05,-0.004974781069904566,4.42137979916879e-06,-2.349709120608168e-06,1.268671439902391e-06,,,,,,
1.326251268,,,,,,,,,,,0.003429355565458536,1,-0.01182250306010246,1,0.04377205669879913,1
1.330077410,0.005,-0.01194224786013365,-0.01941138319671154,-0.9957267642021179,-9.912457608152181e-05,-5.88736729696393e-05,-0.004981280770152807,3.201772187821916e-06,1.119315129471943e-06,5.864628178642306e-07,,,,,,
1.331252217,,,,,,,,,,,0.00020859859068878,1,-0.01000238209962845,1,0.03947049751877785,1
1.335072994,0.005,-0.01172222290188074,-0.01928902044892311,-0.9956718683242798,-9.549703827360645e-05,-5.699364191968925e-05,-0.004977862816303968,1.419025352333847e-06,-1.678060357335198e-06,-1.684541985014221e-06,,,,,,
1.336248279,,,,,,,,,,,0.00141922349575907,1,-0.007814538665115833,1,0.04000792652368546,1
1.340045571,0.005,-0.01168470457196236,-0.01958825066685677,-0.9957315325737,-9.963559568859637e-05,-5.822848834213801e-05,-0.004978823475539684,-2.027228021006522e-07,6.187561211845605e-06,7.507725996447334e-08,,,,,,
1.341239572,,,,,,,,,,,-0.001526718493551016,1,-0.007429430261254311,1,0.03942303732037544,1
1.344994307,0.005,-0.01179953850805759,-0.0195766631513834,-0.9957908391952515,-9.848304762272164e-05,-5.983809751342051e-05,-0.004979379009455442,-1.702020540506055e-06,3.518989331041666e-07,5.384908376981912e-07,,,,,,
1.346226215,,,,,,,,,,,-0.001427663723006845,1,-0.008552400395274162,1,0.03884217515587807,1
1.349919796,0.005,-0.01208959799259901,-0.01943932846188545,-0.9957273602485657,-9.626690007280558e-05,-6.185974052641541e-05,-0.004978428594768047,-1.909562797663966e-06,6.489894985861611e-07,-1.519077272860159e-06,,,,,,
1.351210713,,,,,,,,,,,-0.0001005805534077808,1,-0.01140180882066488,1,0.03946486860513687,1
1.354834914,0.005,-0.01206259708851576,-0.01950792595744133,-0.9958125352859497,-9.808890172280371e-05,-6.008839409332722e-05,-0.004979396238923073,3.168318698953954e-06,4.330267415753042e-07,-9.617847354093101e-07,,,,,,
1.356190681,,,,,,,,,,,-0.0007819305174052715,1,-0.01113251317292452,1,0.03862961009144783,1
1.359727144,0.005,-0.01203879807144403,-0.01943071931600571,-0.9957314729690552,-9.66191801126115e-05,-5.989603596390225e-05,-0.004978030454367399,1.007524133456172e-06,-1.284743689211609e-07,-3.771054934986751e-06,,,,,,
1.361166120,,,,,,,,,,,-3.190049028489739e-05,1,-0.01088197994977236,1,0.03942497447133064,1
1.364596486,0.005,-0.01209694799035788,-0.01940126158297062,-0.9957755208015442,-9.691750892670825e-05,-6.072531687095761e-05,-0.004979194141924381,-1.494277853453241e-06,-3.771845058508916e-07,5.922517942735794e-08,,,,,,
1.366136551,,,,,,,,,,,0.0002503141295164824,1,-0.01144564338028431,1,0.03899307921528816,1
1.369443536,0.005,-0.01179513614624739,-0.01939493045210838,-0.9956367015838623,-9.712115570437163e-05,-5.709403194487095e-05,-0.004977465141564608,-4.428322881722124e-06,-5.62163859285647e-06,-3.599120645958465e-06,,,,,,
1.371102452,,,,,,,,,,,0.0003254862676840276,1,-0.008495979011058807,1,0.04035412892699242,1
1.374266863,0.005,-0.0119575709104538,-0.01958501897752285,-0.995613694190979,-9.899954602587968e-05,-6.055830453988165e-05,-0.004978117067366838,-7.345781796175288e-07,3.185418336215662e-06,2.306036549271084e-06,,,,,,
1.376063466,,,,,,,,,,,-0.001529872068203986,1,-0.01010847557336092,1,0.04057975485920906,1
1.379068136,0.005,-0.01200215891003609,-0.01982216723263264,-0.9954926371574402,-0.0001006725215120241,-6.043598114047199e-05,-0.004976873286068439,-1.146750719271949e-06,2.101703785228892e-06,4.21115146309603e-07,,,,,,
1.381106377,,,,,,,,,,,-0.003866691375151277,1,-0.01055391412228346,1,0.04176689311861992,1
1.384279847,0.005,-0.01179439108818769,-0.01937180943787098,-0.9956137537956238,-9.413958468940109e-05,-5.795310426037759e-05,-0.004978786688297987,1.85068392966059e-06,-1.607021317795443e-06,2.775916073005646e-06,,,,,,
1.386144757,,,,,,,,,,,0.0005473568453453481,1,-0.008520624600350857,1,0.04057930409908295,1
1.389466405,0.005,-0.01196613349020481,-0.01916040480136871,-0.9955657720565796,-9.415930981049314e-05,-6.066422793082893e-05,-0.004977524280548096,-5.974474674985686e-07,1.695391574685345e-06,-5.109258722768573e-07,,,,,,
1.391178966,,,,,,,,,,,0.002615567529574037,1,-0.01020010281354189,1,0.04104925692081451,1
1.394630194,0.005,-0.01199643034487963,-0.01917895674705505,-0.9955167770385742,-9.606039384379983e-05,-6.005706745781936e-05,-0.004977396689355373,-4.405564141052309e-06,-2.313407549081603e-06,-2.193608224843047e-06,,,,,,
1.396208405,,,,,,,,,,,0.002435265341773629,1,-0.0105089358985424,1,0.04152994975447655,1
1.399770379,0.005,-0.01198135409504175,-0.01914305984973907,-0.9954460263252258,-9.542764018988237e-05,-6.028735151630826e-05,-0.004976945463567972,1.136854507421958e-06,-2.095696800097357e-06,3.060385324715753e-06,,,,,,
1.401232839,,,,,,,,,,,0.002792058512568474,1,-0.01036994811147451,1,0.04222443699836731,1
1.404886484,0.005,-0.01190666202455759,-0.01921969652175903,-0.9952316284179688,-9.63683778536506e-05,-5.896492803003639e-05,-0.004974526818841696,1.975982513613417e-06,-3.152547378704185e-06,-3.509238055698916e-08,,,,,,
1.406253099,,,,,,,,,,,0.002061313949525356,1,-0.009635196998715401,1,0.04432661458849907,1
1.409978390,0.005,-0.01203104574233294,-0.0195430014282465,-0.9952695369720459,-9.998733730753884e-05,-6.119551107985899e-05,-0.004976730793714523,-1.811630113479623e-06,-2.184649474656908e-06,3.399998604436405e-06,,,,,,
1.411268353,,,,,,,,,,,-0.001091245678253472,1,-0.01085317600518465,1,0.04395473375916481,1
1.415045857,0.005,-0.01229095086455345,-0.01949135586619377,-0.9953429102897644,-9.739183587953448e-05,-6.303322879830375e-05,-0.004976846743375063,-4.4371081457939e-06,5.909058927500155e-06,1.409292167409149e-06,,,,,,
1.416278839,,,,,,,,,,,-0.0005877928342670202,1,-0.01341952569782734,1,0.04323520138859749,1
1.420090318,0.005,-0.01223745569586754,-0.01933537982404232,-0.9956045150756836,-9.589556430000812e-05,-6.109598325565457e-05,-0.004979540593922138,7.155846333262161e-07,-7.282051797119493e-07,-1.304299985349644e-06,,,,,,
1.421284556,,,,,,,,,,,0.0009297977085225284,1,-0.01290724333375692,1,0.04066962748765945,1
1.425117135,0.005,-0.01217276696115732,-0.01942028291523457,-0.9955955743789673,-9.774962381925434e-05,-6.04246961302124e-05,-0.00497763603925705,-7.608340979459172e-07,-4.3513364289538e-07,-6.584921834473789e-07,,,,,,
1.426286817,,,,,,,,,,,9.174091974273324e-05,1,-0.01227221079170704,1,0.04075757414102554,1
1.430119991,0.005,-0.0120843667536974,-0.01954657398164272,-0.9956361651420593,-9.820624836720526e-05,-5.993255399516784e-05,-0.004978666547685862,-2.825071533152368e-06,-3.618529262894299e-06,3.672699619983177e-07,,,,,,
1.431284428,,,,,,,,,,,-0.001137631479650736,1,-0.0114160655066371,1,0.040359016507864,1
1.435099125,0.005,-0.01208827272057533,-0.01949837058782578,-0.9956724643707275,-9.744354611029848e-05,-6.069514347473159e-05,-0.004978401586413383,-4.175441517872969e-06,-2.794506144709885e-06,-7.220950806186011e-07,,,,,,
1.436277509,,,,,,,,,,,-0.0006474429974332452,1,-0.01147532742470503,1,0.04000299051403999,1
1.440055251,0.005,-0.01217125169932842,-0.01930408924818039,-0.995726466178894,-9.527264046482742e-05,-6.117617158452049e-05,-0.004979085177183151,-1.778549716391353e-07,1.69764973634301e-06,3.573787125787931e-06,,,,,,
1.441265702,,,,,,,,,,,0.001261244527995586,1,-0.01230506133288145,1,0.03947430476546288,1
1.444988370,0.005,-0.01201174594461918,-0.01938538812100887,-0.9955598115921021,-9.726465214043856e-05,-5.92057331232354e-05,-0.004976254887878895,2.533328370191157e-06,7.273126811924158e-07,2.37035533245944e-06,,,,,,
1.446249008,,,,,,,,,,,0.0004634633660316467,1,-0.01074408646672964,1,0.04110901057720184,1
1.449897766,0.005,-0.01198622770607471,-0.0194275863468647,-0.9956265687942505,-9.755447536008433e-05,-5.983946175547317e-05,-0.004978697746992111,1.080059291780344e-06,3.317285518278368e-06,1.255318466064637e-06,,,,,,
1.451227903,,,,,,,,,,,4.242236900608987e-05,1,-0.01048755180090666,1,0.04045436158776283,1
1.454784513,0.005,-0.01189887337386608,-0.0195305310189724,-0.9960780739784241,-9.829875489231199e-05,-5.915982546866871e-05,-0.004982883110642433,-2.587162953204825e-06,8.356667535736051e-07,6.60578564293246e-07,,,,,,
1.456202030,,,,,,,,,,,-0.0009841639548540115,1,-0.009633401408791542,1,0.03602639958262444,1
1.459647775,0.005,-0.01185291633009911,-0.01950047537684441,-0.9960127472877502,-9.736271749716252e-05,-5.91106727370061e-05,-0.004979945719242096,-5.79991024096671e-07,-2.386673031651299e-06,4.268746067737084e-07,,,,,,
1.461171508,,,,,,,,,,,-0.0006965867360122502,1,-0.009188622236251831,1,0.03666706755757332,1
1.464488149,0.005,-0.01202267780900002,-0.01941964775323868,-0.995713472366333,-9.651915024733171e-05,-6.102120823925361e-05,-0.004976529162377119,4.943241947330534e-06,3.192278200003784e-06,3.842178557533771e-06,,,,,,
1.466136098,,,,,,,,,,,9.174707520287484e-05,1,-0.01084250770509243,1,0.03960154578089714,1
1.469306111,0.005,-0.01218258589506149,-0.01975148729979992,-0.9954240322113037,-0.0001009330007946119,-6.189797568367794e-05,-0.004975079093128443,-3.864516656904016e-06,-4.841568625124637e-06,-9.381226391269593e-07,,,,,,
1.471096039,,,,,,,,,,,-0.003157534170895815,1,-0.01240570470690727,1,0.04244031012058258,1
1.474102020,0.005,-0.0122016929090023,-0.0197145864367485,-0.995373010635376,-9.831511124502867e-05,-6.056005076970905e-05,-0.004976598545908928,-3.397052296350012e-06,-4.486623765842523e-06,2.236682803413714e-06,,,,,,
1.476051927,,,,,,,,,,,-0.002778495429083705,1,-0.01260815840214491,1,0.04294024035334587,1
1.479314208,0.005,-0.01226323470473289,-0.01940290257334709,-0.9954695701599121,-9.492396202404052e-05,-6.188098632264882e-05,-0.00497736968100071,1.555698418087559e-06,-1.092030572635849e-07,1.533739123260602e-06,,,,,,
1.481090546,,,,,,,,,,,0.0003017477283719927,1,-0.01322044152766466,1,0.04199287667870522,1
1.484503269,0.005,-0.01223919913172722,-0.01952109113335609,-0.9955827593803406,-9.847829642239958e-05,-6.09624148637522e-05,-0.004978671204298735,1.347739043922047e-06,-1.562041234137723e-06,-1.01240129879443e-06,,,,,,
1.486125112,,,,,,,,,,,-0.0008449993911199272,1,-0.0129815274849534,1,0.04088258370757103,1
1.489668608,0.005,-0.01223157439380884,-0.01938733085989952,-0.9954408407211304,-9.564773790771142e-05,-6.082019899622537e-05,-0.004976067692041397,-1.487723920945427e-06,-1.253088043995376e-06,-1.780885213520378e-06,,,,,,
1.491154671,,,,,,,,,,,0.0004803098563570529,1,-0.01290286704897881,1,0.0422745943069458,1
1.494810104,0.005,-0.01213664002716541,-0.01953674294054508,-0.9956338405609131,-9.812509233597666e-05,-6.04223387199454e-05,-0.004979468882083893,-1.976116664081928e-06,-6.456126357079484e-06,-4.21724649868338e-07,,,,,,
1.496179700,,,,,,,,,,,-0.0009643735829740763,1,-0.01194329746067524,1,0.04038114100694656,1
1.499928117,0.005,-0.01212079077959061,-0.01984206587076187,-0.9953517317771912,-0.0001012743305182084,-6.040649168426171e-05,-0.004974731244146824,-3.176851578245987e-06,-1.665514105297916e-06,1.893024546006927e-07,,,,,,
1.501200080,,,,,,,,,,,-0.003929811529815197,1,-0.01177762914448977,1,0.04314710944890976,1
1.505026102,0.005,-0.01215128600597382,-0.01974708214402199,-0.9952785968780518,-9.794770448934287e-05,-6.067313006496988e-05,-0.004976165015250444,-2.7016082526643e-07,-2.862676183212898e-06,1.405110538144072e-06,,,,,,
1.506216645,,,,,,,,,,,-0.002974182600155473,1,-0.01207306515425444,1,0.04386382177472115,1
1.510100484,0.005,-0.01192592456936836,-0.01964514888823032,-0.9952988028526306,-9.765952563611791e-05,-5.812240851810202e-05,-0.00497655151411891,-3.085283879045164e-06,2.237099579360802e-06,1.96894870896358e-06,,,,,,
1.511228681,,,,,,,,,,,-0.001958052860572934,1,-0.009871579706668854,1,0.04366518557071686,1
1.515150547,0.005,-0.01238143909722567,-0.01966346614062786,-0.9952687621116638,-9.83306163107045e-05,-6.468746869359165e-05,-0.004976041149348021,4.942438863508869e-06,3.647192272637767e-07,-8.400826914112258e-07,,,,,,
1.516236067,,,,,,,,,,,-0.002132704248651862,1,-0.01432828325778246,1,0.04395948722958565,1
1.520177364,0.005,-0.01249666698276997,-0.01956679672002792,-0.9953297972679138,-9.748245793161914e-05,-6.336579826893285e-05,-0.004977354314178228,-2.023980187004781e-06,1.116400653700111e-06,-1.779160356818466e-06,,,,,,
1.521238565,,,,,,,,,,,-0.001189752016216516,1,-0.01545408647507429,1,0.04336113855242729,1
1.525181174,0.005,-0.01216776482760906,-0.01943610049784184,-0.9955278038978577,-9.593189315637574e-05,-5.899000825593248e-05,-0.004978371784090996,-3.673689889183152e-06,-5.695491722690349e-07,1.506384364802216e-06,,,,,,
1.526236415,,,,,,,,,,,8.736626477912068e-05,1,-0.0122392550110817,1,0.04141991958022118,1
1.530161977,0.005,-0.01208278723061085,-0.01944840140640736,-0.9957286715507507,-9.728193981572986e-05,-5.989061537547968e-05,-0.004979572258889675,-3.124794375253259e-06,1.712360585770512e-06,4.313202225603163e-06,,,,,,
1.531229734,,,,,,,,,,,-4.035435267724097e-05,1,-0.01142465509474277,1,0.03945018351078033,1
1.535120368,0.005,-0.01215205527842045,-0.01942314207553864,-0.9956489205360413,-9.672512533143163e-05,-6.121596379671246e-05,-0.004977794364094734,4.162470759183634e-06,-2.782586534522125e-06,-2.359663312745397e-06,,,,,,
1.536218405,,,,,,,,,,,0.0002100407727994025,1,-0.01209845393896103,1,0.04023250192403793,1
1.540055275,0.005,-0.01237125974148512,-0.01921732909977436,-0.9955220222473145,-9.523146582068875e-05,-6.28061025054194e-05,-0.004977155942469835,-1.392586113979633e-06,-3.24514985550195e-06,-4.699703367805341e-06,,,,,,
1.541202188,,,,,,,,,,,0.002241447102278471,1,-0.0142473541200161,1,0.04147663339972496,1
1.544966936,0.005,-0.01229890994727612,-0.01941135339438915,-0.9956128001213074,-9.836484969127923e-05,-6.111746188253164e-05,-0.00497849378734827,-6.622422461077804e-06,-3.501470018818509e-06,-1.519087732049229e-06,,,,,,
1.546181679,,,,,,,,,,,0.0003541851183399558,1,-0.01355981174856424,1,0.04058654606342316,1
1.549855471,0.005,-0.01237449329346418,-0.01938868686556816,-0.9953269362449646,-9.64446080615744e-05,-6.233231397345662e-05,-0.004974828101694584,9.930168971550302e-07,-3.034714154637186e-06,1.219186742673628e-06,,,,,,
1.551156282,,,,,,,,,,,0.000602235842961818,1,-0.0143141383305192,1,0.04338953271508217,1
1.554721594,0.005,-0.01231704745441675,-0.01947182975709438,-0.9954802989959717,-9.833525837166235e-05,-6.12446601735428e-05,-0.004978080280125141,1.350655111309607e-06,3.488172978904913e-06,4.314322268328397e-06,,,,,,
1.556126714,,,,,,,,,,,-0.0002081177663058043,1,-0.01375086139887571,1,0.04188431799411774,1
1.559567094,0.005,-0.01231678947806358,-0.01947854273021221,-0.9956380724906921,-9.760101966094226e-05,-6.135676812846214e-05,-0.004979181103408337,-5.024387519370066e-06,2.611189700019168e-07,6.99411543791939e-07,,,,,,
1.561092615,,,,,,,,,,,-0.0002782297087833285,1,-0.01376392599195242,1,0.0403376929461956,1
1.564389586,0.005,-0.01200466603040695,-0.01935719884932041,-0.9955781102180481,-9.60235483944416e-05,-5.809235153719783e-05,-0.00497773103415966,-4.036255347728002e-07,-3.598121793402242e-06,-5.888574605705799e-07,,,,,,
1.566053629,,,,,,,,,,,0.00092024338664487,1,-0.01071756798774004,1,0.04092592746019363,1
1.569189429,0.005,-0.01215090975165367,-0.01944604143500328,-0.9955310225486755,-9.82247875072062e-05,-6.15557364653796e-05,-0.004977110307663679,-3.189887820553849e-06,-2.717686811593012e-06,-2.961658083222574e-06,,,,,,
1.571009994,,,,,,,,,,,6.763706915080547e-05,1,-0.01216679066419601,1,0.04138744994997978,1
1.574315310,0.005,-0.01226919610053301,-0.01926318742334843,-0.9957840442657471,-9.523407788947225e-05,-6.180976197356358e-05,-0.004980333149433136,-1.339218584917035e-07,8.341727948391053e-07,-1.588735045743306e-07,,,,,,
1.576048851,,,,,,,,,,,0.001868026563897729,1,-0.01334313210099936,1,0.03890613839030266,1
1.579505205,0.005,-0.01217706594616175,-0.01913667656481266,-0.9958195090293884,-9.500722080701962e-05,-6.016068800818175e-05,-0.004979360848665237,4.173577508481685e-06,-3.37972528541286e-06,-6.725231855853053e-07,,,,,,
1.581083417,,,,,,,,,,,0.003118521999567747,1,-0.01243185717612505,1,0.03855793550610542,1
1.584670424,0.005,-0.0123020438477397,-0.01927885413169861,-0.9958553910255432,-9.708858851809055e-05,-6.230686994967982e-05,-0.00497945211827755,-8.398915838370158e-07,-9.45427871101856e-07,1.795848106667108e-06,,,,,,
1.586112976,,,,,,,,,,,0.001742973807267845,1,-0.0136512229219079,1,0.03820594400167465,1
1.589810967,0.005,-0.01245740428566933,-0.01938091963529587,-0.9955746531486511,-9.72544148680754e-05,-6.301517714746296e-05,-0.004975942894816399,-3.192185204170528e-06,-1.184157554234844e-06,9.743836670850214e-08,,,,,,
1.591137528,,,,,,,,,,,0.0007532445597462356,1,-0.01517712045460939,1,0.04095857217907906,1
1.594927073,0.005,-0.01225725561380386,-0.01943464204668999,-0.9950987100601196,-9.732208854984492e-05,-6.022223169566132e-05,-0.004972586408257484,1.14994566047244e-06,-5.024558618060837e-07,-2.940781769211753e-06,,,,,,
1.596157432,,,,,,,,,,,0.0002363851526752114,1,-0.01321585569530725,1,0.04562532529234886,1
1.600017667,0.005,-0.01223515719175339,-0.01924607716500759,-0.9954137206077576,-9.515169949736446e-05,-6.099742313381284e-05,-0.004978883545845747,-3.767742555282894e-06,9.025001759255247e-07,-3.56539430867997e-06,,,,,,
1.601172447,,,,,,,,,,,0.00208372576162219,1,-0.01301198173314333,1,0.04253659769892693,1
1.605084181,0.005,-0.01227476634085178,-0.01936771534383297,-0.9955552816390991,-9.714841871755198e-05,-6.171008863020688e-05,-0.004978975281119347,-1.515376425231807e-06,-1.344175871054176e-06,6.208990726008778e-07,,,,,,
1.606182933,,,,,,,,,,,0.0008918876410461962,1,-0.01340912841260433,1,0.04114878922700882,1
1.610126138,0.005,-0.01193534210324287,-0.01958555728197098,-0.9956746101379395,-9.96209419099614e-05,-5.781430081697181e-05,-0.004979460965842009,-5.983015853416873e-06,-1.431109922123142e-06,2.406095518381335e-06,,,,,,
1.611188173,,,,,,,,,,,-0.001233263988979161,1,-0.01011032983660698,1,0.03997869044542313,1
1.615142941,0.005,-0.01184898614883423,-0.01943211257457733,-0.9957485198974609,-9.616753959562629e-05,-5.859007433173247e-05,-0.004979267250746489,-5.496174708241597e-06,-8.947292258199013e-07,-2.752313093878911e-06,,,,,,
1.616188645,,,,,,,,,,,0.0002810313308145851,1,-0.009299787692725658,1,0.03925425931811333,1
1.620136142,0.005,-0.01177162770181894,-0.01914709806442261,-0.995577335357666,-9.392554056830704e-05,-5.820798833156005e-05,-0.00497677456587553,-3.012715524164378e-06,-1.812076448004518e-06,-1.749133275552595e-06,,,,,,
1.621184230,,,,,,,,,,,0.003084855852648616,1,-0.008582515642046928,1,0.04093305766582489,1
1.625104427,0.005,-0.01165844779461622,-0.01909536495804787,-0.9955165386199951,-9.508583025308326e-05,-5.750707350671291e-05,-0.00497716385871172,-3.898696377291344e-06,6.598730237783457e-07,-7.418979066642351e-07,,,,,,
1.626174927,,,,,,,,,,,0.003597403410822153,1,-0.007504863664507866,1,0.04152963310480118,1
1.630048990,0.005,-0.01188825350254774,-0.01926232688128948,-0.9958230257034302,-9.742772090248764e-05,-6.065034540370107e-05,-0.00498118344694376,-4.444092951416678e-07,-4.652950167383096e-07,3.899097919202177e-06,,,,,,
1.631160855,,,,,,,,,,,0.001960251247510314,1,-0.009781398810446262,1,0.03852405026555061,1
1.634970665,0.005,-0.01174607686698437,-0.01943742297589779,-0.995514988899231,-9.81467092060484e-05,-5.800192229798995e-05,-0.004975596442818642,1.878027319435205e-06,1.781711148396425e-06,1.904227815430204e-06,,,,,,
1.636142135,,,,,,,,,,,0.0002416956704109907,1,-0.008396699093282223,1,0.04154502600431442,1
1.639868617,0.005,-0.0118404608219862,-0.01957731135189533,-0.9955489039421082,-9.896197298076004e-05,-6.02135005465243e-05,-0.004977686330676079,3.330613367324986e-07,1.149444415204925e-07,1.366477022202162e-06,,,,,,
1.641118407,,,,,,,,,,,-0.001136172912083566,1,-0.009321941062808037,1,0.0412127673625946,1
1.644749880,0.005,-0.01165497768670321,-0.01955424807965755,-0.9952600598335266,-9.75006987573579e-05,-5.658249938278459e-05,-0.004974458366632462,-5.56854911337723e-06,-4.038433417008491e-06,-2.64101663560723e-06,,,,,,
1.646093845,,,,,,,,,,,-0.0009028923232108355,1,-0.00752000417560339,1,0.04404546692967415,1
1.649619460,0.005,-0.01201616879552603,-0.01942664943635464,-0.9952368140220642,-9.66862789937295e-05,-6.203531665960327e-05,-0.004976117983460426,-4.768053258885629e-06,-1.276377929571026e-06,-2.058370682789246e-06,,,,,,
1.651064634,,,,,,,,,,,0.0003615377354435623,1,-0.01108978223055601,1,0.04427342116832733,1
1.654466510,0.005,-0.01191251911222935,-0.01933041401207447,-0.9957279562950134,-9.58185046329163e-05,-5.907105514779687e-05,-0.004981866106390953,-8.772791488809162e-07,3.89511342291371e-06,2.802205756324838e-07,,,,,,
1.656030774,,,,,,,,,,,0.001296657137572765,1,-0.0100998543202877,1,0.0394572988152504,1
1.659291863,0.005,-0.01193429064005613,-0.01922710053622723,-0.99571692943573,-9.519733430352062e-05,-5.967453034827486e-05,-0.004978389944881201,-5.233586364283838e-08,-2.036230625890312e-06,1.619422732801468e-06,,,,,,
1.660992265,,,,,,,,,,,0.002304637571796775,1,-0.01032533217221498,1,0.0395655520260334,1
1.664094687,0.005,-0.01186228357255459,-0.0194243136793375,-0.9952540397644043,-9.83834033831954e-05,-5.90932322666049e-05,-0.004973254166543484,-4.302818524593022e-06,-2.972674792545149e-06,9.276695891458075e-07,,,,,,
1.665949225,,,,,,,,,,,0.0003799830155912787,1,-0.009637005627155304,1,0.04410590603947639,1
1.669223905,0.005,-0.01173128467053175,-0.01912150718271732,-0.9953191876411438,-9.359278919873759e-05,-5.800510916742496e-05,-0.004976537544280291,3.010769205502584e-06,-1.585284962857259e-06,-1.323212472925661e-06,,,,,,
1.670988798,,,,,,,,,,,0.003363126423209906,1,-0.008359869942069054,1,0.04346648976206779,1
1.674416184,0.005,-0.01198068913072348,-0.01911371201276779,-0.9955700039863586,-9.577359014656395e-05,-6.13632655586116e-05,-0.00497923418879509,1.535416629394604e-07,-1.61671516707429e-06,-2.456108177284477e-06,,,,,,
1.676024079,,,,,,,,,,,0.003457057755440474,1,-0.01080232206732035,1,0.04100624099373817,1
1.679585338,0.005,-0.01229333132505417,-0.01926782354712486,-0.9955011606216431,-9.748328011482954e-05,-6.35316246189177e-05,-0.00497681088745594,1.430430984328268e-06,4.209578492009314e-06,1.706017201286159e-06,,,,,,
1.681054473,,,,,,,,,,,0.001938884961418808,1,-0.01386259775608778,1,0.04168076068162918,1
1.684730887,0.005,-0.01206428091973066,-0.01929775811731815,-0.9955116510391235,-9.69671382335946e-05,-5.921766569372267e-05,-0.004977548494935036,-5.667528512276476e-06,-6.036718787072459e-06,4.811694793716015e-07,,,,,,
1.686080217,,,,,,,,,,,0.001649054931476712,1,-0.01162583380937576,1,0.04157830402255058,1
1.689852118,0.005,-0.01187729928642511,-0.01921979710459709,-0.9957185387611389,-9.539727761875838e-05,-5.802024315926246e-05,-0.004979971796274185,-1.561257818138984e-06,-5.97049211137346e-06,-1.62614389864757e-06,,,,,,
1.691101432,,,,,,,,,,,0.002448849147185683,1,-0.009811067022383213,1,0.03954864293336868,1
1.694949627,0.005,-0.01207268051803112,-0.01939938217401505,-0.99581378698349,-9.832344949245453e-05,-6.16766992607154e-05,-0.004979793448001146,1.313780899181438e-06,-6.524585842271335e-06,2.207688112321193e-06,,,,,,
1.696117997,,,,,,,,,,,0.0007282650331035256,1,-0.01168911438435316,1,0.03861340135335922,1
1.700028181,0.005,-0.0121764000505209,-0.01952638290822506,-0.9957682490348816,-9.841543214861304e-05,-6.120958278188482e-05,-0.004978608340024948,-7.277768077074143e-07,-9.127186331170378e-07,1.181111429104931e-06,,,,,,
1.701130748,,,,,,,,,,,-0.0004833500715903938,1,-0.01267813146114349,1,0.03905970230698586,1
1.705082655,0.005,-0.01218302547931671,-0.01957460306584835,-0.9957988262176514,-9.796473023016006e-05,-6.0868842410855e-05,-0.004979408346116543,1.927405719470698e-06,-6.62491004277399e-07,-2.197032472395222e-06,,,,,,
1.706138611,,,,,,,,,,,-0.0009308422449976206,1,-0.01272064074873924,1,0.03875869140028954,1
1.710113525,0.005,-0.01207500044256449,-0.01958034560084343,-0.9957756996154785,-9.792213677428663e-05,-6.005711838952266e-05,-0.004978798795491457,-3.344775905134156e-06,1.880781269392173e-06,-1.084670657292008e-06,,,,,,
1.711142182,,,,,,,,,,,-0.0009771729819476604,1,-0.0116572268307209,1,0.03898467123508453,1
1.715120912,0.005,-0.0121068237349391,-0.01953011192381382,-0.9958180785179138,-9.757142106536776e-05,-6.107682565925643e-05,-0.004979336634278297,-6.806919827795355e-07,6.04748174737324e-06,1.522196271253051e-06,,,,,,
1.716140747,,,,,,,,,,,-0.0005036982474848628,1,-0.01197273191064596,1,0.03857017308473587,1
1.720104218,0.005,-0.01236651744693518,-0.01925317943096161,-0.9957262277603149,-9.490436059422791e-05,-6.339399988064542e-05,-0.00497828982770443,-4.325228019297356e-06,3.607829512475291e-06,-3.424769602133892e-06,,,,,,
1.721134543,,,,,,,,,,,0.002178269205614924,1,-0.01453509461134672,1,0.03947130218148232,1
1.725064993,0.005,-0.01232300791889429,-0.01928120292723179,-0.9958570003509521,-9.640145435696468e-05,-6.141952326288447e-05,-0.00497998995706439,-4.172103444943787e-07,-4.539219276011863e-07,1.119115950132255e-06,,,,,,
1.726123810,,,,,,,,,,,0.001875192043371499,1,-0.01412227656692266,1,0.03818938136100769,1
1.730002642,0.005,-0.01225456036627293,-0.01931555196642876,-0.9957804679870605,-9.670040162745863e-05,-6.108962406869978e-05,-0.004978516604751348,7.905236998340115e-07,-3.622966460170574e-06,-3.677796485135332e-07,,,,,,
1.731108308,,,,,,,,,,,0.001542050042189658,1,-0.01345254387706518,1,0.03894020244479179,1
1.734916568,0.005,-0.01229208428412676,-0.0194706916809082,-0.9955751895904541,-9.775559010449797e-05,-6.195641617523506e-05,-0.004976833704859018,-2.261655026813969e-06,2.598450464574853e-06,-7.449234544765204e-07,,,,,,
1.736088037,,,,,,,,,,,1.654995139688253e-05,1,-0.01383042614907026,1,0.04095395654439926,1
1.739807248,0.005,-0.01208653021603823,-0.01949941739439964,-0.9954543113708496,-9.795261576073244e-05,-5.893992056371644e-05,-0.004976561758667231,1.051196136359067e-06,4.526468728727195e-06,1.283961182707571e-06,,,,,,
1.741063118,,,,,,,,,,,-0.0002884445711970329,1,-0.01181769836694002,1,0.0421396978199482,1
1.744674802,0.005,-0.01190899685025215,-0.01947890594601631,-0.9957395195960999,-9.760204557096586e-05,-5.839710138388909e-05,-0.004980417899787426,-3.864012342091883e-06,-6.060112809791462e-06,1.927872972373734e-06,,,,,,
1.746033430,,,,,,,,,,,-8.828600402921438e-05,1,-0.01008975505828857,1,0.03934274613857269,1
1.749519587,0.005,-0.01197004970163107,-0.01948549039661884,-0.995638906955719,-9.700501686893404e-05,-5.975428575766273e-05,-0.004977860953658819,-2.327015863556881e-06,2.075830025205505e-06,6.32465173566743e-07,,,,,,
1.750999570,,,,,,,,,,,-0.0001538362703286111,1,-0.01069832686334848,1,0.04032951593399048,1
1.754342914,0.005,-0.01209026575088501,-0.01934957504272461,-0.9955528378486633,-9.635189780965447e-05,-6.117003067629412e-05,-0.004977372009307146,-1.01007606190251e-06,-2.643673155944271e-07,1.810351704989444e-06,,,,,,
1.755960822,,,,,,,,,,,0.001176164369098842,1,-0.01189193315804005,1,0.04117410629987717,1
1.759143472,0.005,-0.01204655971378088,-0.01923247985541821,-0.9955365657806396,-9.564370702719316e-05,-5.994331149850041e-05,-0.004977359436452389,1.089322836378415e-06,5.083541509520728e-06,-2.204272959716036e-07,,,,,,
1.760917544,,,,,,,,,,,0.002306509530171752,1,-0.0114729655906558,1,0.04133367910981178,1
1.764184594,0.005,-0.01218548696488142,-0.01921331323683262,-0.9955234527587891,-9.614668670110404e-05,-6.170892447698861e-05,-0.004977384582161903,-1.412672361311706e-07,2.046123057652949e-07,6.799162974857609e-07,,,,,,
1.765957117,,,,,,,,,,,0.002482341835275292,1,-0.01283550169318914,1,0.0414627306163311,1
1.769376278,0.005,-0.01213453710079193,-0.01920447871088982,-0.9956711530685425,-9.568096720613539e-05,-6.05328350502532e-05,-0.004979142919182777,-1.11827637283568e-06,-4.415000603330554e-06,6.011444497744378e-07,,,,,,
1.770992160,,,,,,,,,,,0.002570410259068012,1,-0.01233995240181684,1,0.04001391306519508,1
1.774544120,0.005,-0.0119762234389782,-0.01916537247598171,-0.9955870509147644,-9.558545571053401e-05,-5.905293073737994e-05,-0.004977868869900703,5.209543019191187e-07,-2.177939393277484e-07,-8.811992984192329e-07,,,,,,
1.776022553,,,,,,,,,,,0.002960095647722483,1,-0.01079078111797571,1,0.04083875939249992,1
1.779689431,0.005,-0.01208115927875042,-0.01939596049487591,-0.995535135269165,-9.85386868705973e-05,-6.098992889747024e-05,-0.004977117292582989,-1.530516897219059e-06,1.381508468512038e-06,1.557840846544423e-06,,,,,,
1.781048536,,,,,,,,,,,0.0006982235936447978,1,-0.01181626319885254,1,0.04134809225797653,1
1.784811258,0.005,-0.01219161972403526,-0.01953869685530663,-0.9953539371490479,-9.823117579799145e-05,-6.145499355625361e-05,-0.004975816234946251,-1.517850364507467e-06,-5.503210559254512e-06,-2.949681856989628e-06,,,,,,
1.786069751,,,,,,,,,,,-0.0006913041579537094,1,-0.01290901191532612,1,0.04312494397163391,1
1.789909482,0.005,-0.01212692074477673,-0.01948981173336506,-0.995490550994873,-9.727458382258192e-05,-6.039394793333486e-05,-0.004978451412171125,-6.793444526920212e-07,-7.847179972486629e-07,-1.178971615445334e-06,,,,,,
1.791087151,,,,,,,,,,,-0.0001947502023540437,1,-0.01228507328778505,1,0.04178454726934433,1
1.794987321,0.005,-0.01209165155887604,-0.01923142932355404,-0.9955074191093445,-9.437678090762347e-05,-5.983598020975478e-05,-0.004977621138095856,-2.226729293397511e-06,8.023226882869494e-07,-1.059434566741402e-06,,,,,,
1.796099782,,,,,,,,,,,0.002348507987335324,1,-0.01194638013839722,1,0.04161913320422173,1
1.800040722,0.005,-0.01176671963185072,-0.01922215521335602,-0.9952999353408813,-9.640616190154105e-05,-5.734156002290547e-05,-0.004975376185029745,-3.505508857415407e-06,4.208985046716407e-06,-3.894365363521501e-06,,,,,,
1.801107764,,,,,,,,,,,0.00242192461155355,1,-0.008778502233326435,1,0.04365373775362968,1
1.805070639,0.005,-0.0117678064852953,-0.01935042813420296,-0.9952057600021362,-9.721431706566364e-05,-5.855826020706445e-05,-0.004975096322596073,-7.914658226582105e-07,-3.207216650480404e-06,-2.061069380943081e-06,,,,,,
1.806110740,,,,,,,,,,,0.001165594439953566,1,-0.008806904777884483,1,0.04457802698016167,1
1.810075641,0.005,-0.01177287939935923,-0.0194459892809391,-0.9956358671188354,-9.780918480828404e-05,-5.877756484551355e-05,-0.004980795085430145,4.033071036246838e-06,2.020294914473197e-06,9.773046372174576e-08,,,,,,
1.811108828,,,,,,,,,,,0.0002231171529274434,1,-0.008853727020323277,1,0.04036024585366249,1
1.815056682,0.005,-0.01183206401765347,-0.01934751495718956,-0.995522677898407,-9.631237480789423e-05,-5.933699139859527e-05,-0.004976601339876652,2.349408305235556e-06,1.423854882887099e-06,1.057072381627222e-06,,,,,,
1.816102147,,,,,,,,,,,0.001177362166345119,1,-0.009415930137038231,1,0.04146997258067131,1
1.820013881,0.005,-0.01205258909612894,-0.01948507875204086,-0.9955161809921265,-9.841219434747472e-05,-6.130979454610497e-05,-0.004977984353899956,-1.612112441762292e-06,-1.074281158253143e-06,-1.370560312352609e-06,,,,,,
1.821090579,,,,,,,,,,,-0.0001710456563159823,1,-0.01156805083155632,1,0.04153389856219292,1
1.824946642,0.005,-0.01218219753354788,-0.01953086070716381,-0.9955993294715881,-9.760523244040087e-05,-6.155982555355877e-05,-0.004978581331670284,-1.744558403515839e-06,4.336622794198774e-07,3.878324605466332e-06,,,,,,
1.826074362,,,,,,,,,,,-0.0006272877799347043,1,-0.01283569540828466,1,0.0407186932861805,1
1.829856038,0.005,-0.0119544742628932,-0.01958244480192661,-0.9954520463943481,-9.823415894061327e-05,-5.858971053385176e-05,-0.004975926131010056,-5.74474051973084e-06,1.420354237779975e-06,1.758082362357527e-06,,,,,,
1.831053019,,,,,,,,,,,-0.001142052002251148,1,-0.01062528695911169,1,0.04216350242495537,1
1.834740758,0.005,-0.01187361683696508,-0.01955286227166653,-0.9954971671104431,-9.762223635334522e-05,-5.876795330550522e-05,-0.00497825164347887,6.765097282368515e-07,-3.306312464701477e-06,-1.304011192360122e-07,,,,,,
1.836027145,,,,,,,,,,,-0.0008503780118189752,1,-0.009848944842815399,1,0.04172173514962196,1
1.839602470,0.005,-0.01200898271054029,-0.01965930871665478,-0.9954856038093567,-9.891402442008257e-05,-6.087023939471692e-05,-0.004976837430149317,4.354477368906373e-06,-1.840891741267114e-06,-6.777368071197998e-07,,,,,,
1.840996146,,,,,,,,,,,-0.00188539712689817,1,-0.01116679608821869,1,0.04183478653430939,1
1.844440579,0.005,-0.01209423318505287,-0.01971862651407719,-0.9954197406768799,-9.878419950837269e-05,-6.115502765169367e-05,-0.004976618103682995,-5.359727310860762e-06,-7.081829380695126e-07,-6.56411430099979e-07,,,,,,
1.845960736,,,,,,,,,,,-0.002458658069372177,1,-0.01201127842068672,1,0.0424802377820015,1
1.849256396,0.005,-0.01202252600342035,-0.01954528503119946,-0.9952451586723328,-9.688038699096069e-05,-5.97495527472347e-05,-0.004974706564098597,-1.991356839425862e-07,1.351725359199918e-06,-3.408927966574993e-07,,,,,,
1.850920200,,,,,,,,,,,-0.0007536533521488309,1,-0.01131000556051731,1,0.04419239982962608,1
1.854048252,0.005,-0.01199330855160952,-0.01930666901171207,-0.9955142736434937,-9.520235471427441e-05,-5.949395563220605e-05,-0.004979081451892853,-3.208855105185648e-06,-1.331524970282771e-07,-7.535375345923967e-08,,,,,,
1.855875015,,,,,,,,,,,0.001578643452376127,1,-0.01103792991489172,1,0.04155348986387253,1
1.858998537,0.005,-0.01199529133737087,-0.01942163147032261,-0.995338499546051,-9.743383998284116e-05,-6.009404023643583e-05,-0.004975555464625359,-7.885250852268655e-06,2.951334636236425e-06,1.401107738274732e-06,,,,,,
1.860915661,,,,,,,,,,,0.0004422852653078735,1,-0.01109796296805143,1,0.04327826201915741,1
1.864196897,0.005,-0.01195044815540314,-0.01953705213963985,-0.9954966306686401,-9.862206934485584e-05,-5.967821198282763e-05,-0.004978379234671593,3.220034386686166e-06,2.232308133898186e-06,8.110700377983449e-07,,,,,,
1.865951777,,,,,,,,,,,-0.0007082542288117111,1,-0.01067861914634705,1,0.04172802716493607,1
1.869371891,0.005,-0.01187838427722454,-0.01932328566908836,-0.9954398274421692,-9.526060603093356e-05,-5.891350156161934e-05,-0.004976942203938961,-9.277798653783975e-07,-1.991999852180015e-06,-2.234116891486337e-06,,,,,,
1.870983124,,,,,,,,,,,0.001377654960379004,1,-0.009982595220208168,1,0.04228536412119865,1
1.874522090,0.005,-0.01179843489080667,-0.01935874111950397,-0.9953286647796631,-9.702399984234944e-05,-5.860851524630561e-05,-0.004975962452590466,-2.405679651928949e-06,-6.198071105245617e-07,1.155419113274547e-06,,,,,,
1.876009941,,,,,,,,,,,0.001028914353810251,1,-0.009208252653479576,1,0.04337518289685249,1
1.879647970,0.005,-0.0119758527725935,-0.01954093389213085,-0.9954192638397217,-9.870214853435755e-05,-6.115315773058683e-05,-0.004977653734385967,3.745333287952235e-06,-1.481544359194231e-06,6.954455216146016e-07,,,,,,
1.881032228,,,,,,,,,,,-0.0007557485369034111,1,-0.01094297599047422,1,0.04248685762286186,1
1.884750128,0.005,-0.01209050882607698,-0.01962552778422832,-0.9952844381332397,-9.887344640446827e-05,-6.090222450438887e-05,-0.004975935909897089,-3.280572855146602e-06,-2.714462198127876e-06,8.767846111368272e-07,,,,,,
1.886049509,,,,,,,,,,,-0.001570405787788332,1,-0.01207336597144604,1,0.04380873218178749,1
1.889829159,0.005,-0.01194889936596155,-0.01955019496381283,-0.9955306053161621,-9.736062202136964e-05,-5.882356708752923e-05,-0.004978894256055355,4.459827778191539e-06,-4.701469720203022e-07,1.748201270856953e-06,,,,,,
1.891062260,,,,,,,,,,,-0.0008230576058849692,1,-0.01067524682730436,1,0.04139440879225731,1
