Time,inertial-6286.188861:timeInfo_deltaTime_ahrsImu,inertial-6286.188861:scaledAccelY,inertial-6286.188861:scaledAccelX,inertial-6286.188861:scaledAccelZ,inertial-6286.188861:deltaVelX,inertial-6286.188861:deltaVelY,inertial-6286.188861:deltaVelZ,inertial-6286.188861:deltaThetaX,inertial-6286.188861:deltaThetaY,inertial-6286.188861:deltaThetaZ,inertial-6286.188861:estLinearAccelX,inertial-6286.188861:estLinearAccelX:valid,inertial-6286.188861:estLinearAccelY,inertial-6286.188861:estLinearAccelY:valid,inertial-6286.188861:estLinearAccelZ,inertial-6286.188861:estLinearAccelZ:valid
0.000000000,0.005,-0.002944009378552437,-0.01937773451209068,-0.9958348274230957,-9.775203216122463e-05,-1.26192990137497e-05,-0.004977412056177855,1.445722887183365e-06,-2.038374759649741e-06,-1.274725832445256e-06,,,,,,
0.001532160,,,,,,,,,,,0.007648032158613205,1,0.006311153993010521,1,0.03879038244485855,1
0.004990976,0.005,-0.003005670150741935,-0.01946618221700191,-0.9955370426177979,-9.801833220990375e-05,-1.542923200759105e-05,-0.004975780844688416,5.375542855290405e-07,5.575146815317567e-07,-5.56882605451392e-06,,,,,,
0.006527232,,,,,,,,,,,0.006787270773202181,1,0.005719519220292568,1,0.04171087220311165,1
0.009958656,0.005,-0.003031677799299359,-0.01952630281448364,-0.9953445196151733,-9.823126310948282e-05,-1.534561306471005e-05,-0.004975453019142151,3.173663287725503e-07,4.483839802560396e-06,-5.257923589851998e-07,,,,,,
0.011517184,,,,,,,,,,,0.006181319709867239,1,0.005476734600961208,1,0.04359886050224304,1
0.014901504,0.005,-0.002940044505521655,-0.01984960399568081,-0.9955580234527588,-0.0001012466382235289,-1.403520036546979e-05,-0.004979165270924568,-5.952336778136669e-06,-5.661076102114748e-06,-8.871944032762258e-07,,,,,,
0.016502528,,,,,,,,,,,0.003010020824149251,1,0.006368968170136213,1,0.04150549322366714,1
0.019820800,0.005,-0.003010079963132739,-0.02008635364472866,-0.9959750175476074,-0.0001018939146888442,-1.568611332913861e-05,-0.004982479847967625,-1.817676320570172e-06,6.23030359747645e-07,-4.932787760481006e-07,,,,,,
0.021482753,,,,,,,,,,,0.0006948138470761478,1,0.005668145604431629,1,0.03741512447595596,1
0.024716288,0.005,-0.002955668605864048,-0.02034434676170349,-0.9958731532096863,-0.0001033008738886565,-1.393488491885364e-05,-0.00497894873842597,-6.698051606690569e-07,1.423415142198792e-06,1.869786160568765e-06,,,,,,
0.026459647,,,,,,,,,,,-0.001829818356782198,1,0.006186442915350199,1,0.03841399028897285,1
0.029594624,0.005,-0.002707647392526269,-0.02046606875956059,-0.9955820441246033,-0.0001030518105835654,-1.234225510415854e-05,-0.004976192954927683,1.664261048972548e-06,-1.375721808472008e-06,9.378309755447845e-07,,,,,,
0.031431679,,,,,,,,,,,-0.003030793508514762,1,0.008625139482319355,1,0.04126894101500511,1
0.034449663,0.005,-0.002907846355810761,-0.02025741897523403,-0.9956948757171631,-0.0001001391719910316,-1.558390795253217e-05,-0.00497919786721468,-3.652761051853304e-06,2.925761918959324e-06,-1.461800707147631e-07,,,,,,
0.036398847,,,,,,,,,,,-0.0009897793643176556,1,0.006657617166638374,1,0.04016236960887909,1
0.039281920,0.005,-0.002891837852075696,-0.02017729543149471,-0.995567798614502,-0.0001002599456114694,-1.456313930248143e-05,-0.00497676944360137,-1.223755475621147e-06,-3.489594064376433e-06,2.951480837509735e-07,,,,,,
0.041361153,,,,,,,,,,,-0.0002112181100528687,1,0.006802836898714304,1,0.04140907153487206,1
0.044091135,0.005,-0.003014322835952044,-0.0201832689344883,-0.9958657622337341,-0.0001008815306704491,-1.59433238877682e-05,-0.004980751313269138,9.47736751299999e-08,-3.665758413262665e-06,5.116779448144371e-06,,,,,,
0.046318848,,,,,,,,,,,-0.0002556695253588259,1,0.005599119700491428,1,0.03848715499043465,1
0.048876289,0.005,-0.003313574707135558,-0.02032182924449444,-0.9956017136573792,-0.0001026791505864821,-1.858190080383793e-05,-0.00497685931622982,-1.962235728569794e-06,-4.432762125361478e-06,4.44213037553709e-06,,,,,,
0.051362302,,,,,,,,,,,-0.001584137673489749,1,0.002662981161847711,1,0.04107671603560448,1
0.054091264,0.005,-0.003684115596115589,-0.01991498470306396,-0.9956448078155518,-9.696208871901035e-05,-2.070746631943621e-05,-0.004977981559932232,1.99241026166419e-06,-5.643743861583062e-06,1.79204232608754e-06,,,,,,
0.056401152,,,,,,,,,,,0.00243871589191258,1,-0.0009689605794847012,1,0.04065318405628204,1
0.059283201,0.005,-0.004045049659907818,-0.01985351368784904,-0.9958376884460449,-9.891128866001964e-05,-2.243946801172569e-05,-0.004980766214430332,2.250527359137777e-06,2.803190284339507e-07,1.599378549599351e-07,,,,,,
0.061435390,,,,,,,,,,,0.00306776724755764,1,-0.004495604895055294,1,0.03876032307744026,1
0.064451069,0.005,-0.004213915672153234,-0.01968438923358917,-0.9953421354293823,-9.720681555336341e-05,-2.194102489738725e-05,-0.004973571747541428,2.010561502174824e-06,-3.911505700671114e-06,5.111739938001847e-06,,,,,,
0.066465281,,,,,,,,,,,0.004747248720377684,1,-0.006127174478024244,1,0.04361891746520996,1
0.069595136,0.005,-0.004347439855337143,-0.01966683752834797,-0.9954972863197327,-9.807722381083295e-05,-2.249165845569223e-05,-0.004978976212441921,1.367461777590506e-06,-2.608838485684828e-06,-4.279013410268817e-06,,,,,,
0.071490563,,,,,,,,,,,0.004947447218000889,1,-0.007416229695081711,1,0.04209716245532036,1
0.074715137,0.005,-0.00458176014944911,-0.01958791725337505,-0.9956681728363037,-9.733426850289106e-05,-2.427584695396945e-05,-0.004978877492249012,-1.646349460315832e-06,1.555210815240571e-06,9.789183650354971e-07,,,,,,
0.076510973,,,,,,,,,,,0.005729880183935165,1,-0.009709273464977741,1,0.04042148590087891,1
0.079812609,0.005,-0.004730271641165018,-0.01960864663124084,-0.9959497451782227,-9.83965874183923e-05,-2.463464988977648e-05,-0.004981937818229198,2.505226348148426e-06,-5.542587132367771e-06,-2.215455651821685e-06,,,,,,
0.081527293,,,,,,,,,,,0.005547221284359694,1,-0.01115032657980919,1,0.0376589410007,1
0.084887810,0.005,-0.005053414963185787,-0.01957126520574093,-0.9959414005279541,-9.75036746240221e-05,-2.675036193977576e-05,-0.004979848396033049,2.030110408668406e-06,-2.340576884307666e-06,3.268904720243881e-06,,,,,,
0.086538754,,,,,,,,,,,0.005940870381891727,1,-0.01430175639688969,1,0.03774029389023781,1
0.089939967,0.005,-0.005336745176464319,-0.01947270333766937,-0.995794951915741,-9.678957576397806e-05,-2.900577237596735e-05,-0.004977964330464602,3.927872512576869e-06,-3.376567292434629e-06,2.307839849891025e-06,,,,,,
0.091545857,,,,,,,,,,,0.006931060459464788,1,-0.01704907231032848,1,0.03917607292532921,1
0.094968319,0.005,-0.005538128316402435,-0.01937298849225044,-0.9956871867179871,-9.622203651815653e-05,-2.886937181756366e-05,-0.004977450706064701,-3.994618396063743e-07,3.158575054840185e-06,6.019454303896055e-07,,,,,,
0.096548095,,,,,,,,,,,0.007868902757763863,1,-0.01900808699429035,1,0.04023328423500061,1
0.099972866,0.005,-0.005359307862818241,-0.01934309862554073,-0.9955555200576782,-9.612458234187216e-05,-2.569672869867645e-05,-0.004976890049874783,-1.632309363230888e-06,-2.279886786027419e-07,1.473789552619564e-06,,,,,,
0.101545475,,,,,,,,,,,0.008135717362165451,1,-0.01725387200713158,1,0.04152540490031242,1
0.104954623,0.005,-0.005347235593944788,-0.01947891525924206,-0.9961701631546021,-9.827026951825246e-05,-2.688549102458637e-05,-0.004984615836292505,-8.271621823041642e-07,-6.508951173600508e-06,-3.525234660628485e-06,,,,,,
0.106538497,,,,,,,,,,,0.006803540512919426,1,-0.01713644154369831,1,0.03549768403172493,1
0.109913856,0.005,-0.005145843606442213,-0.01925050467252731,-0.9959086179733276,-9.521171159576625e-05,-2.442454933770932e-05,-0.004978298675268888,3.093588929914404e-06,9.478370088800148e-07,-2.477528369126958e-06,,,,,,
0.111526914,,,,,,,,,,,0.009046786464750767,1,-0.01515151746571064,1,0.03806294128298759,1
0.114849538,0.005,-0.0049579874612391,-0.01912795752286911,-0.9955766201019287,-9.539629536448047e-05,-2.384246727160644e-05,-0.004975851625204086,-1.042236931425577e-06,-4.635487130144611e-06,3.216394816263346e-06,,,,,,
0.116510719,,,,,,,,,,,0.01026272214949131,1,-0.0132993096485734,1,0.04131853207945824,1
0.119762175,0.005,-0.004560267552733421,-0.01923405379056931,-0.995826780796051,-9.612254507374018e-05,-2.017752194660716e-05,-0.004980437457561493,1.532510168544832e-06,-2.213417246821336e-06,1.211024937219918e-06,,,,,,
0.121489666,,,,,,,,,,,0.009236556477844715,1,-0.00938840489834547,1,0.03886454924941063,1
0.124651775,0.005,-0.004230683203786612,-0.0194210410118103,-0.9958477020263672,-9.820707055041566e-05,-1.939627873071004e-05,-0.004979643970727921,-1.637093646422727e-06,2.461099938955158e-06,-2.658329776750179e-06,,,,,,
0.126463994,,,,,,,,,,,0.007410542573779821,1,-0.006148652173578739,1,0.03865950927138329,1
0.129518330,0.005,-0.003863511374220252,-0.01947540603578091,-0.995596170425415,-9.78390162345022e-05,-1.64850389410276e-05,-0.004976376425474882,-1.72944373844075e-06,1.601442477294768e-06,1.69885026934935e-07,,,,,,
0.131433725,,,,,,,,,,,0.006868716794997454,1,-0.002549928845837712,1,0.04112666472792625,1
0.134365186,0.005,-0.003443798050284386,-0.01951024681329727,-0.9951554536819458,-9.777244849829003e-05,-1.454250741517171e-05,-0.004973344970494509,-2.787288622130291e-06,-3.287223080405965e-06,1.023945287670358e-06,,,,,,
0.136399359,,,,,,,,,,,0.00652855820953846,1,0.001557881245389581,1,0.04544859379529953,1
0.139189243,0.005,-0.003358919871971011,-0.01967655867338181,-0.9950233101844788,-9.935271373251453e-05,-1.610765866644215e-05,-0.00497397780418396,-7.597635885758791e-06,5.041577878728276e-06,-2.355667220399482e-06,,,,,,
0.141360387,,,,,,,,,,,0.004891856573522091,1,0.002366011030972004,1,0.0467437356710434,1
0.143990278,0.005,-0.00348186306655407,-0.01969280280172825,-0.9950200319290161,-9.866677282843739e-05,-1.798223456717096e-05,-0.004975030198693275,-2.582309662102489e-06,1.758418761710345e-06,-3.966723852499854e-06,,,,,,
0.146404102,,,,,,,,,,,0.004709367640316486,1,0.00112940720282495,1,0.0467766672372818,1
0.149206787,0.005,-0.003137534717097878,-0.0197258498519659,-0.9955266714096069,-9.866026812233031e-05,-1.410792719980236e-05,-0.0049805105663836,-5.55805456770031e-07,3.351604391355067e-06,2.868674755518441e-06,,,,,,
0.151443198,,,,,,,,,,,0.004359905607998371,1,0.004485834389925003,1,0.04180888459086418,1
0.154398203,0.005,-0.002889874624088407,-0.01958594657480717,-0.995424747467041,-9.706744458526373e-05,-1.290111322305165e-05,-0.004976825788617134,-1.509791900389246e-06,-1.230534678597905e-07,6.164338628877886e-06,,,,,,
0.156477436,,,,,,,,,,,0.0057096634991467,1,0.00690342066809535,1,0.04280944913625717,1
0.159565568,0.005,-0.003109631594270468,-0.0197709109634161,-0.9956302046775818,-0.0001001101263682358,-1.665274248807691e-05,-0.004979370627552271,-5.632694410451222e-06,-2.555559035499755e-07,2.794904503389262e-06,,,,,,
0.161507070,,,,,,,,,,,0.003883227007463574,1,0.004719811957329512,1,0.04079515486955643,1
0.164708614,0.005,-0.003263006918132305,-0.01984176971018314,-0.9959319829940796,-9.971728286473081e-05,-1.708511081233155e-05,-0.004981478210538626,1.282182552131417e-06,8.794480095275503e-07,2.604162091301987e-06,,,,,,
0.166531846,,,,,,,,,,,0.003180254949256778,1,0.00320564373396337,1,0.03783557564020157,1
0.169827327,0.005,-0.00308965565636754,-0.01990171149373055,-0.9959367513656616,-9.980573668144643e-05,-1.445027373847552e-05,-0.004979584366083145,-1.984528580578626e-06,4.519413039361098e-07,-5.695752065548731e-07,,,,,,
0.171551749,,,,,,,,,,,0.002583797788247466,1,0.004892928991466761,1,0.03778935968875885,1
0.174921989,0.005,-0.003209648188203573,-0.01960139535367489,-0.9955097436904907,-9.635726746637374e-05,-1.674970189924352e-05,-0.004975160118192434,-4.703465947386576e-06,1.584952542543761e-06,-4.497008490034204e-07,,,,,,
0.176567033,,,,,,,,,,,0.005513066425919533,1,0.003698798362165689,1,0.04197704792022705,1
0.179992318,0.005,-0.003430471988394856,-0.01974470168352127,-0.9953089356422424,-9.953053086064756e-05,-1.858156792877708e-05,-0.004975598305463791,1.175079660242773e-06,3.062154291910701e-06,9.830285989664844e-07,,,,,,
0.181577727,,,,,,,,,,,0.004091036040335894,1,0.001518419478088617,1,0.04394691437482834,1
0.185038075,0.005,-0.003012643661350012,-0.02012374624609947,-0.9951630234718323,-0.0001032696818583645,-1.277563205803744e-05,-0.004974680952727795,3.992880976966262e-07,-2.925624585259357e-06,1.896753019536845e-06,,,,,,
0.186583549,,,,,,,,,,,0.0003634048043750226,1,0.00561991985887289,1,0.04537780582904816,1
0.190060288,0.005,-0.003237365512177348,-0.02003053948283195,-0.9953469038009644,-9.971606777980924e-05,-1.684789094724692e-05,-0.004978076089173555,-2.640344291648944e-06,1.641840526644955e-06,2.052970330623793e-06,,,,,,
0.191584766,,,,,,,,,,,0.001275802380405366,1,0.003410198725759983,1,0.04357453808188438,1
0.195058689,0.005,-0.003666671458631754,-0.01999282836914062,-0.9952999949455261,-9.98192117549479e-05,-2.102399230352603e-05,-0.004975995980203152,2.183556489399052e-06,1.76269480789415e-07,3.775358209168189e-06,,,,,,
0.196580857,,,,,,,,,,,0.001635459950193763,1,-0.0008002411341294646,1,0.0440349280834198,1
0.200033799,0.005,-0.003727241419255733,-0.01991189643740654,-0.9956002235412598,-9.935723937815055e-05,-1.896807043522131e-05,-0.004979796707630157,4.476400590647245e-06,-1.140399831456307e-06,5.911892912990879e-06,,,,,,
0.201572865,,,,,,,,,,,0.002429764717817307,1,-0.001375493593513966,1,0.04109032824635506,1
0.204992771,0.005,-0.004127157852053642,-0.01976761221885681,-0.9956629276275635,-9.780937398318201e-05,-2.328827758901753e-05,-0.004979213234037161,1.127718974203162e-06,3.391820655451738e-06,-8.757148748372856e-07,,,,,,
0.206563070,,,,,,,,,,,0.00383550813421607,1,-0.005268608219921589,1,0.0404755175113678,1
0.209937915,0.005,-0.004130668472498655,-0.0198550671339035,-0.9955364465713501,-9.94705842458643e-05,-2.053460957540665e-05,-0.004976752679795027,9.428464231575617e-09,3.168140210618731e-06,-1.013713131214899e-06,,,,,,
0.211548671,,,,,,,,,,,0.002953271847218275,1,-0.005286324769258499,1,0.04171652719378471,1
0.214859262,0.005,-0.004392746835947037,-0.01968960277736187,-0.9953920245170593,-9.801678970688954e-05,-2.365037653362378e-05,-0.004975737072527409,-4.003538379038218e-06,1.956726919161156e-06,4.774018975695071e-07,,,,,,
0.216529414,,,,,,,,,,,0.004553642589598894,1,-0.007858761586248875,1,0.04313268512487411,1
0.219757825,0.005,-0.004750682506710291,-0.0195399671792984,-0.9954717755317688,-9.70371620496735e-05,-2.553912054281682e-05,-0.004978159908205271,2.511527100068633e-06,-7.202191909527755e-07,2.455453341099201e-06,,,,,,
0.221505538,,,,,,,,,,,0.006000911351293325,1,-0.01136614382266998,1,0.04235154017806053,1
0.224632576,0.005,-0.004875720478594303,-0.01908217370510101,-0.9957294464111328,-9.279272489948198e-05,-2.541792127885856e-05,-0.004980410449206829,1.144427528743108e-06,-3.015424454133608e-06,2.737521072049276e-06,,,,,,
0.226476803,,,,,,,,,,,0.01049352623522282,1,-0.01257757842540741,1,0.03982433304190636,1
0.229485050,0.005,-0.005230478476732969,-0.0189159233123064,-0.9956808686256409,-9.385487646795809e-05,-2.86890244751703e-05,-0.004978385753929615,1.55873613039148e-06,-3.371198317836388e-06,2.482663148839492e-06,,,,,,
0.231443718,,,,,,,,,,,0.01213653106242418,1,-0.01603608950972557,1,0.04030061140656471,1
0.234314755,0.005,-0.004836991894990206,-0.0189210157841444,-0.9957295060157776,-9.432003571419045e-05,-2.194857734139077e-05,-0.004979046527296305,3.746267509541212e-07,3.148041514577926e-06,2.610448518680641e-06,,,,,,
0.236405760,,,,,,,,,,,0.01209018006920815,1,-0.01216772850602865,1,0.03982392698526382,1
0.239121661,0.005,-0.004583598580211401,-0.01906295120716095,-0.9956844449043274,-9.610983397578821e-05,-2.126987965311855e-05,-0.004978817887604237,-2.946565928141354e-06,2.951546775875613e-06,-2.40336134993413e-06,,,,,,
0.241449729,,,,,,,,,,,0.01068291533738375,1,-0.009676954708993435,1,0.04026614502072334,1
0.244338945,0.005,-0.004877952858805656,-0.01943099498748779,-0.9953183531761169,-9.921563469106331e-05,-2.591853262856603e-05,-0.004974185489118099,1.942574726854218e-06,-2.210305183325545e-06,-8.777510629442986e-07,,,,,,
0.246488839,,,,,,,,,,,0.007070228923112154,1,-0.01256152335554361,1,0.04385564103722572,1
0.249531642,0.005,-0.004827861674129963,-0.01945833675563335,-0.9955900907516479,-9.775952639756724e-05,-2.408518776064739e-05,-0.004979458637535572,1.896816343105456e-06,-1.695100309007103e-06,2.024400600930676e-06,,,,,,
0.251523316,,,,,,,,,,,0.006800701841711998,1,-0.01205408107489347,1,0.04119116440415382,1
0.254698753,0.005,-0.004890353884547949,-0.01958072558045387,-0.995940089225769,-9.873183444142342e-05,-2.465355464664754e-05,-0.004981921054422855,-4.889674528385513e-06,-3.598369175961125e-06,3.36152697855141e-06,,,,,,
0.256553203,,,,,,,,,,,0.005609229672700167,1,-0.01267204806208611,1,0.03775885701179504,1
0.259842038,0.005,-0.004788398742675781,-0.01952648349106312,-0.995627224445343,-9.74202121142298e-05,-2.302695429534651e-05,-0.004976360592991114,9.662312550062779e-07,2.432204837532481e-07,-4.710094799520448e-06,,,,,,
0.261578232,,,,,,,,,,,0.006150171626359224,1,-0.01167348865419626,1,0.04082625359296799,1
0.264961779,0.005,-0.004712756257504225,-0.01974454708397388,-0.9956413507461548,-9.974095883080736e-05,-2.365160980843939e-05,-0.004978360142558813,1.837453282860224e-07,-3.283201749582076e-06,5.450116077554412e-06,,,,,,
0.266598910,,,,,,,,,,,0.004027736373245716,1,-0.01091954484581947,1,0.0406876914203167,1
0.270057976,0.005,-0.004290340002626181,-0.01983355730772018,-0.9953586459159851,-9.965223580366001e-05,-1.945175972650759e-05,-0.004974981769919395,3.11327937652095e-07,-1.879772867141583e-06,-5.224489427746448e-07,,,,,,
0.271614730,,,,,,,,,,,0.003171561285853386,1,-0.006774154491722584,1,0.04345962777733803,1
0.275130361,0.005,-0.003898043651133776,-0.01980204321444035,-0.9955375194549561,-9.890229557640851e-05,-1.687417716311757e-05,-0.004978853277862072,-1.914622998810955e-06,6.305068041001505e-07,-6.094911896070698e-06,,,,,,
0.276625931,,,,,,,,,,,0.003492818213999271,1,-0.002921373350545764,1,0.04170487821102142,1
0.280180484,0.005,-0.003875491442158818,-0.0197093989700079,-0.9957029819488525,-9.788203897187486e-05,-1.915458415169269e-05,-0.004979419987648726,1.84341331532778e-06,6.26171640760731e-07,-2.749851773842238e-06,,,,,,
0.281632781,,,,,,,,,,,0.004402054008096457,1,-0.002694819355383515,1,0.04008207097649574,1
0.285207808,0.005,-0.003596407128497958,-0.02016366645693779,-0.995844304561615,-0.0001030836574500427,-1.65310575539479e-05,-0.004980020225048065,-1.773280928318854e-06,1.558796839162824e-06,-2.427941581117921e-06,,,,,,
0.286634743,,,,,,,,,,,-5.739531479775906e-05,1,4.896754398941994e-05,1,0.03869671747088432,1
0.290211082,0.005,-0.003526888787746429,-0.02019386366009712,-0.9959498047828674,-0.0001012309221550822,-1.732313103275374e-05,-0.004980633966624737,2.448550276312744e-06,2.747162398009095e-06,-6.319850740510446e-07,,,,,,
0.291632384,,,,,,,,,,,-0.0003703511320054531,1,0.0007389493985101581,1,0.03766233846545219,1
0.295198202,0.005,-0.003256232244893909,-0.02019399031996727,-0.9957612752914429,-0.0001009702464216389,-1.467617403250188e-05,-0.004977615550160408,-4.56203179055592e-06,-1.808286128834879e-06,2.608558588690357e-06,,,,,,
0.296626687,,,,,,,,,,,-0.000392917194403708,1,0.003404511138796806,1,0.03951146453619003,1
0.300163835,0.005,-0.003231029957532883,-0.02013257518410683,-0.9954349398612976,-0.0001001235214062035,-1.579861236677971e-05,-0.004975714720785618,-2.512924538677908e-06,-1.902535132103367e-06,9.928266990755219e-07,,,,,,
0.301616639,,,,,,,,,,,0.0002126602048519999,1,0.003651916282251477,1,0.04271180555224419,1
0.305106938,0.005,-0.003225884865969419,-0.02005945891141891,-0.9953444004058838,-9.988774399971589e-05,-1.604864883120172e-05,-0.004976053722202778,-3.600020363592193e-06,2.581283297331538e-06,2.051103393796438e-07,,,,,,
0.306601971,,,,,,,,,,,0.0009154272847808897,1,0.003693528473377228,1,0.04359995573759079,1
0.310027510,0.005,-0.003287301631644368,-0.01994735933840275,-0.9955627918243408,-9.90885091596283e-05,-1.65803539857734e-05,-0.004978874232620001,-1.083567440218758e-06,4.62258753941569e-07,-1.907856130856089e-06,,,,,,
0.311582714,,,,,,,,,,,0.002004730282351375,1,0.003075410844758153,1,0.04145831242203712,1
0.314925045,0.005,-0.003469042014330626,-0.01985115557909012,-0.995499312877655,-9.845888416748494e-05,-1.862186582002323e-05,-0.004977347329258919,3.823101906164084e-06,1.027050302582211e-06,9.803242164707626e-07,,,,,,
0.316558838,,,,,,,,,,,0.002938404679298401,1,0.001300196629017591,1,0.04208094254136086,1
0.319800586,0.005,-0.003427219111472368,-0.01978985965251923,-0.9956315159797668,-9.830338240135461e-05,-1.687428812147118e-05,-0.004979034885764122,-1.48883998463134e-06,-8.793448813548821e-08,2.695839384614374e-06,,,,,,
0.321530610,,,,,,,,,,,0.003528570756316185,1,0.001721181208267808,1,0.04078545793890953,1
0.324654073,0.005,-0.003884174395352602,-0.02001320011913776,-0.9955858588218689,-0.0001012370194075629,-2.198963920818642e-05,-0.00497803557664156,1.503385647083633e-06,1.092327352125722e-06,-1.530371491753613e-06,,,,,,
0.326497793,,,,,,,,,,,0.001327988691627979,1,-0.002750691259279847,1,0.04123318940401077,1
0.329485059,0.005,-0.003950407262891531,-0.01998832635581493,-0.9953350424766541,-9.979167953133583e-05,-2.019381099671591e-05,-0.004975191783159971,-8.019398478609219e-07,2.09611630452855e-06,4.807378445548238e-06,,,,,,
0.331460088,,,,,,,,,,,0.001559305936098099,1,-0.00339902751147747,1,0.04369280487298965,1
0.334293514,0.005,-0.003812849521636963,-0.01982880942523479,-0.9954181313514709,-9.799223334994167e-05,-1.841683115344495e-05,-0.004977158270776272,-1.243667838934925e-06,2.157743892894359e-06,1.006183083518408e-06,,,,,,
0.336418062,,,,,,,,,,,0.0031039381865412,1,-0.002044691238552332,1,0.04287822917103767,1
0.339512050,0.005,-0.003878299845382571,-0.01971138641238213,-0.9953608512878418,-9.785131987882778e-05,-1.975352461158764e-05,-0.00497626606374979,-5.306475941324607e-06,1.969551703950856e-06,-3.246226697228849e-06,,,,,,
0.341457933,,,,,,,,,,,0.004233174957334995,1,-0.002697815652936697,1,0.04344054311513901,1
0.344707578,0.005,-0.003936235792934895,-0.01962313242256641,-0.9953299164772034,-9.743499686010182e-05,-2.043713175226003e-05,-0.00497660506516695,-3.212373030692106e-06,-3.51737344317371e-06,-1.91169624486065e-06,,,,,,
0.346493453,,,,,,,,,,,0.005094650201499462,1,-0.003287995234131813,1,0.04374357685446739,1
0.349879801,0.005,-0.003973732236772776,-0.01982789859175682,-0.9957385063171387,-0.0001003288416541182,-1.976266503334045e-05,-0.004981008358299732,-3.129213155261823e-06,1.094961817216245e-06,1.13494184006413e-06,,,,,,
0.351524353,,,,,,,,,,,0.003082724986597896,1,-0.003675522049888968,1,0.03973735496401787,1
0.355026931,0.005,-0.004107542801648378,-0.01982719637453556,-0.995629608631134,-9.915087866829708e-05,-2.100728670484386e-05,-0.004977595061063766,2.857912932086037e-06,1.017444560602598e-06,3.394959321667557e-06,,,,,,
0.356550395,,,,,,,,,,,0.0030868926551193,1,-0.00499395839869976,1,0.04080550000071526,1
0.360150516,0.005,-0.004165376536548138,-0.01944697834551334,-0.9956313371658325,-9.479068830842152e-05,-2.109511660819408e-05,-0.004978332202881575,-2.173469084709723e-07,-2.053597881968017e-06,3.505114591462188e-06,,,,,,
0.361572087,,,,,,,,,,,0.006811963394284248,1,-0.005558493081480265,1,0.04078806191682816,1
0.365250051,0.005,-0.004305949900299311,-0.01951929554343224,-0.995591938495636,-9.801970736589283e-05,-2.263324677187484e-05,-0.004977583885192871,7.315005063901481e-07,4.089393769390881e-06,-3.73730244973558e-06,,,,,,
0.366588920,,,,,,,,,,,0.006092439405620098,1,-0.006925027817487717,1,0.0411747582256794,1
0.370330125,0.005,-0.004337524995207787,-0.01941335573792458,-0.9954578280448914,-9.671988664194942e-05,-2.174541987187695e-05,-0.004976458381861448,-2.432456540191197e-06,3.135908855256275e-06,-1.345810915154289e-06,,,,,,
0.371601909,,,,,,,,,,,0.007100760936737061,1,-0.007236500736325979,1,0.04249081015586853,1
0.375387639,0.005,-0.004404719918966293,-0.01915699057281017,-0.9959244728088379,-9.407343168277293e-05,-2.252082776976749e-05,-0.004982834216207266,-2.616239044073154e-06,-2.876908638427267e-06,1.881675075310341e-06,,,,,,
0.376610309,,,,,,,,,,,0.009607203304767609,1,-0.00790270883589983,1,0.03791511058807373,1
0.380421370,0.005,-0.004376373253762722,-0.01906840689480305,-0.9961619973182678,-9.508788934908807e-05,-2.160922122129705e-05,-0.004982119891792536,1.145439568972506e-06,-2.36950404541858e-06,-1.878959892565035e-06,,,,,,
0.381614089,,,,,,,,,,,0.01048044301569462,1,-0.007629599422216415,1,0.03558600693941116,1
0.385431796,0.005,-0.004233861807733774,-0.01934073865413666,-0.9964269995689392,-9.840018174145371e-05,-2.028209746640641e-05,-0.004983675200492144,4.708509550255258e-06,-2.324626620975323e-06,-5.923613571212627e-06,,,,,,
0.386613250,,,,,,,,,,,0.007821418344974518,1,-0.006210288964211941,1,0.03298631682991982,1
0.390419722,0.005,-0.004468637518584728,-0.01976787485182285,-0.9962790608406067,-0.0001014378503896296,-2.408118234598078e-05,-0.004980435129255056,1.473226006964978e-06,3.353309239173541e-07,-2.360542566748336e-06,,,,,,
0.391607553,,,,,,,,,,,0.003639343660324812,1,-0.008490378968417645,1,0.03443709760904312,1
0.395384818,0.005,-0.004637278150767088,-0.01949906907975674,-0.9958266019821167,-9.57677693804726e-05,-2.400839548499789e-05,-0.004976035561412573,-4.015955255454173e-06,-6.411590220523067e-06,5.365755839648045e-08,,,,,,
0.396597773,,,,,,,,,,,0.006293798796832561,1,-0.01013848464936018,1,0.03887350112199783,1
0.400327682,0.005,-0.004410394001752138,-0.0198445338755846,-0.9960580468177795,-0.0001014991867123172,-2.088121618726291e-05,-0.00498152244836092,-9.532555509395024e-07,6.208025524756522e-07,-9.234897220267158e-07,,,,,,
0.401583105,,,,,,,,,,,0.002922040177509189,1,-0.007914760150015354,1,0.03660312667489052,1
0.405247748,0.005,-0.004453455097973347,-0.0200001634657383,-0.9960282444953918,-0.0001010606647469103,-2.250379293400329e-05,-0.004980363417416811,-2.120204271705006e-06,-5.135629635333316e-06,1.452796936973755e-06,,,,,,
0.406564087,,,,,,,,,,,0.001422140514478087,1,-0.008342666551470757,1,0.03689499199390411,1
0.410144776,0.005,-0.004156231414526701,-0.020090002566576,-0.9958715438842773,-0.0001007730606943369,-1.887413236545399e-05,-0.00497796293348074,-1.03069737633632e-06,3.234433165744122e-07,-2.133499265255523e-06,,,,,,
0.411540210,,,,,,,,,,,0.0005536007811315358,1,-0.005435660481452942,1,0.03843116015195847,1
0.415019274,0.005,-0.004291872028261423,-0.02022695541381836,-0.9959349036216736,-0.0001018124967231415,-2.213105290138628e-05,-0.004980446305125952,-3.889641448040493e-06,3.284827926108846e-06,-2.021874252022826e-06,,,,,,
0.416511744,,,,,,,,,,,-0.0007927342085167766,1,-0.006771611049771309,1,0.03781004995107651,1
0.419871747,0.005,-0.00400450499728322,-0.02004237845540047,-0.9954873919487,-9.902114834403619e-05,-1.836892442952376e-05,-0.004974822048097849,-1.385617906635161e-06,-2.947718940049526e-06,-3.604013954827678e-06,,,,,,
0.421479434,,,,,,,,,,,0.001022404758259654,1,-0.003970443271100521,1,0.04219850152730942,1
0.424704254,0.005,-0.00397042278200388,-0.01999801397323608,-0.9953053593635559,-9.976005821954459e-05,-1.93079231394222e-05,-0.004975817631930113,-5.842856353410752e-06,-1.224273887601157e-06,1.233408852385764e-06,,,,,,
0.426442504,,,,,,,,,,,0.001467917347326875,1,-0.003663983661681414,1,0.0439838171005249,1
0.429514498,0.005,-0.00380335352383554,-0.02018369734287262,-0.9952252507209778,-0.0001023298245854676,-1.813107883208431e-05,-0.004975369665771723,1.721212697702867e-06,2.821868520186399e-06,4.137590110531164e-07,,,,,,
0.431400955,,,,,,,,,,,-0.0003565360675565898,1,-0.002037606900557876,1,0.04476951435208321,1
0.434647292,0.005,-0.003699431428685784,-0.02007097192108631,-0.9952116012573242,-9.970853716367856e-05,-1.783011066436302e-05,-0.004976300522685051,-2.821008422415616e-07,2.677432803466218e-06,9.416820034857665e-07,,,,,,
0.436441094,,,,,,,,,,,0.000732489803340286,1,-0.001020519295707345,1,0.04490320384502411,1
0.439842314,0.005,-0.003493417054414749,-0.01986056007444859,-0.9952616095542908,-9.805707668419927e-05,-1.613889435247984e-05,-0.004976737312972546,-7.3039666403929e-07,3.425817794777686e-06,-4.355883618245571e-07,,,,,,
0.441476852,,,,,,,,,,,0.00277056428603828,1,0.0009982225019484758,1,0.04441370442509651,1
0.445013493,0.005,-0.003725574351847172,-0.01963133364915848,-0.995201051235199,-9.667210542829707e-05,-2.008751653193031e-05,-0.00497569190338254,-2.422156967440969e-06,1.194341507471108e-06,-3.853032467304729e-06,,,,,,
0.446507782,,,,,,,,,,,0.00499471602961421,1,-0.001290064188651741,1,0.04500817880034447,1
0.450160384,0.005,-0.003520225640386343,-0.01921963319182396,-0.9953945279121399,-9.387773752678186e-05,-1.622303534531966e-05,-0.004977741744369268,-5.083196015220892e-07,4.895442202723643e-07,2.01239345187787e-06,,,,,,
0.451533824,,,,,,,,,,,0.009010836482048035,1,0.0007276007672771811,1,0.04311110824346542,1
0.455282956,0.005,-0.0037371926009655,-0.01919038780033588,-0.995672881603241,-9.561546903569251e-05,-2.016434336837847e-05,-0.004979779478162527,-3.571835350157926e-06,-4.02679324906785e-06,-6.390051794369356e-07,,,,,,
0.456555277,,,,,,,,,,,0.009296435862779617,1,-0.001411868841387331,1,0.04038197547197342,1
0.460381180,0.005,-0.003650805214419961,-0.01977073773741722,-0.9954577684402466,-0.0001022257638396695,-1.764483931765426e-05,-0.004976379685103893,-6.260329882934457e-06,-5.076196885056561e-06,2.323672788406839e-06,,,,,,
0.461571842,,,,,,,,,,,0.003630738938227296,1,-0.0005927439779043198,1,0.04249139502644539,1
0.465455353,0.005,-0.003916233777999878,-0.01961584575474262,-0.9955606460571289,-9.731309546623379e-05,-2.135519571311306e-05,-0.004978629294782877,-7.498790068893868e-07,-3.147734162212146e-07,5.800558028568048e-06,,,,,,
0.466584831,,,,,,,,,,,0.005167543422430754,1,-0.003217980498448014,1,0.04148166254162788,1
0.470511109,0.005,-0.003780836937949061,-0.01953247003257275,-0.9958576560020447,-9.685727854957804e-05,-1.816866279114038e-05,-0.004981026984751225,7.632694973835896e-07,4.653170293522635e-08,3.888462288159644e-06,,,,,,
0.471592963,,,,,,,,,,,0.005992702208459377,1,-0.001900674775242805,1,0.03856935724616051,1
0.475543052,0.005,-0.003875352907925844,-0.01924609951674938,-0.9954195618629456,-9.436671098228544e-05,-1.997223625949118e-05,-0.004974641837179661,1.835593820942449e-06,4.883554538537282e-07,-2.62722528532322e-06,,,,,,
0.476596475,,,,,,,,,,,0.008801229298114777,1,-0.002828600816428661,1,0.04286548867821693,1
0.480552197,0.005,-0.004113474395126104,-0.01951619796454906,-0.9955427050590515,-9.876152034848928e-05,-2.16636253753677e-05,-0.004978181794285774,2.25364237849135e-06,-1.584659344189276e-06,8.194173801712168e-07,,,,,,
0.481595635,,,,,,,,,,,0.00616158451884985,1,-0.005145431496202946,1,0.04165734723210335,1
0.485537797,0.005,-0.004157036542892456,-0.01956083625555038,-0.9952078461647034,-9.824576409300789e-05,-2.123518970620353e-05,-0.004974139854311943,-1.015674001791922e-06,-4.749472566345503e-07,3.121889903923147e-06,,,,,,
0.486589938,,,,,,,,,,,0.005728622432798147,1,-0.005563112907111645,1,0.04494031891226768,1
0.490500599,0.005,-0.003893790068104863,-0.01984656229615211,-0.9954497814178467,-0.0001007181999739259,-1.777761463017669e-05,-0.004978552460670471,-1.52739369241317e-06,2.252568719995907e-06,3.227627530577593e-06,,,,,,
0.491579652,,,,,,,,,,,0.002918006153777242,1,-0.002980360062792897,1,0.0425683930516243,1
0.495441139,0.005,-0.004040240775793791,-0.01966338790953159,-0.9954538345336914,-9.754636266734451e-05,-2.092159229505342e-05,-0.004977130796760321,3.831010872090701e-06,-1.073924863703724e-06,-2.080774095247762e-07,,,,,,
0.496564746,,,,,,,,,,,0.004701770376414061,1,-0.00437539629638195,1,0.04252916947007179,1
0.500358641,0.005,-0.004160668235272169,-0.01973817311227322,-0.9953947067260742,-9.920170123223215e-05,-2.177734859287739e-05,-0.004977086093276739,5.00686564919306e-06,-3.619059498305432e-06,-3.174371386194252e-06,,,,,,
0.501545191,,,,,,,,,,,0.003971460275352001,1,-0.005511295050382614,1,0.04310890659689903,1
0.505253375,0.005,-0.004141768906265497,-0.01964984834194183,-0.9954851269721985,-9.818231774261221e-05,-2.054294054687489e-05,-0.004977582022547722,-7.119487008822034e-07,-1.51621904365129e-07,-3.533778070163862e-08,,,,,,
0.506520808,,,,,,,,,,,0.004842630587518215,1,-0.005292222835123539,1,0.04222214967012405,1
0.510125041,0.005,-0.004222170915454626,-0.01956072077155113,-0.995550811290741,-9.688442514743656e-05,-2.208481419074815e-05,-0.004978351294994354,3.330556864966638e-06,1.73055445884529e-06,3.60689546141657e-06,,,,,,
0.511492074,,,,,,,,,,,0.00571392709389329,1,-0.006055454723536968,1,0.04157789796590805,1
0.514973700,0.005,-0.004188883118331432,-0.01986047253012657,-0.9956304430961609,-0.0001010961568681523,-2.057242818409577e-05,-0.004978709854185581,4.838932454731548e-06,1.901313567032048e-06,1.264321895178e-06,,,,,,
0.516458750,,,,,,,,,,,0.002763017546385527,1,-0.005686954129487276,1,0.04079753905534744,1
0.519800842,0.005,-0.003979792352765799,-0.01991128735244274,-0.9956383109092712,-9.999149915529415e-05,-1.884205630631186e-05,-0.004978095646947622,1.597302230038622e-06,2.209086005677818e-06,-1.695902938081417e-06,,,,,,
0.521421075,,,,,,,,,,,0.002250740304589272,1,-0.003601633012294769,1,0.04072003439068794,1
0.524607241,0.005,-0.00413459399715066,-0.02000070735812187,-0.9955001473426819,-0.0001004278674372472,-2.15467134694336e-05,-0.0049766656011343,-2.354238176849321e-06,-1.406624960509362e-06,-3.421553856242099e-06,,,,,,
0.526378751,,,,,,,,,,,0.001357283792458475,1,-0.005101094953715801,1,0.04207488149404526,1
0.529653013,0.005,-0.004485021810978651,-0.01992546208202839,-0.9956974387168884,-9.951523679774255e-05,-2.460073665133677e-05,-0.004979680292308331,5.727517873310717e-07,6.917756309121614e-06,-1.964798002518364e-06,,,,,,
0.531419158,,,,,,,,,,,0.002073333133012056,1,-0.008525071665644646,1,0.04014010727405548,1
0.534849763,0.005,-0.004465566016733646,-0.01967324130237103,-0.9956835508346558,-9.671092993812636e-05,-2.271563062095083e-05,-0.004978225566446781,-3.027953653145232e-06,-5.005406364944065e-07,2.021456111833686e-06,,,,,,
0.536455154,,,,,,,,,,,0.004523912910372019,1,-0.008336097933351994,1,0.04027719050645828,1
0.540023029,0.005,-0.004152441862970591,-0.01982445456087589,-0.995516836643219,-9.944075281964615e-05,-1.874594636319671e-05,-0.004976446740329266,5.615087843580113e-07,-3.462232371020946e-06,-4.717476187465763e-08,,,,,,
0.541486323,,,,,,,,,,,0.003033591201528907,1,-0.005262442864477634,1,0.04191230610013008,1
0.545174003,0.005,-0.003925366792827845,-0.02014457061886787,-0.9953662157058716,-0.0001026823010761291,-1.787543260434177e-05,-0.004975706338882446,1.471436235078727e-07,-3.286678747826954e-06,5.42740508535644e-06,,,,,,
0.546513140,,,,,,,,,,,-9.585960651747882e-05,1,-0.003036770271137357,1,0.04338917881250381,1
0.550301671,0.005,-0.003801939077675343,-0.0200995821505785,-0.9955777525901794,-0.0001004781952360645,-1.822393824113533e-05,-0.004978872369974852,1.241909103555372e-06,-3.332304913783446e-06,2.78404030495949e-07,,,,,,
0.551535368,,,,,,,,,,,0.0003692204190883785,1,-0.001812988775782287,1,0.04131407290697098,1
0.555403769,0.005,-0.003522120183333755,-0.01975535415112972,-0.9955633878707886,-9.674916509538889e-05,-1.612105734238867e-05,-0.004977759905159473,-4.311078555474523e-06,-6.384984203577915e-07,-2.378625822530012e-06,,,,,,
0.556552708,,,,,,,,,,,0.003761995350942016,1,0.0009337944793514907,1,0.04145475849509239,1
0.560481548,0.005,-0.003665070747956634,-0.01969358883798122,-0.9956799149513245,-9.793688514037058e-05,-1.906915349536575e-05,-0.00497905071824789,-2.939438218163559e-06,6.146985924715409e-06,-2.39425594372733e-06,,,,,,
0.561565161,,,,,,,,,,,0.004358955658972263,1,-0.0004859718028455973,1,0.04031297564506531,1
0.565534234,0.005,-0.00358602381311357,-0.01966766268014908,-0.9955218434333801,-9.846152534009889e-05,-1.740664265525993e-05,-0.004976811353117228,2.234467956441222e-06,5.753639698014013e-08,2.417987161607016e-06,,,,,,
0.566572785,,,,,,,,,,,0.004596082493662834,1,0.000290694588329643,1,0.04186307266354561,1
0.570562303,0.005,-0.003617582377046347,-0.01986446045339108,-0.9952976107597351,-0.0001005699159577489,-1.860213342297357e-05,-0.004975324030965567,-2.125325408997014e-06,-3.229460844522691e-06,8.261864081759995e-07,,,,,,
0.571575522,,,,,,,,,,,0.00266238721087575,1,-2.219692396465689e-05,1,0.04406200721859932,1
0.575566828,0.005,-0.003873354522511363,-0.01991163939237595,-0.9952526092529297,-0.0001000527990981936,-2.083292565657757e-05,-0.004975960589945316,-1.12982229438785e-06,-7.723358521616319e-07,-3.169923047607881e-06,,,,,,
0.576573431,,,,,,,,,,,0.002209453843533993,1,-0.002534382976591587,1,0.04450283199548721,1
0.580546558,0.005,-0.004282614681869745,-0.01969252899289131,-0.9954763054847717,-9.711454913485795e-05,-2.380031219217926e-05,-0.004978867713361979,3.494738791687269e-07,9.021208029480476e-07,-3.499202193779638e-06,,,,,,
0.581566453,,,,,,,,,,,0.004357867408543825,1,-0.006542480550706387,1,0.04230893403291702,1
0.585502446,0.005,-0.004195916932076216,-0.01944972760975361,-0.9955101013183594,-9.597650932846591e-05,-2.062251769530121e-05,-0.004977661184966564,-2.21304730985139e-06,-1.630093748872241e-08,9.578624258210766e-07,,,,,,
0.586554646,,,,,,,,,,,0.006728759035468102,1,-0.00570029579102993,1,0.04197849333286285,1
0.590433776,0.005,-0.004087228327989578,-0.01937177218496799,-0.9953935146331787,-9.619952470529824e-05,-2.02664978132816e-05,-0.004976009018719196,-8.198462069231027e-07,-2.378592540708269e-07,-1.306965913272506e-07,,,,,,
0.591537893,,,,,,,,,,,0.007496321108192205,1,-0.004637829028069973,1,0.04312136769294739,1
0.595341325,0.005,-0.004301962442696095,-0.01956579089164734,-0.9954386949539185,-9.933914407156408e-05,-2.226542346761562e-05,-0.004977758042514324,-1.487859435655992e-06,-8.410035547967709e-07,1.72132132547631e-07,,,,,,
0.596516371,,,,,,,,,,,0.00559452548623085,1,-0.006744858343154192,1,0.04267845302820206,1
0.600226283,0.005,-0.004203562624752522,-0.01944581046700478,-0.9953927993774414,-9.674984903540462e-05,-2.038740058196709e-05,-0.004976987838745117,-2.487778942850127e-07,9.007972607832926e-07,4.319368599681184e-06,,,,,,
0.601490200,,,,,,,,,,,0.006770967040210962,1,-0.005786618683487177,1,0.04312871024012566,1
0.605087757,0.005,-0.004260485526174307,-0.01960925571620464,-0.9952398538589478,-9.922104072757065e-05,-2.194404987676535e-05,-0.004975018557161093,-6.003514840813295e-07,-1.032373120324337e-06,-2.244485358460224e-06,,,,,,
0.606459379,,,,,,,,,,,0.005163546185940504,1,-0.006344242952764034,1,0.04462806880474091,1
0.609926164,0.005,-0.00427107373252511,-0.01926487125456333,-0.9954153299331665,-9.412516374140978e-05,-2.176067937398329e-05,-0.004978376440703869,2.177269607273047e-06,-1.434945033906843e-06,2.93114112537296e-06,,,,,,
0.611424029,,,,,,,,,,,0.008536949753761292,1,-0.006442231591790915,1,0.04290682077407837,1
0.614741743,0.005,-0.004302915185689926,-0.01928453706204891,-0.9953755736351013,-9.647377009969205e-05,-2.137028059223667e-05,-0.004976685158908367,2.115292296878124e-08,-1.990117880268372e-06,3.236332531741937e-06,,,,,,
0.616383731,,,,,,,,,,,0.00835740752518177,1,-0.006747857667505741,1,0.04329625517129898,1
0.619534612,0.005,-0.004485557321459055,-0.01913389004766941,-0.9954949021339417,-9.491018136031926e-05,-2.377280361542944e-05,-0.004977967124432325,3.909580300387461e-06,3.787207560890238e-06,3.576097014956758e-06,,,,,,
0.621338904,,,,,,,,,,,0.009826130233705044,1,-0.008519342169165611,1,0.04212646558880806,1
0.624575734,0.005,-0.004233322571963072,-0.01951250247657299,-0.9953381419181824,-9.991210390580818e-05,-1.976026942429598e-05,-0.004975374322384596,-1.43544411912444e-06,-2.458175686115283e-06,7.323852742047166e-07,,,,,,
0.626379550,,,,,,,,,,,0.006111917085945606,1,-0.006027170922607183,1,0.04366406053304672,1
0.629773080,0.005,-0.004048030357807875,-0.01962045952677727,-0.995261549949646,-9.910872904583812e-05,-1.889471968752332e-05,-0.004976003430783749,-1.116666908274055e-06,-4.759561988976202e-07,-4.663206425448152e-07,,,,,,
0.631415546,,,,,,,,,,,0.005058055277913809,1,-0.004202900920063257,1,0.04441505298018456,1
0.634945512,0.005,-0.003985820803791285,-0.01945405825972557,-0.9955411553382874,-9.666163532529026e-05,-1.927631456055678e-05,-0.00497958529740572,-1.062379737959418e-06,4.512213308771607e-06,1.880246713881206e-06,,,,,,
0.636446476,,,,,,,,,,,0.006677970290184021,1,-0.003589028492569923,1,0.04167309775948524,1
0.640093684,0.005,-0.004164345096796751,-0.01951682008802891,-0.9954245090484619,-9.809688344830647e-05,-2.182167372666299e-05,-0.004976408556103706,1.567292429172085e-06,-3.113245156782796e-06,7.076794759086624e-07,,,,,,
0.641472518,,,,,,,,,,,0.006053389515727758,1,-0.005332188680768013,1,0.04281720891594887,1
0.645216227,0.005,-0.004006750416010618,-0.01947964541614056,-0.9959425926208496,-9.714058978715912e-05,-1.901756513689179e-05,-0.004982851911336184,1.570555809848884e-06,1.209874994856364e-06,1.699573999758286e-06,,,,,,
0.646493971,,,,,,,,,,,0.006417969707399607,1,-0.003775184042751789,1,0.03773577138781548,1
0.650316298,0.005,-0.003965337760746479,-0.01924394257366657,-0.9956879615783691,-9.494340338278562e-05,-1.951410013134591e-05,-0.004976961296051741,-1.404368845214776e-06,5.117367436469067e-06,1.296199236833218e-08,,,,,,
0.651510775,,,,,,,,,,,0.008711932227015495,1,-0.003357501700520515,1,0.04023386538028717,1
0.655391514,0.005,-0.004086120519787073,-0.01930363848805428,-0.9958661794662476,-9.691349259810522e-05,-2.132340341631789e-05,-0.004980407189577818,-3.079271664319094e-06,4.333702236181125e-06,-1.580590947014571e-06,,,,,,
0.656522751,,,,,,,,,,,0.0080901263281703,1,-0.004549312870949507,1,0.0384872779250145,1
0.660442114,0.005,-0.003952030558139086,-0.01962743885815144,-0.9956648349761963,-9.978682646760717e-05,-1.922404226206709e-05,-0.004977220203727484,4.140956207265845e-06,3.291168695795932e-06,1.62769572398247e-06,,,,,,
0.661529839,,,,,,,,,,,0.004879763349890709,1,-0.003224964486435056,1,0.04046225920319557,1
0.665467918,0.005,-0.003901304211467505,-0.01976259984076023,-0.9956132769584656,-9.957340080291033e-05,-1.929408063006122e-05,-0.00497776921838522,-2.875982318073511e-06,-1.704733108454093e-06,-3.307805855001789e-06,,,,,,
0.666532099,,,,,,,,,,,0.003534228773787618,1,-0.002726908540353179,1,0.04096778482198715,1
0.670470119,0.005,-0.003723807632923126,-0.01963009685277939,-0.9951968193054199,-9.743085684021935e-05,-1.758106918714475e-05,-0.004973465576767921,-1.01579382771888e-06,-2.17406551428212e-07,1.238345674892116e-07,,,,,,
0.671529472,,,,,,,,,,,0.00482621043920517,1,-0.0009838819969445467,1,0.04505247622728348,1
0.675447822,0.005,-0.003656225046142936,-0.01989097706973553,-0.9954245686531067,-0.000100989404018037,-1.824093487812206e-05,-0.004978290759027004,-3.56170085069607e-06,3.923853000742383e-06,4.012148110632552e-06,,,,,,
0.676521957,,,,,,,,,,,0.002249835059046745,1,-0.0003272558096796274,1,0.04281951487064362,1
0.680401385,0.005,-0.003680803580209613,-0.01985523663461208,-0.9954144954681396,-9.878379933070391e-05,-1.838737262005452e-05,-0.004977291915565729,4.381229700811673e-06,-8.330893592756183e-07,-6.87016381561989e-07,,,,,,
0.681509912,,,,,,,,,,,0.002580601256340742,1,-0.0005648935330100358,1,0.04291830584406853,1
0.685331702,0.005,-0.003715808503329754,-0.01959382556378841,-0.9955413341522217,-9.676627814769745e-05,-1.855963091657031e-05,-0.004978908225893974,-4.120438006793847e-06,-1.92168135981774e-06,-4.479608151086723e-07,,,,,,
0.686492682,,,,,,,,,,,0.005147609394043684,1,-0.0009104692144319415,1,0.04167437553405762,1
0.690237164,0.005,-0.003747767303138971,-0.01949247345328331,-0.9953120350837708,-9.694805339677259e-05,-1.878753027995117e-05,-0.004975313786417246,-4.476522121876769e-07,2.574634663687903e-06,-2.829925279002055e-06,,,,,,
0.691470861,,,,,,,,,,,0.006131519097834826,1,-0.00122912204824388,1,0.04392363876104355,1
0.695119381,0.005,-0.003971025813370943,-0.01968427188694477,-0.9955756664276123,-9.989779209718108e-05,-2.126226536347531e-05,-0.004979025572538376,8.371940793949761e-07,-2.923824013123522e-06,-3.311919272164232e-06,,,,,,
0.696444154,,,,,,,,,,,0.004252148326486349,1,-0.003416580613702536,1,0.04133854061365128,1
0.699977458,0.005,-0.00368098821491003,-0.01971131004393101,-0.9956896901130676,-9.826538735069335e-05,-1.680337300058454e-05,-0.004979102406650782,-1.363232399853587e-06,5.071611667517573e-06,-5.471486588248808e-07,,,,,,
0.701412857,,,,,,,,,,,0.003978628199547529,1,-0.000572055927477777,1,0.04021996632218361,1
0.704813838,0.005,-0.003816295182332397,-0.01992576383054256,-0.996044933795929,-0.0001009570769383572,-1.959087967406958e-05,-0.004982379265129566,3.187093966516841e-07,-1.332438841927797e-06,2.09041695597989e-06,,,,,,
0.706376731,,,,,,,,,,,0.001865671132691205,1,-0.001894866232760251,1,0.03673622757196426,1
0.709625840,0.005,-0.003826858475804329,-0.01969923079013824,-0.9958099722862244,-9.745734860189259e-05,-1.943784445757046e-05,-0.00497778132557869,-3.714229478646303e-06,3.105264340774738e-06,3.08188054987113e-06,,,,,,
0.711335421,,,,,,,,,,,0.004069858696311712,1,-0.002006042515859008,1,0.03904075175523758,1
0.714415133,0.005,-0.003949226811528206,-0.01952564530074596,-0.9956363439559937,-9.646726539358497e-05,-2.034187309618574e-05,-0.004976647440344095,-3.735864083864726e-06,-1.158881559604197e-06,-1.838576395130076e-06,,,,,,
0.716289520,,,,,,,,,,,0.00576502364128828,1,-0.00322103570215404,1,0.04074306041002274,1
0.719365120,0.005,-0.004001528024673462,-0.0195814985781908,-0.9958016276359558,-9.811243216972798e-05,-2.042818232439458e-05,-0.004980276338756084,-2.077729732263833e-06,2.535340854592505e-06,1.298806751037773e-06,,,,,,
0.721331179,,,,,,,,,,,0.005200779531151056,1,-0.003753514029085636,1,0.03912290930747986,1
0.724568307,0.005,-0.004088828805834055,-0.01991124078631401,-0.9959137439727783,-0.0001014381414279342,-2.112003494403325e-05,-0.004979989491403103,3.719010654990029e-10,3.322521422433056e-07,-3.041829472749669e-07,,,,,,
0.726368248,,,,,,,,,,,0.001956975553184748,1,-0.004618135280907154,1,0.03802405297756195,1
0.729748487,0.005,-0.004202921874821186,-0.01996646448969841,-0.9959505200386047,-0.0001005633021122776,-2.158188181056175e-05,-0.004980140831321478,2.088797828037059e-07,3.605034635256743e-06,-1.290533646169933e-06,,,,,,
0.731400967,,,,,,,,,,,0.001395933446474373,1,-0.005741929169744253,1,0.0376640185713768,1
0.734905601,0.005,-0.004547094460576773,-0.01994332484900951,-0.9962276816368103,-9.941300959326327e-05,-2.50884495471837e-05,-0.004982891492545605,3.288845391580253e-06,1.448446482754662e-06,-2.098362443803126e-07,,,,,,
0.736429036,,,,,,,,,,,0.001602173666469753,1,-0.009106447920203209,1,0.03494618833065033,1
0.740038395,0.005,-0.004370603244751692,-0.01966563239693642,-0.9960418343544006,-9.679263894213364e-05,-2.066825982183218e-05,-0.004979097750037909,7.018836640781956e-07,-4.92954814035329e-06,3.529210289343609e-06,,,,,,
0.741452515,,,,,,,,,,,0.004328435286879539,1,-0.007363192737102509,1,0.03676863387227058,1
0.745148957,0.005,-0.004701932892203331,-0.01964581571519375,-0.9957186579704285,-9.80957702267915e-05,-2.544296876294538e-05,-0.004976972471922636,6.115844826126704e-07,2.398871288278315e-07,6.248044428502908e-07,,,,,,
0.746471703,,,,,,,,,,,0.004519253503531218,1,-0.01059501059353352,1,0.03993770107626915,1
0.750237167,0.005,-0.004825775045901537,-0.01947497390210629,-0.9950196146965027,-9.628816042095423e-05,-2.502158531569876e-05,-0.004970796406269073,3.785693479585461e-06,-1.180987169391301e-06,1.016651253848977e-06,,,,,,
0.751486480,,,,,,,,,,,0.006199340336024761,1,-0.01178085710853338,1,0.04679334908723831,1
0.755302131,0.005,-0.004520606715232134,-0.01955402828752995,-0.9954288005828857,-9.777875675354153e-05,-2.065194712486118e-05,-0.004979708697646856,-3.791056315094465e-06,1.53421478898963e-06,-2.485665163476369e-06,,,,,,
0.756496370,,,,,,,,,,,0.005419518332928419,1,-0.008778099901974201,1,0.04278059303760529,1
0.760344088,0.005,-0.004370476584881544,-0.0198289193212986,-0.9957684874534607,-0.0001008423932944424,-2.062321254925337e-05,-0.0049806023016572,-1.234844376085675e-06,9.694150548966718e-07,-3.336022018629592e-07,,,,,,
0.761501670,,,,,,,,,,,0.00271642068400979,1,-0.007307262625545263,1,0.03944903612136841,1
0.765361667,0.005,-0.004460070747882128,-0.01961036957800388,-0.9958001971244812,-9.652844892116264e-05,-2.294452860951424e-05,-0.004979195073246956,-1.194300125462178e-06,1.005460035230499e-06,-1.488175144004344e-06,,,,,,
0.766502380,,,,,,,,,,,0.004852522630244493,1,-0.00819096714258194,1,0.039138562977314,1
0.770356715,0.005,-0.00464210519567132,-0.01970904134213924,-0.9956215023994446,-9.937487629940733e-05,-2.441693322907668e-05,-0.004977020435035229,-3.599115643737605e-06,-4.802621333510615e-06,2.620475697767688e-06,,,,,,
0.771498501,,,,,,,,,,,0.003886159043759108,1,-0.009987334720790386,1,0.04089101403951645,1
0.775330305,0.005,-0.004588061477988958,-0.01984603889286518,-0.9951280951499939,-9.998719906434417e-05,-2.277038947795518e-05,-0.004972933325916529,-4.93967945658369e-06,6.062038551135629e-07,3.20959952659905e-06,,,,,,
0.776490748,,,,,,,,,,,0.002551921410486102,1,-0.009480035863816738,1,0.04572955891489983,1
0.780283630,0.005,-0.004030289128422737,-0.01957697235047817,-0.9952054023742676,-9.601794590707868e-05,-1.668426375545096e-05,-0.004976718686521053,-1.459192048969271e-06,-1.78843117737415e-06,-2.891390522563597e-06,,,,,,
0.781478405,,,,,,,,,,,0.005190654192119837,1,-0.004035401623696089,1,0.04497115686535835,1
0.785213709,0.005,-0.003898541443049908,-0.01966645754873753,-0.9951263666152954,-9.887979103950784e-05,-1.908891863422468e-05,-0.004975275136530399,2.889081542889471e-06,3.109448243776569e-06,1.806717932595348e-06,,,,,,
0.786461413,,,,,,,,,,,0.004314348101615906,1,-0.002744126133620739,1,0.04574601352214813,1
0.790120959,0.005,-0.0037741893902421,-0.02008623071014881,-0.9953826069831848,-0.0001028766564559191,-1.826798325055279e-05,-0.004978291690349579,-3.269153921792167e-06,4.524923951976234e-06,4.30255965966353e-07,,,,,,
0.791439891,,,,,,,,,,,0.0001711557270027697,1,-0.001522486913017929,1,0.04323386773467064,1
0.795005679,0.005,-0.003819596022367477,-0.02017667330801487,-0.9955158829689026,-0.0001015952439047396,-1.972469544853084e-05,-0.004978189710527658,1.361854629067238e-06,1.536970103188651e-06,-3.477073278190801e-06,,,,,,
0.796413720,,,,,,,,,,,-0.0007469533011317253,1,-0.00197596219368279,1,0.04192777723073959,1
0.799867630,0.005,-0.003889563959091902,-0.02009931392967701,-0.9958215355873108,-0.0001005122903734446,-1.979930493689608e-05,-0.004980857018381357,2.366415174037684e-06,-1.317064402428514e-06,5.278019216348184e-06,,,,,,
0.801382899,,,,,,,,,,,1.71212013810873e-06,1,-0.002644307212904096,1,0.03893039375543594,1
0.804708838,0.005,-0.003741331165656447,-0.02009978331625462,-0.9957907199859619,-0.0001001178898150101,-1.780871571099851e-05,-0.004979051183909178,2.26353563448356e-06,-3.985518560511991e-06,-1.423421167601191e-07,,,,,,
0.806347549,,,,,,,,,,,5.437992513179779e-06,1,-0.001169779920019209,1,0.03923286497592926,1
0.809527040,0.005,-0.00373247847892344,-0.01994084939360619,-0.9956799745559692,-9.903946192935109e-05,-1.835476905398536e-05,-0.00497792474925518,2.548823204051587e-06,3.334216216899222e-06,-2.827025355145452e-06,,,,,,
0.811307788,,,,,,,,,,,0.001563310157507658,1,-0.001058418303728104,1,0.04031892493367195,1
0.814408958,0.005,-0.003643472911790013,-0.01988895423710346,-0.9955489039421082,-9.907281491905451e-05,-1.767275171005167e-05,-0.004976969677954912,-2.617034397189855e-06,1.693828266979835e-06,-1.694130673968175e-06,,,,,,
0.816349447,,,,,,,,,,,0.002056509256362915,1,-0.0001746513444231823,1,0.04160383343696594,1
0.819613159,0.005,-0.003904120530933142,-0.01979883201420307,-0.9955077171325684,-9.862372098723426e-05,-2.078853140119463e-05,-0.004977121949195862,-3.292858536951826e-07,-1.655416099310969e-06,2.170742391172098e-06,,,,,,
0.821386516,,,,,,,,,,,0.002934043062850833,1,-0.00272742984816432,1,0.04200771450996399,1
0.824791551,0.005,-0.003736347192898393,-0.01962616108357906,-0.9957380294799805,-9.676036279415712e-05,-1.801180587790441e-05,-0.004979731515049934,-1.344103225164872e-06,6.17979480921349e-07,1.059958435689623e-06,,,,,,
0.826418698,,,,,,,,,,,0.004627053625881672,1,-0.001077253487892449,1,0.03974932804703712,1
0.829944849,0.005,-0.003678360721096396,-0.01949633471667767,-0.9959781765937805,-9.683630923973396e-05,-1.806577529350761e-05,-0.004980999510735273,-3.759658284252509e-06,2.009088575505302e-06,-1.342604491583188e-06,,,,,,
0.831445992,,,,,,,,,,,0.005888879764825106,1,-0.0005181703600101173,1,0.03739479184150696,1
0.835073769,0.005,-0.003774343058466911,-0.01976409927010536,-0.9956839084625244,-0.0001002665521809831,-1.954312210727949e-05,-0.004977009259164333,7.320227268792223e-07,-2.804250925692031e-06,-2.260889232275076e-06,,,,,,
0.836468458,,,,,,,,,,,0.003264742903411388,1,-0.001468110946007073,1,0.04028038680553436,1
0.840177178,0.005,-0.003709138138219714,-0.01960954256355762,-0.995341956615448,-9.709659934742376e-05,-1.840207005443517e-05,-0.004974686075001955,3.619665676524164e-06,-3.270878096373053e-06,9.212380973622203e-07,,,,,,
0.841486096,,,,,,,,,,,0.004792487248778343,1,-0.0008187431376427412,1,0.04363371431827545,1
0.845256686,0.005,-0.003572874702513218,-0.01988380961120129,-0.9952509999275208,-0.0001010913692880422,-1.655544292589184e-05,-0.004975533578544855,-4.814903604710707e-06,-8.727680551601225e-07,-6.051597551959276e-07,,,,,,
0.846499085,,,,,,,,,,,0.002119507407769561,1,0.0005240655154921114,1,0.04452542588114738,1
0.850312173,0.005,-0.003785917535424232,-0.01988242007791996,-0.9955532550811768,-9.921686432790011e-05,-2.042260166490451e-05,-0.004979670979082584,-3.233285269743646e-06,1.690016119937354e-06,-1.295351239605225e-06,,,,,,
0.851508737,,,,,,,,,,,0.002130141714587808,1,-0.001581037766300142,1,0.04156140983104706,1
0.855352819,0.005,-0.003762060543522239,-0.01975956745445728,-0.9955528974533081,-9.776580554898828e-05,-1.883757249743212e-05,-0.004978211596608162,-6.600317647098564e-06,-2.282105015183333e-06,2.020000238189823e-06,,,,,,
0.856513560,,,,,,,,,,,0.00334270903840661,1,-0.00137157179415226,1,0.04156505316495895,1
0.860368907,0.005,-0.003681479021906853,-0.01981071010231972,-0.9954097867012024,-9.957104339264333e-05,-1.790497844922356e-05,-0.004975971765816212,-5.848106411576737e-06,1.528684379081824e-06,3.04540958495636e-06,,,,,,
0.861513734,,,,,,,,,,,0.002838202985003591,1,-0.0006197900511324406,1,0.04296812415122986,1
0.865360618,0.005,-0.00384399201720953,-0.01960808970034122,-0.9954515695571899,-9.701913222670555e-05,-2.023838169407099e-05,-0.004977349191904068,9.649165804148652e-07,2.22927815229923e-06,2.348906718907529e-06,,,,,,
0.866509080,,,,,,,,,,,0.004813602659851313,1,-0.002247373107820749,1,0.04255916550755501,1
0.870328307,0.005,-0.0040284120477736,-0.01957890391349792,-0.9959678053855896,-9.712105384096503e-05,-2.132351619366091e-05,-0.004983247257769108,1.540489620310836e-07,-1.799834194571304e-06,-8.309000776307585e-08,,,,,,
0.871499538,,,,,,,,,,,0.005091026425361633,1,-0.004064185079187155,1,0.037496667355299,1
0.875271678,0.005,-0.004170440137386322,-0.01973410695791245,-0.9955058097839355,-9.971595864044502e-05,-2.138347190339118e-05,-0.004974821582436562,5.999248742227792e-07,2.803505140036577e-06,1.62980938966939e-06,,,,,,
0.876485109,,,,,,,,,,,0.003558490658178926,1,-0.00545802665874362,1,0.04202734678983688,1
0.880191743,0.005,-0.00439021410420537,-0.01968453079462051,-0.995154857635498,-9.838860569288954e-05,-2.308503462700173e-05,-0.004973605275154114,1.283278947994404e-06,6.585304959116911e-07,2.853980276995571e-06,,,,,,
0.881466091,,,,,,,,,,,0.004037006292492151,1,-0.007610403001308441,1,0.04546980559825897,1
0.885088027,0.005,-0.004615165293216705,-0.01952235400676727,-0.9954599142074585,-9.654108725953847e-05,-2.435434362269007e-05,-0.004978923127055168,-4.23782495317937e-07,4.21370623371331e-06,-6.208381819305941e-06,,,,,,
0.886442006,,,,,,,,,,,0.005601446144282818,1,-0.009804727509617805,1,0.04247867688536644,1
0.889960706,0.005,-0.004220204427838326,-0.01973362453281879,-0.9957605600357056,-9.974317799787968e-05,-1.89406200661324e-05,-0.004981185309588909,-6.246799330256181e-06,9.447371667192783e-07,2.917399797297549e-06,,,,,,
0.891413271,,,,,,,,,,,0.003505436470732093,1,-0.005940913688391447,1,0.03953102976083755,1
0.894809604,0.005,-0.004012428224086761,-0.01990936324000359,-0.9954517483711243,-0.0001000879201455973,-1.823324055294506e-05,-0.004975724034011364,-1.042632788994524e-06,-2.579453166617895e-06,2.304180725332117e-06,,,,,,
0.896379411,,,,,,,,,,,0.001788846333511174,1,-0.003894583322107792,1,0.0425596684217453,1
0.899635434,0.005,-0.004582906607538462,-0.01982009224593639,-0.9953845143318176,-9.871173824649304e-05,-2.660631616890896e-05,-0.004976639524102211,-4.692448328569299e-06,4.891501603765391e-08,-2.62300045505981e-06,,,,,,
0.901340902,,,,,,,,,,,0.002671839203685522,1,-0.009492288343608379,1,0.04321819543838501,1
0.904439032,0.005,-0.004181907512247562,-0.01969482377171516,-0.9955093860626221,-9.718099317979068e-05,-1.853764842962846e-05,-0.004978422541171312,8.213861519834609e-07,-2.941454795291065e-06,2.667058424776769e-06,,,,,,
0.906298101,,,,,,,,,,,0.003910358529537916,1,-0.005564546212553978,1,0.04199348762631416,1
0.909309208,0.005,-0.00427305418998003,-0.01967301778495312,-0.9953613877296448,-9.848801710177213e-05,-2.143358324246947e-05,-0.004975896328687668,-1.446956503059482e-06,-2.49468916990736e-06,-5.640272775053745e-06,,,,,,
0.911340296,,,,,,,,,,,0.004142728168517351,1,-0.006464827340096235,1,0.04344454407691956,1
0.914514959,0.005,-0.004522011615335941,-0.0197709072381258,-0.9955785274505615,-9.955814311979339e-05,-2.429923551972024e-05,-0.004979141056537628,-4.787385023519164e-06,1.059392843671958e-06,-1.58697491769999e-06,,,,,,
0.916377604,,,,,,,,,,,0.003188098547980189,1,-0.008922343142330647,1,0.04131482914090157,1
0.919696391,0.005,-0.004174955654889345,-0.01991163939237595,-0.9956121444702148,-0.0001001337805064395,-1.891614192572888e-05,-0.004978357814252377,3.010961336258333e-06,-5.868607786396751e-06,5.477582817547955e-06,,,,,,
0.921410024,,,,,,,,,,,0.00182220758870244,1,-0.005524813197553158,1,0.04098470881581306,1
0.924852490,0.005,-0.004377773031592369,-0.01975123584270477,-0.9949655532836914,-9.811620111577213e-05,-2.256134212075267e-05,-0.004970486275851727,1.370665813738015e-06,-1.746235170685395e-06,-9.135237633017823e-07,,,,,,
0.926437616,,,,,,,,,,,0.00342167355120182,1,-0.007504002191126347,1,0.04732491075992584,1
0.929984510,0.005,-0.004306231159716845,-0.01958989910781384,-0.9953685402870178,-9.684113319963217e-05,-2.166727790609002e-05,-0.004979413002729416,-4.742252258438384e-06,-3.30312310836689e-08,3.565710585462512e-06,,,,,,
0.931461096,,,,,,,,,,,0.005016875918954611,1,-0.006803765892982483,1,0.04337253421545029,1
0.935093999,0.005,-0.003709999611601233,-0.01982441730797291,-0.9954925179481506,-0.000100042307167314,-1.4857577298244e-05,-0.004978143610060215,1.794016043277225e-06,-1.660583279772254e-06,-3.087836830673041e-07,,,,,,
0.936479986,,,,,,,,,,,0.002726775128394365,1,-0.000965464161708951,1,0.04215735197067261,1
0.940180480,0.005,-0.003873459994792938,-0.01971836015582085,-0.9955774545669556,-9.810530173126608e-05,-2.019376370299142e-05,-0.004978499375283718,3.043920287382207e-06,-9.372679414809681e-07,-7.905381607997697e-06,,,,,,
0.941493988,,,,,,,,,,,0.003779024817049503,1,-0.002547444310039282,1,0.04132401570677757,1
0.945244133,0.005,-0.004138709977269173,-0.01959328353404999,-0.9954456090927124,-9.718169167172164e-05,-2.231778125860728e-05,-0.004976056516170502,-1.08935500975349e-06,3.730643811650225e-06,6.703714348077483e-07,,,,,,
0.946503699,,,,,,,,,,,0.004997921641916037,1,-0.005140868946909904,1,0.04261656850576401,1
0.950284004,0.005,-0.003883094992488623,-0.01977659203112125,-0.9954243302345276,-9.977169975172728e-05,-1.784481173672248e-05,-0.00497704278677702,1.308419996348675e-06,-6.899175787111744e-06,4.700346835306846e-06,,,,,,
0.951508462,,,,,,,,,,,0.003212313633412123,1,-0.002618488855659962,1,0.04282460734248161,1
0.955300331,0.005,-0.003780165920034051,-0.02000404521822929,-0.9955103397369385,-0.0001016237656585872,-1.848551073635463e-05,-0.00497859064489603,-5.725188202632125e-06,1.582383902132278e-06,8.188565630007361e-07,,,,,,
0.956508934,,,,,,,,,,,0.0009919365402311087,1,-0.001612012041732669,1,0.0419812873005867,1
0.960294902,0.005,-0.003868310712277889,-0.01972636394202709,-0.9950324892997742,-9.691468585515395e-05,-1.977020656340756e-05,-0.004972420632839203,-6.395617901944206e-07,1.547782289890165e-06,-7.433499831677182e-06,,,,,,
0.961504757,,,,,,,,,,,0.003709547454491258,1,-0.002491326304152608,1,0.04666772484779358,1
0.965265155,0.005,-0.004136898554861546,-0.01964672282338142,-0.9951842427253723,-9.773677447810769e-05,-2.244393726869021e-05,-0.0049764234572649,-8.056100341491401e-06,-3.762039341381751e-06,-1.646913460717769e-06,,,,,,
0.966495991,,,,,,,,,,,0.004502061288803816,1,-0.005148833617568016,1,0.04517937824130058,1
0.970212877,0.005,-0.003638863563537598,-0.01931179314851761,-0.9955472350120544,-9.428952762391418e-05,-1.525876905361656e-05,-0.004979914985597134,2.855912498489488e-06,-9.646854550737771e-07,5.800679446110735e-06,,,,,,
0.971482396,,,,,,,,,,,0.007792654447257519,1,-0.0002850355813279748,1,0.04161915928125381,1
0.975141883,0.005,-0.00362480035983026,-0.01951134763658047,-0.995556116104126,-9.83685240498744e-05,-1.80204187927302e-05,-0.0049782101996243,1.567940671520773e-06,-4.931986950396094e-06,5.320288209986757e-07,,,,,,
0.976465404,,,,,,,,,,,0.005859010387212038,1,-0.0001405954681104049,1,0.04153193533420563,1
0.980048656,0.005,-0.003820626996457577,-0.01979313418269157,-0.9955512285232544,-0.0001009071347652934,-2.010210664593615e-05,-0.004977702628821135,-2.934318899860955e-06,4.91582522954559e-06,1.329536985394952e-06,,,,,,
0.981443346,,,,,,,,,,,0.003091574180871248,1,-0.00205995817668736,1,0.04158033430576324,1
0.984932125,0.005,-0.003934971056878567,-0.01965082623064518,-0.9954103827476501,-9.758638771018013e-05,-2.043666972895153e-05,-0.004975920543074608,-4.131908553972607e-06,-7.600017397635384e-07,2.425140564810135e-06,,,,,,
0.986416638,,,,,,,,,,,0.004484785720705986,1,-0.003194951917976141,1,0.04296276718378067,1
0.989791214,0.005,-0.003796581411734223,-0.01967829465866089,-0.9953617453575134,-9.816336387302727e-05,-1.84888831427088e-05,-0.00497695617377758,-2.558146888986812e-06,9.786537802369821e-09,1.378512934024911e-06,,,,,,
0.991385102,,,,,,,,,,,0.004212117288261652,1,-0.001863657613284886,1,0.04343895986676216,1
0.994627357,0.005,-0.00348631152883172,-0.01966362819075584,-0.9954930543899536,-9.8205498943571e-05,-1.554524897073861e-05,-0.004978305660188198,-1.317562237090897e-06,-2.302121629327303e-06,-9.612663376401542e-08,,,,,,
0.996348679,,,,,,,,,,,0.004364752676337957,1,0.001165134133771062,1,0.0421510748565197,1
0.999439895,0.005,-0.003637031186372042,-0.01954717002809048,-0.9955516457557678,-9.659251372795552e-05,-1.8722292224993e-05,-0.004978181794285774,-2.516458835088997e-06,3.558976686690585e-06,-7.606287908856757e-06,,,,,,
1.001307607,,,,,,,,,,,0.005499385762959719,1,-0.0003252665628679097,1,0.04157732799649239,1
1.004317641,0.005,-0.0039698276668787,-0.01932371221482754,-0.9957262277603149,-9.585700172465295e-05,-2.21277787204599e-05,-0.004979705903679132,2.265474279283808e-07,-2.618047119540279e-06,-3.090474820055533e-06,,,,,,
1.006350279,,,,,,,,,,,0.007682790979743004,1,-0.003597778268158436,1,0.03986512869596481,1
1.009526253,0.005,-0.00389568111859262,-0.01948758028447628,-0.99574875831604,-9.80042532319203e-05,-1.91744929907145e-05,-0.004979157820343971,1.409993274137378e-06,-1.009905417959089e-06,1.700210191302176e-06,,,,,,
1.011388421,,,,,,,,,,,0.006078926846385002,1,-0.002863629255443811,1,0.03964352980256081,1
1.014711499,0.005,-0.004023081157356501,-0.01966368593275547,-0.9957151412963867,-9.947430953616276e-05,-2.086755557684228e-05,-0.004978528711944818,-4.397184511617525e-06,-3.032276481462759e-06,-2.665125975909177e-06,,,,,,
1.016421914,,,,,,,,,,,0.004360932856798172,1,-0.004125956445932388,1,0.03997236862778664,1
1.019873023,0.005,-0.004083765204995871,-0.01950526237487793,-0.9956071972846985,-9.669024439062923e-05,-2.099144876410719e-05,-0.004977090749889612,-1.460480003601106e-08,1.847466592153069e-06,-2.388063194302958e-06,,,,,,
1.021450996,,,,,,,,,,,0.005919954739511013,1,-0.004726111888885498,1,0.04103096574544907,1
1.025012255,0.005,-0.004240540321916342,-0.01953917741775513,-0.9955888390541077,-9.766864968696609e-05,-2.193631189584266e-05,-0.004977800417691469,-1.66926724887162e-06,2.046790996246273e-06,1.322377158885502e-07,,,,,,
1.026475549,,,,,,,,,,,0.005579723976552486,1,-0.006264879368245602,1,0.04121144115924835,1
1.030126095,0.005,-0.004235148429870605,-0.01980318687856197,-0.9956980347633362,-0.0001003148863674141,-2.132065856130794e-05,-0.004979013931006193,-2.710126409510849e-06,-1.339353843832214e-06,-6.948897066649806e-07,,,,,,
1.031495214,,,,,,,,,,,0.002987403888255358,1,-0.006219463422894478,1,0.04014099761843681,1
1.035215378,0.005,-0.004219169728457928,-0.01988639868795872,-0.9961284399032593,-0.0001003429933916777,-2.070950540655758e-05,-0.004983964376151562,1.528804659756133e-06,-4.287854153517401e-06,2.5178708256135e-06,,,,,,
1.036509991,,,,,,,,,,,0.002176669659093022,1,-0.006066969130188227,1,0.03591968864202499,1
1.040280581,0.005,-0.004137012641876936,-0.01972557231783867,-0.9959624409675598,-9.721978130983189e-05,-2.028514063567854e-05,-0.0049789659678936,1.960603867701138e-06,-2.19656203626073e-06,-2.163926637877012e-06,,,,,,
1.041519880,,,,,,,,,,,0.003773141419515014,1,-0.00525504257529974,1,0.03754787147045135,1
1.045321703,0.005,-0.004209571518003941,-0.01980333589017391,-0.995288610458374,-9.949215746019036e-05,-2.170839798054658e-05,-0.004972450435161591,-1.22974358873762e-06,9.192320362672035e-07,-1.936745093189529e-06,,,,,,
1.046524882,,,,,,,,,,,0.00302359159104526,1,-0.005958710797131062,1,0.04415567219257355,1
1.050339103,0.005,-0.004328485578298569,-0.01957464218139648,-0.995201587677002,-9.63833590503782e-05,-2.243869312223978e-05,-0.004975175485014915,-1.377323656015506e-06,2.157068763608549e-07,-3.857530259665509e-07,,,,,,
1.051525354,,,,,,,,,,,0.005263631697744131,1,-0.007122473325580359,1,0.04500883817672729,1
1.055331588,0.005,-0.00391871016472578,-0.01966720819473267,-0.9953394532203674,-9.86517479759641e-05,-1.696737126621883e-05,-0.004977868869900703,3.370140348124551e-06,-2.823074282787275e-06,1.029752866088529e-06,,,,,,
1.056520700,,,,,,,,,,,0.004364300519227982,1,-0.003099172376096249,1,0.04365629330277443,1
1.060300589,0.005,-0.003924247343093157,-0.01945138536393642,-0.9954001903533936,-9.580164623912424e-05,-1.966982199519407e-05,-0.004977749660611153,3.15389087290896e-07,1.056172436619818e-06,-1.384937604598235e-06,,,,,,
1.061511397,,,,,,,,,,,0.006480484269559383,1,-0.003134028287604451,1,0.04306041821837425,1
1.065244913,0.005,-0.00402920925989747,-0.01955414190888405,-0.9955570101737976,-9.824879089137539e-05,-2.081456295854878e-05,-0.004978176672011614,4.976689979230287e-06,-4.640550287149381e-06,3.194042619725224e-06,,,,,,
1.066497326,,,,,,,,,,,0.005480729974806309,1,-0.004137824755162001,1,0.04152242094278336,1
1.070165753,0.005,-0.004072553943842649,-0.01953780278563499,-0.9960286021232605,-9.761254477780312e-05,-2.021116051764693e-05,-0.00498273316770792,-1.228556925525481e-06,1.907407749968115e-06,3.27908946928801e-06,,,,,,
1.071478248,,,,,,,,,,,0.00564955547451973,1,-0.004535898566246033,1,0.03689733892679214,1
1.075063825,0.005,-0.003859988180920482,-0.0198466032743454,-0.9959409236907959,-0.000101161545899231,-1.797868389985524e-05,-0.004979395773261786,-3.715095090228715e-06,7.347764494625153e-07,-1.937983370225993e-06,,,,,,
1.076454639,,,,,,,,,,,0.002626013243570924,1,-0.002452747896313667,1,0.03775744140148163,1
1.079938054,0.005,-0.004215341527014971,-0.01957052946090698,-0.9954105615615845,-9.616876195650548e-05,-2.307888644281775e-05,-0.004973703529685736,-1.622565832803957e-06,9.256431781068386e-07,1.722407318993646e-06,,,,,,
1.081426144,,,,,,,,,,,0.00532611645758152,1,-0.005945966579020023,1,0.04295942559838295,1
1.084789515,0.005,-0.004269842058420181,-0.01967625692486763,-0.9952878355979919,-9.891442459775135e-05,-2.165508703910746e-05,-0.004975539166480303,-3.12842439598171e-06,-4.71238899990567e-06,2.831910251188674e-06,,,,,,
1.086392879,,,,,,,,,,,0.004299327731132507,1,-0.006493759341537952,1,0.04416288435459137,1
1.089616656,0.005,-0.004093877971172333,-0.01964646764099598,-0.9954895973205566,-9.830694762058556e-05,-1.951741069206037e-05,-0.004978233017027378,-4.57256828667596e-06,-3.809032477875007e-06,8.999443252832862e-07,,,,,,
1.091354847,,,,,,,,,,,0.004608162678778172,1,-0.004788345191627741,1,0.04218409955501556,1
1.094421029,0.005,-0.004047463182359934,-0.01967820711433887,-0.9957623481750488,-9.86666273092851e-05,-1.981454806809779e-05,-0.004980804864317179,1.57439416170746e-07,-2.667466105776839e-06,1.092797788260214e-06,,,,,,
1.096311808,,,,,,,,,,,0.004289392847567797,1,-0.004323132801800966,1,0.03950940072536469,1
1.099291921,0.005,-0.00403550872579217,-0.01981664262712002,-0.996069073677063,-0.0001000697739073075,-1.990907912841067e-05,-0.004982398822903633,-1.232387376148836e-06,-1.832593852668651e-06,2.196067271142965e-06,,,,,,
1.101354718,,,,,,,,,,,0.002926323795691133,1,-0.004193970467895269,1,0.03650101646780968,1
1.104501963,0.005,-0.004068965092301369,-0.0197585504502058,-0.9955069422721863,-9.825570305110887e-05,-2.064273576252162e-05,-0.004974360577762127,-2.350268914597109e-06,-1.41975021961116e-06,-8.931660744337933e-09,,,,,,
1.106392860,,,,,,,,,,,0.003500699531286955,1,-0.004521866794675589,1,0.04201371222734451,1
1.109687328,0.005,-0.003965802025049925,-0.01973760314285755,-0.9955290555953979,-9.831180796027184e-05,-1.95354859897634e-05,-0.004977777134627104,4.643951342586661e-06,-2.074618350889068e-06,1.178904312837403e-06,,,,,,
1.111425996,,,,,,,,,,,0.003718040883541107,1,-0.003492390736937523,1,0.0417960099875927,1
1.114846945,0.005,-0.003918524831533432,-0.01950219832360744,-0.9957826733589172,-9.616332681616768e-05,-1.910460377985146e-05,-0.004980632569640875,-8.695993756191456e-07,1.791693080122059e-06,-1.659583290347655e-06,,,,,,
1.116454363,,,,,,,,,,,0.006025887560099363,1,-0.003009945852681994,1,0.03930870071053505,1
1.119981527,0.005,-0.0036682088393718,-0.01964585855603218,-0.9957433342933655,-9.945739293470979e-05,-1.671056816121563e-05,-0.004978581331670284,-2.405528675808455e-06,-6.222713636816479e-06,6.800412961638358e-07,,,,,,
1.121477842,,,,,,,,,,,0.004627303685992956,1,-0.0005571650108322501,1,0.03969380632042885,1
1.125091314,0.005,-0.003858822863548994,-0.01986238919198513,-0.9960482120513916,-0.0001003937795758247,-2.048327223747037e-05,-0.004982545971870422,-2.707140993152279e-06,-1.395786171087821e-06,2.286688413732918e-06,,,,,,
1.126496553,,,,,,,,,,,0.00252981367520988,1,-0.002434128895401955,1,0.03670360520482063,1
1.130175948,0.005,-0.003722504246979952,-0.01964688487350941,-0.9958198666572571,-9.731374302646145e-05,-1.74208907992579e-05,-0.004977861419320107,-2.238595243397867e-06,-1.26256350085896e-06,6.113303925303626e-07,,,,,,
1.131510258,,,,,,,,,,,0.004663190804421902,1,-0.001112779253162444,1,0.03894288837909698,1
1.135236859,0.005,-0.003992805257439613,-0.01962014101445675,-0.9955973625183105,-9.776474325917661e-05,-2.203299300163053e-05,-0.004977116361260414,-6.116614486018079e-07,1.754527829689323e-06,6.895767228343175e-07,,,,,,
1.136519432,,,,,,,,,,,0.004921491257846355,1,-0.003767611226066947,1,0.04112504795193672,1
1.140273690,0.005,-0.004156566224992275,-0.01967207528650761,-0.995603084564209,-9.86220984486863e-05,-2.145675352949183e-05,-0.004977610427886248,-8.108322617772501e-06,-3.862310677504865e-06,1.275193767469318e-06,,,,,,
1.141523480,,,,,,,,,,,0.00442433962598443,1,-0.005396868102252483,1,0.04106888920068741,1
1.145288944,0.005,-0.003772246884182096,-0.01975112967193127,-0.9953204989433289,-9.91340639302507e-05,-1.72317995748017e-05,-0.004975848365575075,-1.197858864543377e-06,-1.54322935941309e-06,9.660818705015117e-07,,,,,,
1.146523952,,,,,,,,,,,0.003663172479718924,1,-0.001655880128964782,1,0.04383998364210129,1
1.150284290,0.005,-0.004134299699217081,-0.01961592026054859,-0.9954169988632202,-9.764440619619563e-05,-2.219756242993753e-05,-0.004976767580956221,7.141154583223397e-07,1.450280365133949e-06,1.555890889903822e-06,,,,,,
1.151520014,,,,,,,,,,,0.004991208668798208,1,-0.005218707490712404,1,0.04289387539029121,1
1.155255795,0.005,-0.003827011911198497,-0.01956544257700443,-0.9956287741661072,-9.747638250701129e-05,-1.744717519613914e-05,-0.004979716613888741,-7.932439984870143e-06,-2.003889903789968e-06,1.76695857589948e-06,,,,,,
1.156511188,,,,,,,,,,,0.005491507705301046,1,-0.002232788363471627,1,0.04081739857792854,1
1.160204768,0.005,-0.004078051075339317,-0.01947884447872639,-0.9962568879127502,-9.687402052804828e-05,-2.202294308517594e-05,-0.004985414911061525,5.706178285436181e-07,2.124537104464252e-06,4.764068307849811e-06,,,,,,
1.161497831,,,,,,,,,,,0.006333126686513424,1,-0.004716291557997465,1,0.03465742990374565,1
1.165130019,0.005,-0.003649431513622403,-0.01953316666185856,-0.9951945543289185,-9.833783406065777e-05,-1.504819192632567e-05,-0.004969435278326273,3.177074404447922e-06,2.719367785175564e-06,2.022427679548855e-06,,,,,,
1.166479588,,,,,,,,,,,0.00579196447506547,1,-0.0005143037997186184,1,0.04507521167397499,1
1.170031667,0.005,-0.004017052240669727,-0.01972441747784615,-0.9955666661262512,-9.934550325851887e-05,-2.245520772703458e-05,-0.004980519879609346,2.32238733133272e-07,-3.2936532079475e-06,3.489151595204021e-06,,,,,,
1.171457052,,,,,,,,,,,0.003913884051144123,1,-0.004110203124582767,1,0.04142572730779648,1
1.174911022,0.005,-0.003780124709010124,-0.02005071565508842,-0.9955699443817139,-0.0001020264971884899,-1.696718754828908e-05,-0.004977442789822817,-1.171581743619754e-06,-3.546694870237843e-06,1.140058202508953e-06,,,,,,
1.176429868,,,,,,,,,,,0.000726542784832418,1,-0.001782326144166291,1,0.04139284789562225,1
1.179767609,0.005,-0.003642022842541337,-0.01992113143205643,-0.9956486225128174,-9.922085155267268e-05,-1.79546550498344e-05,-0.00497948145493865,-4.179205006948905e-06,-2.598950032961511e-08,-1.365950424769835e-06,,,,,,
1.181397557,,,,,,,,,,,0.002008328214287758,1,-0.0004350897506810725,1,0.04062119871377945,1
1.184601068,0.005,-0.004205805249512196,-0.02013695426285267,-0.9956402778625488,-0.0001016114401863888,-2.401868368906435e-05,-0.004977499134838581,-2.3139575660025e-06,-2.092968543365714e-06,3.740868578461232e-06,,,,,,
1.186360598,,,,,,,,,,,-0.0001003668876364827,1,-0.005982223898172379,1,0.04070304706692696,1
1.189411879,0.005,-0.003787263762205839,-0.01992259919643402,-0.9957884550094604,-9.857127588475123e-05,-1.70642088050954e-05,-0.004980624653398991,2.177520173063385e-06,-6.1339001149463e-06,-1.336819792641109e-07,,,,,,
1.191318750,,,,,,,,,,,0.002026780275627971,1,-0.001878694863989949,1,0.0392499640583992,1
1.194199800,0.005,-0.003858143230900168,-0.01976411044597626,-0.9955589175224304,-9.770003089215606e-05,-1.939817593665794e-05,-0.0049757887609303,2.023252143601439e-08,-7.801208568025686e-08,1.077394244930474e-06,,,,,,
1.196362019,,,,,,,,,,,0.00360130169428885,1,-0.002566687762737274,1,0.04150067642331123,1
1.199410915,0.005,-0.003550709690898657,-0.01950293406844139,-0.9949763417243958,-9.600489283911884e-05,-1.612193955224939e-05,-0.004971519112586975,-3.929312697437126e-06,1.267209768229804e-06,-4.246487890213757e-07,,,,,,
1.201400280,,,,,,,,,,,0.006170436274260283,1,0.0004378059238661081,1,0.04721353203058243,1
1.204598069,0.005,-0.00369561742991209,-0.01964615285396576,-0.9958351850509644,-9.901101293507963e-05,-1.954838990059216e-05,-0.004984574858099222,-3.856322564388392e-06,-7.990723247530696e-07,-1.458247311347804e-06,,,,,,
1.206434011,,,,,,,,,,,0.004771464504301548,1,-0.0009975438006222248,1,0.03879095241427422,1
1.209761500,0.005,-0.003802908351644874,-0.01932430453598499,-0.9953820109367371,-9.461033914703876e-05,-1.94308868231019e-05,-0.004974113311618567,3.519847268762533e-06,-3.193354132235982e-06,4.019535026600352e-06,,,,,,
1.211462855,,,,,,,,,,,0.007938280701637268,1,-0.002052335999906063,1,0.04323534294962883,1
1.214898944,0.005,-0.004284501075744629,-0.01943244971334934,-0.9953355193138123,-9.779004903975874e-05,-2.452687112963758e-05,-0.004977099597454071,3.153156512780697e-06,6.990719612076646e-07,1.85818259978987e-06,,,,,,
1.216486931,,,,,,,,,,,0.006884622853249311,1,-0.006757652387022972,1,0.04369098693132401,1
1.220011473,0.005,-0.004218625370413065,-0.01951783336699009,-0.9952588081359863,-9.813060751184821e-05,-2.046747977146879e-05,-0.004974770359694958,-9.102431874907779e-08,2.719134727158234e-06,8.146960226440569e-07,,,,,,
1.221506000,,,,,,,,,,,0.006040546577423811,1,-0.006095923949033022,1,0.04444346576929092,1
1.225100517,0.005,-0.003725259564816952,-0.01977232098579407,-0.9955178499221802,-0.0001003177603706717,-1.554866139485966e-05,-0.004979555960744619,5.543190127355047e-06,1.992727476363143e-07,-6.790256179556309e-07,,,,,,
1.226520300,,,,,,,,,,,0.003535451600328088,1,-0.001229634741321206,1,0.04190342873334885,1
1.230164170,0.005,-0.004063725005835295,-0.01946233585476875,-0.9956678748130798,-9.554381540510803e-05,-2.199274240410887e-05,-0.004978979006409645,-1.662167960603256e-06,4.396395070216386e-06,-5.793610853288556e-07,,,,,,
1.231529713,,,,,,,,,,,0.006558449938893318,1,-0.004531130660325289,1,0.04043164849281311,1
1.235206962,0.005,-0.004076677840203047,-0.01947663724422455,-0.9953153133392334,-9.739700908539817e-05,-2.039814899035264e-05,-0.004974273033440113,-1.667790343162778e-06,1.933753310368047e-06,2.05593642021995e-06,,,,,,
1.236535072,,,,,,,,,,,0.006391816306859255,1,-0.004648000001907349,1,0.04389012232422829,1
1.240224481,0.005,-0.004075204487890005,-0.01937595382332802,-0.9956085085868835,-9.673064778326079e-05,-2.090927773679141e-05,-0.004979855380952358,-4.851744961342774e-06,1.540899575047661e-06,1.386572307637834e-06,,,,,,
1.241535544,,,,,,,,,,,0.007355201989412308,1,-0.00464086327701807,1,0.04101479426026344,1
1.245219111,0.005,-0.004081188701093197,-0.01933682896196842,-0.9957716464996338,-9.616737952455878e-05,-2.002615292440169e-05,-0.004980095662176609,-7.105631425474712e-07,-2.376209977228427e-06,2.039210585280671e-06,,,,,,
1.246531129,,,,,,,,,,,0.007732094265520573,1,-0.004716102499514818,1,0.03941511362791061,1
1.250188828,0.005,-0.004192740190774202,-0.01948431879281998,-0.9957579970359802,-9.828543261392042e-05,-2.172520180465654e-05,-0.004978477023541927,-9.766007451617043e-07,1.36035760078812e-06,-3.043059450646979e-06,,,,,,
1.251521826,,,,,,,,,,,0.006279126740992069,1,-0.005814598873257637,1,0.03954995423555374,1
1.255134702,0.005,-0.004220135509967804,-0.01951826363801956,-0.995491087436676,-9.792365017347038e-05,-2.157230846933089e-05,-0.004975695163011551,-3.96264340452035e-07,6.221788453331101e-07,-3.551393774614553e-06,,,,,,
1.256507635,,,,,,,,,,,0.005931026767939329,1,-0.006086843553930521,1,0.04216751083731651,1
1.260056615,0.005,-0.004065745044499636,-0.01989352144300938,-0.9956488013267517,-0.0001021095231408253,-1.919561691465788e-05,-0.004978909622877836,-2.04070306608628e-06,-7.60040279601526e-07,2.720052407312323e-06,,,,,,
1.261488676,,,,,,,,,,,0.00224692840129137,1,-0.004575514700263739,1,0.04062085971236229,1
1.264954567,0.005,-0.004229641519486904,-0.01956727355718613,-0.9959600567817688,-9.582554775988683e-05,-2.208659316238482e-05,-0.004982032813131809,-6.610866307710239e-07,1.150261596194468e-06,3.171007847413421e-06,,,,,,
1.266465068,,,,,,,,,,,0.005438054911792278,1,-0.006196334958076477,1,0.03756914287805557,1
1.269829392,0.005,-0.004262384027242661,-0.0193545650690794,-0.995898962020874,-9.563715138938278e-05,-2.107685395458248e-05,-0.004979061894118786,-9.228830322172143e-07,7.403315862575255e-07,3.574271886463976e-06,,,,,,
1.271436334,,,,,,,,,,,0.007522325031459332,1,-0.006519351154565811,1,0.03816835209727287,1
1.274679780,0.005,-0.004408237058669329,-0.0194296445697546,-0.9960523843765259,-9.721927199279889e-05,-2.330412644369062e-05,-0.004980888683348894,5.910129061703628e-07,-1.602037741577078e-06,-3.47571358361165e-07,,,,,,
1.276402950,,,,,,,,,,,0.006780234631150961,1,-0.007948425598442554,1,0.03666422143578529,1
1.279507160,0.005,-0.004432829096913338,-0.01941955275833607,-0.9957594871520996,-9.722474351292476e-05,-2.208138903370127e-05,-0.004977291449904442,2.048597707471345e-06,4.457597697182791e-06,-2.187468908232404e-06,,,,,,
1.281364679,,,,,,,,,,,0.006867676973342896,1,-0.008177207782864571,1,0.03953671082854271,1
1.284310818,0.005,-0.004478087183088064,-0.0197112187743187,-0.995514452457428,-0.0001004199439194053,-2.27139735216042e-05,-0.004976001568138599,-5.09973432372135e-08,-4.204455592571321e-07,-4.206533958495129e-06,,,,,,
1.286321878,,,,,,,,,,,0.003986726514995098,1,-0.008610976859927177,1,0.04193960502743721,1
1.289092660,0.005,-0.00429785531014204,-0.01946740224957466,-0.9955952763557434,-9.596745803719386e-05,-2.044839857262559e-05,-0.00497814966365695,1.336951640951156e-06,-6.065642082830891e-06,-4.448303343451698e-07,,,,,,
1.291365623,,,,,,,,,,,0.006391963921487331,1,-0.006830801256000996,1,0.04114615917205811,1
1.294307351,0.005,-0.004003241192549467,-0.0193523820489645,-0.9955311417579651,-9.562809282215312e-05,-1.862668068497442e-05,-0.004977486096322536,-1.986686868349352e-07,2.174277369704214e-06,1.427144553645121e-07,,,,,,
1.296404481,,,,,,,,,,,0.007501146290451288,1,-0.003903689794242382,1,0.0417754203081131,1
1.299497724,0.005,-0.003779785940423608,-0.01925314776599407,-0.9955074787139893,-9.610565030016005e-05,-1.76122339325957e-05,-0.004976967349648476,-5.268021823212621e-07,4.888433977612294e-06,-2.253290631415439e-06,,,,,,
1.301438689,,,,,,,,,,,0.00843928474932909,1,-0.001694700913503766,1,0.04200825095176697,1
1.304666400,0.005,-0.003697984851896763,-0.01938807591795921,-0.9958471059799194,-9.768239397089928e-05,-1.769303344190121e-05,-0.004981497768312693,-2.570793412814965e-06,2.836793328242493e-06,-3.913490672857733e-06,,,,,,
1.306468844,,,,,,,,,,,0.007076907902956009,1,-0.0008781834621913731,1,0.03867895156145096,1
1.309811234,0.005,-0.003696180181577802,-0.01928356289863586,-0.9958946704864502,-9.555005090078339e-05,-1.854240872489754e-05,-0.004979596007615328,-1.962114311027108e-06,-3.474684490356594e-06,-1.550242700432136e-06,,,,,,
1.311494112,,,,,,,,,,,0.008092416450381279,1,-0.0008601493900641799,1,0.0382126048207283,1
1.314931989,0.005,-0.003610583720728755,-0.01944738253951073,-0.9956608414649963,-9.780842810869217e-05,-1.74903470906429e-05,-0.004976804368197918,-4.591515335050644e-06,1.93231062439736e-06,8.665729183121584e-07,,,,,,
1.316515088,,,,,,,,,,,0.006477681454271078,1,-3.582505451049656e-05,1,0.04050543159246445,1
1.320029140,0.005,-0.003652108367532492,-0.01966969296336174,-0.9957390427589417,-9.982495976146311e-05,-1.845998849603347e-05,-0.004979021847248077,1.566168066347018e-06,5.587371632032045e-08,2.517110488042817e-06,,,,,,
1.321531177,,,,,,,,,,,0.004279969725757837,1,-0.0004509607679210603,1,0.03973861038684845,1
1.325102329,0.005,-0.003541315905749798,-0.01990760862827301,-0.9956275820732117,-0.00010106478293892,-1.696065555734094e-05,-0.004977532662451267,9.440686881134752e-07,4.595653990691062e-06,3.470379624559428e-06,,,,,,
1.326542377,,,,,,,,,,,0.001934772590175271,1,0.0006372854113578796,1,0.04083199799060822,1
1.330152392,0.005,-0.00354439509101212,-0.01952364854514599,-0.9954845309257507,-9.530373790767044e-05,-1.746521957102232e-05,-0.004976509604603052,-1.463260900891328e-06,1.682141146375216e-06,-5.34213540959172e-06,,,,,,
1.331549168,,,,,,,,,,,0.005672363564372063,1,0.0006104634376242757,1,0.04223551228642464,1
1.335179210,0.005,-0.003867940045893192,-0.01961043477058411,-0.9956606030464172,-9.826812311075628e-05,-2.141249569831416e-05,-0.004979148507118225,-2.813059381878702e-06,-1.928298615894164e-06,-6.996193860686617e-06,,,,,,
1.336551428,,,,,,,,,,,0.00480679189786315,1,-0.00256958813406527,1,0.04050925746560097,1
1.340182781,0.005,-0.003974038176238537,-0.01944286376237869,-0.9957525730133057,-9.61205514613539e-05,-2.023203342105262e-05,-0.004979509860277176,5.18358092449489e-07,-1.205159492201346e-06,1.197991991830349e-06,,,,,,
1.341549039,,,,,,,,,,,0.006448549218475819,1,-0.003611523192375898,1,0.03960735723376274,1
1.345162272,0.005,-0.003876646282151341,-0.01947171241044998,-0.9955624938011169,-9.740437963046134e-05,-1.85184326255694e-05,-0.004976615309715271,-1.238255549651512e-06,-6.335088983178139e-06,1.180663922184522e-08,,,,,,
1.346541882,,,,,,,,,,,0.006187716033309698,1,-0.002653536619618535,1,0.04147106781601906,1
1.350123525,0.005,-0.003879911731928587,-0.0191508810967207,-0.9953890442848206,-9.377050446346402e-05,-1.923983109008987e-05,-0.004976026248186827,-2.061283197463126e-07,3.045472794838133e-06,-6.065130946808495e-06,,,,,,
1.351531267,,,,,,,,,,,0.009343008510768414,1,-0.002689652610570192,1,0.04317193105816841,1
1.355063081,0.005,-0.004167778883129358,-0.01928409561514854,-0.9953984022140503,-9.736230276757851e-05,-2.307445538463071e-05,-0.004976975731551647,-1.220340436702827e-06,1.027049620461185e-06,-3.061142024307628e-06,,,,,,
1.356515884,,,,,,,,,,,0.00803205743432045,1,-0.005517169833183289,1,0.04307974874973297,1
1.359979272,0.005,-0.00407852279022336,-0.01950019970536232,-0.9954842329025269,-9.862326260190457e-05,-1.949601210071705e-05,-0.004977495409548283,1.696945446383324e-06,-1.58115881276899e-06,-2.39999025097859e-07,,,,,,
1.361496091,,,,,,,,,,,0.005911482032388449,1,-0.004628358408808708,1,0.04223813489079475,1
1.364872694,0.005,-0.004434362985193729,-0.01957094296813011,-0.9958803653717041,-9.838506957748905e-05,-2.403932194283698e-05,-0.004981894977390766,-1.192811510009051e-06,-3.233773213651148e-06,-2.775068878690945e-06,,,,,,
1.366471171,,,,,,,,,,,0.005224945954978466,1,-0.0081161018460989,1,0.03835278376936913,1
1.369742393,0.005,-0.004177633672952652,-0.01975347101688385,-0.9957848191261292,-0.000100100070994813,-1.940166112035513e-05,-0.004978424403816462,-1.524228991911514e-06,1.844049961619021e-06,2.12675718103128e-06,,,,,,
1.371441722,,,,,,,,,,,0.003441867185756564,1,-0.005597210489213467,1,0.03928997740149498,1
1.374588966,0.005,-0.003997820429503918,-0.01985155045986176,-0.995753288269043,-9.99313488136977e-05,-1.883312870631926e-05,-0.00497838482260704,-2.052191803159076e-06,6.757929327250167e-07,-2.376316842855886e-06,,,,,,
1.376407266,,,,,,,,,,,0.002472830470651388,1,-0.003842162434011698,1,0.03959912061691284,1
1.379412174,0.005,-0.004389100708067417,-0.02002600580453873,-0.9955456852912903,-0.0001011870190268382,-2.450022293487564e-05,-0.004976731725037098,6.098009066590748e-07,-2.217248493252555e-06,-6.954292643968074e-07,,,,,,
1.381368279,,,,,,,,,,,0.0007656321977265179,1,-0.007679963018745184,1,0.04163479059934616,1
1.384212732,0.005,-0.004324589855968952,-0.02007697336375713,-0.9953778982162476,-0.0001010253763524815,-2.106939791701734e-05,-0.004976065363734961,-2.736996407293191e-07,9.50234948504658e-07,2.809479610732524e-06,,,,,,
1.386412263,,,,,,,,,,,0.000271493976470083,1,-0.007044789381325245,1,0.04327981919050217,1
1.389427423,0.005,-0.004306889604777098,-0.019868528470397,-0.9954462647438049,-9.828672045841813e-05,-2.146120823454112e-05,-0.004977625329047441,-2.891270014515612e-06,8.511413511769206e-07,-2.707368139454047e-06,,,,,,
1.391451359,,,,,,,,,,,0.002310013398528099,1,-0.006874086335301399,1,0.04260960593819618,1
1.394618392,0.005,-0.004338969942182302,-0.01968605071306229,-0.9954648017883301,-9.706182754598558e-05,-2.183330070693046e-05,-0.004977586679160595,1.410790105182969e-06,-2.665201463969424e-07,1.105619162444782e-06,,,,,,
1.396485686,,,,,,,,,,,0.004095699638128281,1,-0.007185818627476692,1,0.04242809116840363,1
1.399783134,0.005,-0.004357316065579653,-0.01969097182154655,-0.9955845475196838,-9.864252933766693e-05,-2.204403426731005e-05,-0.004978387616574764,-1.131516455643578e-06,-4.306643859308679e-06,2.753925173237803e-06,,,,,,
1.401515245,,,,,,,,,,,0.00405146786943078,1,-0.007363704033195972,1,0.04125380143523216,1
1.404925704,0.005,-0.004153422079980373,-0.0198663454502821,-0.9956017136573792,-0.0001002349017653614,-1.956254891410936e-05,-0.004978373646736145,-4.904117304249667e-06,-2.186091705880244e-06,-2.67714426627208e-06,,,,,,
1.406540275,,,,,,,,,,,0.0023461754899472,1,-0.005377042107284069,1,0.04108529165387154,1
1.410043597,0.005,-0.004053520504385233,-0.01973554119467735,-0.9958774447441101,-9.818169928621501e-05,-1.936606895469595e-05,-0.004980948753654957,2.564872374932747e-06,-3.155926435738365e-07,-1.024742601885009e-08,,,,,,
1.411560416,,,,,,,,,,,0.003646001452580094,1,-0.004397844430059195,1,0.03838155046105385,1
1.415136814,0.005,-0.00415265467017889,-0.01999314874410629,-0.9957296252250671,-0.00010166026186198,-2.099255834764335e-05,-0.004978112876415253,-3.29067029269936e-06,-3.414635784793063e-06,-5.838641641275899e-07,,,,,,
1.416576028,,,,,,,,,,,0.00112744199577719,1,-0.005375761073082685,1,0.03983132541179657,1
1.420205593,0.005,-0.004276738967746496,-0.01992756687104702,-0.9955819845199585,-9.923483594320714e-05,-2.219867747044191e-05,-0.004976718220859766,-7.500585979869356e-06,-2.514521611374221e-06,-2.629454002089915e-06,,,,,,
1.421586394,,,,,,,,,,,0.001792742870748043,1,-0.006617160979658365,1,0.04127882421016693,1
1.425250053,0.005,-0.004272183869034052,-0.01986600086092949,-0.9954665899276733,-9.891948138829321e-05,-2.13174607779365e-05,-0.004976635333150625,-5.164923550182721e-06,-6.445038252422819e-06,-2.089307372443727e-06,,,,,,
1.426591992,,,,,,,,,,,0.00242684711702168,1,-0.00661022961139679,1,0.04240932315587997,1
1.430270672,0.005,-0.003980704583227634,-0.01982434280216694,-0.9954544305801392,-9.925394260790199e-05,-1.855219852586742e-05,-0.004977487958967686,3.354909381414473e-07,1.759549036250974e-06,-3.934650976589182e-06,,,,,,
1.431592941,,,,,,,,,,,0.002858774503692985,1,-0.003778559388592839,1,0.04252834990620613,1
1.435266852,0.005,-0.004038064274936914,-0.01992700435221195,-0.9955646395683289,-0.0001000916454358958,-2.066811248369049e-05,-0.00497820321470499,6.351644401547674e-07,-1.280372657674889e-06,3.439500005697482e-06,,,,,,
1.436588764,,,,,,,,,,,0.001862112549133599,1,-0.004356220364570618,1,0.04144744575023651,1
1.440239310,0.005,-0.004026913084089756,-0.0200249720364809,-0.9958191514015198,-0.0001006784586934373,-2.031016447290312e-05,-0.004980935249477625,2.135963313776301e-06,-4.725724011223065e-06,-1.70168300428486e-06,,,,,,
1.441580057,,,,,,,,,,,0.000925261527299881,1,-0.004239172674715519,1,0.03895134478807449,1
1.445187330,0.005,-0.004118639510124922,-0.01995488815009594,-0.9955630898475647,-9.950067033059895e-05,-2.065155786112882e-05,-0.004976512864232063,-1.65845983701729e-06,-3.835799361695535e-06,-1.471079713155632e-06,,,,,,
1.446566105,,,,,,,,,,,0.001635210355743766,1,-0.00513255363330245,1,0.04146234691143036,1
1.450111747,0.005,-0.00403111893683672,-0.02005461603403091,-0.995582640171051,-0.0001007734099403024,-1.974370388779789e-05,-0.004977796226739883,-2.266286855956423e-06,-3.833063601632603e-06,-1.494983052907628e-06,,,,,,
1.451547623,,,,,,,,,,,0.0006881298613734543,1,-0.004276263527572155,1,0.04126943647861481,1
1.455012083,0.005,-0.003966313321143389,-0.0198503639549017,-0.9956430196762085,-9.842292638495564e-05,-1.956744745257311e-05,-0.0049787862226367,-3.547341520970804e-06,-1.776647081896954e-06,1.577515718054201e-06,,,,,,
1.456524491,,,,,,,,,,,0.002715618815273046,1,-0.003655784064903855,1,0.04067662730813026,1
1.459890127,0.005,-0.003900972194969654,-0.01984134688973427,-0.9957430362701416,-9.921992023009807e-05,-1.861142482084688e-05,-0.004979329649358988,2.930221853603143e-06,-1.197267124553036e-06,-8.322063536070345e-07,,,,,,
1.461496592,,,,,,,,,,,0.002825553994625807,1,-0.003013935405761003,1,0.0396956093609333,1
1.464744687,0.005,-0.004117966163903475,-0.01969124563038349,-0.995621919631958,-9.748994489200413e-05,-2.200063318014145e-05,-0.004977444652467966,5.497609549820481e-07,-7.570829438918736e-07,1.811191850720206e-06,,,,,,
1.466465592,,,,,,,,,,,0.004304321482777596,1,-0.005135606043040752,1,0.04088284075260162,1
1.469584346,0.005,-0.004142016638070345,-0.01969058439135551,-0.9956140518188477,-9.886053885566071e-05,-2.092570503009483e-05,-0.004978142213076353,-2.385882453381782e-06,-1.30072101001133e-06,-1.69147233464173e-06,,,,,,
1.471429586,,,,,,,,,,,0.004322505556046963,1,-0.005369619000703096,1,0.04095959290862083,1
1.474400759,0.005,-0.003974078223109245,-0.01954923570156097,-0.9956984519958496,-9.720264642965049e-05,-1.857125789683778e-05,-0.004978938493877649,-1.419351292497595e-06,-1.997166009459761e-06,3.180915200573509e-06,,,,,,
1.476389170,,,,,,,,,,,0.005723666865378618,1,-0.003731268458068371,1,0.04013188555836678,1
1.479193807,0.005,-0.003882558783516288,-0.01954209804534912,-0.9959676861763,-9.783995483303443e-05,-1.870091728051193e-05,-0.004981042817234993,4.043846729473444e-06,4.885815201305377e-07,1.463215653529915e-06,,,,,,
1.481433034,,,,,,,,,,,0.005799866281449795,1,-0.002821608446538448,1,0.03749166429042816,1
1.484410405,0.005,-0.003918978851288557,-0.01959890872240067,-0.9954939484596252,-9.848079935181886e-05,-2.002835753955878e-05,-0.004974955227226019,-3.928207661374472e-06,-4.074903245054884e-06,2.767882733678562e-06,,,,,,
1.486472487,,,,,,,,,,,0.005258743651211262,1,-0.003170596202835441,1,0.04213712736964226,1
1.489602327,0.005,-0.003909666556864977,-0.01974564976990223,-0.9952739477157593,-9.98429604806006e-05,-1.964149851119146e-05,-0.004975094925612211,-1.022120500238088e-06,-1.481692265770107e-06,-3.088946868956555e-06,,,,,,
1.491506934,,,,,,,,,,,0.003831964684650302,1,-0.003076782682910562,1,0.0442940816283226,1
1.494770646,0.005,-0.004229213576763868,-0.01947235688567162,-0.9951468110084534,-9.557420708006248e-05,-2.275223596370779e-05,-0.004974714014679193,9.626349992686301e-07,-3.114650098723359e-06,1.848084139055572e-06,,,,,,
1.496537089,,,,,,,,,,,0.006499514449387789,1,-0.006191959138959646,1,0.0455409362912178,1
1.499915242,0.005,-0.004095816984772682,-0.01977534219622612,-0.9953800439834595,-0.0001009678089758381,-1.983673973882105e-05,-0.004977886099368334,-8.336433893418871e-06,-3.728084948306787e-06,-4.612093107425608e-06,,,,,,
1.501562595,,,,,,,,,,,0.00353461573831737,1,-0.004882647655904293,1,0.0432540588080883,1
1.505035758,0.005,-0.003847940126433969,-0.01967610418796539,-0.9955922961235046,-9.80863842414692e-05,-1.750530282151885e-05,-0.004979403223842382,-5.349716616365185e-07,5.81235781282885e-07,6.932762630640354e-07,,,,,,
1.506583571,,,,,,,,,,,0.004510532133281231,1,-0.002463971497491002,1,0.04117241874337196,1
1.510132790,0.005,-0.003746825270354748,-0.01965862326323986,-0.9957762360572815,-9.787613089429215e-05,-1.824138780648354e-05,-0.004979694727808237,4.924887889501406e-06,2.786717686831253e-06,-5.022465074944193e-07,,,,,,
1.511599660,,,,,,,,,,,0.004670155234634876,1,-0.001464416505768895,1,0.03936847299337387,1
1.515206099,0.005,-0.003732195589691401,-0.01970390789210796,-0.9954935908317566,-9.90202825050801e-05,-1.851423257903662e-05,-0.004976054187864065,3.999997716164216e-06,-7.491399173886748e-06,1.164349441751256e-06,,,,,,
1.516611338,,,,,,,,,,,0.004233975429087877,1,-0.001294390065595508,1,0.04214021936058998,1
1.520257235,0.005,-0.004007904324680567,-0.02003552205860615,-0.9952215552330017,-0.0001016537571558729,-2.175060944864526e-05,-0.00497432891279459,6.315357836683688e-07,-3.738929763130727e-06,1.667495780566242e-06,,,,,,
1.521618485,,,,,,,,,,,0.001008957740850747,1,-0.003967633936554193,1,0.04480766505002975,1
1.525285125,0.005,-0.00422989996150136,-0.02007912285625935,-0.9952240586280823,-0.0001010964188026264,-2.233014674857259e-05,-0.004976446274667978,-2.446920234433492e-06,-4.885781891061924e-06,1.619437171029858e-06,,,,,,
1.526620984,,,,,,,,,,,0.0006116112926974893,1,-0.006134509574621916,1,0.04478255286812782,1
1.530288935,0.005,-0.00401293346658349,-0.01979627832770348,-0.9956237077713013,-9.722317918203771e-05,-1.892871114250738e-05,-0.004979931749403477,1.00291117632878e-06,5.584145128523232e-06,-1.062698288478714e-06,,,,,,
1.531618595,,,,,,,,,,,0.003398154862225056,1,-0.003998378291726112,1,0.04086285457015038,1
1.535269618,0.005,-0.004073420073837042,-0.01999003626406193,-0.9955984950065613,-0.0001011245622066781,-2.069746369670611e-05,-0.00497813057154417,3.811504029727075e-06,1.256340965483105e-06,1.859383047531082e-07,,,,,,
1.536611557,,,,,,,,,,,0.001489028101786971,1,-0.004575072787702084,1,0.04110991954803467,1
1.540227056,0.005,-0.004237714689224958,-0.01966967061161995,-0.9957558512687683,-9.687372948974371e-05,-2.211020728282165e-05,-0.00497973058372736,6.775512702006381e-07,-2.13672979043622e-06,-1.964098828466376e-06,,,,,,
1.541599751,,,,,,,,,,,0.004625859670341015,1,-0.006165600847452879,1,0.03956704586744308,1
1.545161963,0.005,-0.004246324766427279,-0.01933280006051064,-0.995741069316864,-9.413198858965188e-05,-2.148034764104523e-05,-0.004978669341653585,2.239901277789613e-06,-3.172938249917934e-06,2.475729843354202e-06,,,,,,
1.546583772,,,,,,,,,,,0.007943430915474892,1,-0.006225727032870054,1,0.03971116617321968,1
1.550075650,0.005,-0.004237428307533264,-0.01943749561905861,-0.9957114458084106,-9.755952487466857e-05,-2.118549673468806e-05,-0.004978287499397993,1.209495621878887e-06,-2.622168494781363e-06,-1.973585881387407e-07,,,,,,
1.551563025,,,,,,,,,,,0.006930680945515633,1,-0.006116959266364574,1,0.04000132530927658,1
1.554965973,0.005,-0.004352162592113018,-0.01984824985265732,-0.9954696893692017,-0.0001014440640574321,-2.275063525303267e-05,-0.004976198077201843,1.177124431706034e-06,4.498730959312525e-06,-1.087462578652776e-06,,,,,,
1.556537867,,,,,,,,,,,0.002903355518355966,1,-0.007217663340270519,1,0.04237184301018715,1
1.559833050,0.005,-0.004205611534416676,-0.01982828415930271,-0.9950805902481079,-9.930682426784188e-05,-2.015288919210434e-05,-0.004973099566996098,-5.326305654307362e-07,-3.275308017691714e-06,3.295246415291331e-06,,,,,,
1.561507583,,,,,,,,,,,0.003101593581959605,1,-0.005767702590674162,1,0.04618793353438377,1
1.564677358,0.005,-0.004101456608623266,-0.01955701783299446,-0.9956221580505371,-9.603653597878292e-05,-1.997866820602212e-05,-0.004981338046491146,-1.984244875075092e-07,-8.297265452483771e-08,2.58409045272856e-06,,,,,,
1.566472650,,,,,,,,,,,0.00576160941272974,1,-0.004743502475321293,1,0.04087720066308975,1
1.569497347,0.005,-0.0041177230887115,-0.01980509050190449,-0.9960349798202515,-0.0001005998710752465,-2.075865450024139e-05,-0.004982468206435442,-1.266396907340095e-06,1.409701326338109e-06,-2.510043486836366e-06,,,,,,
1.571433187,,,,,,,,,,,0.003326044883579016,1,-0.004894322715699673,1,0.03682796657085419,1
1.574294567,0.005,-0.004152170848101377,-0.01981403306126595,-0.9957596659660339,-9.910817607305944e-05,-2.095797026413493e-05,-0.004976814147084951,-1.278098920920456e-06,1.253889081453963e-06,-5.946172905169078e-07,,,,,,
1.576388597,,,,,,,,,,,0.003225888824090362,1,-0.00523307453840971,1,0.03952830284833908,1
1.579512358,0.005,-0.004114147275686264,-0.01957734301686287,-0.9954456686973572,-9.663615492172539e-05,-2.01553812075872e-05,-0.004975695163011551,-2.61478021457151e-06,-4.961346348864026e-06,-1.896765866149508e-06,,,,,,
1.581428528,,,,,,,,,,,0.005557844880968332,1,-0.004866783507168293,1,0.04260801896452904,1
1.584706068,0.005,-0.00402809027582407,-0.01934194192290306,-0.9952800273895264,-9.481306915404275e-05,-1.954282924998552e-05,-0.00497503113001585,-3.966928943555104e-06,-6.554863034580194e-07,3.345707455082447e-06,,,,,,
1.586463451,,,,,,,,,,,0.007874480448663235,1,-0.004043027758598328,1,0.04423242434859276,1
1.589875937,0.005,-0.004135688301175833,-0.01961220614612103,-0.9957969784736633,-9.940181917045265e-05,-2.102207326970529e-05,-0.004982088226824999,5.859440648237069e-07,-1.285840539821947e-06,5.993619538458006e-07,,,,,,
1.591493607,,,,,,,,,,,0.005234170239418745,1,-0.005106202326714993,1,0.03916244953870773,1
1.595021009,0.005,-0.003989949822425842,-0.01941363327205181,-0.9957273006439209,-9.620533091947436e-05,-1.901958421512973e-05,-0.004978385288268328,-2.005272563110339e-06,-7.402023811664549e-07,8.877049708644336e-07,,,,,,
1.596519113,,,,,,,,,,,0.007195482030510902,1,-0.003680137451738119,1,0.03984528034925461,1
1.600141048,0.005,-0.004205228295177221,-0.0194829311221838,-0.9957824945449829,-9.81417833827436e-05,-2.233194391010329e-05,-0.004978968761861324,-8.074113793554716e-06,4.823320068680914e-06,-9.253823805011052e-07,,,,,,
1.601539850,,,,,,,,,,,0.006505008321255445,1,-0.005818371195346117,1,0.03930480778217316,1
1.605236769,0.005,-0.003958347719162703,-0.01969163119792938,-0.995836079120636,-9.916300768963993e-05,-1.820968282117974e-05,-0.004979608114808798,1.510032006990514e-06,-4.185618308838457e-06,-1.046550778482924e-06,,,,,,
1.606555700,,,,,,,,,,,0.004454937297850847,1,-0.003418660722672939,1,0.03877923637628555,1
1.610307097,0.005,-0.00366883771494031,-0.01969397068023682,-0.9959228038787842,-9.844529267866164e-05,-1.6425636204076e-05,-0.004980016499757767,-1.444515532966761e-06,2.17092542698083e-06,-5.322870038071414e-07,,,,,,
1.611566544,,,,,,,,,,,0.00442745815962553,1,-0.0005919907707720995,1,0.03792915120720863,1
1.615353346,0.005,-0.003840458579361439,-0.01973444782197475,-0.9956132769584656,-9.879563003778458e-05,-2.01701550395228e-05,-0.0049764234572649,5.114463419886306e-06,-1.95410007108876e-06,1.801875669116271e-06,,,,,,
1.616572618,,,,,,,,,,,0.004025596659630537,1,-0.002266331808641553,1,0.04096448048949242,1
1.620375037,0.005,-0.003780242288485169,-0.01981940120458603,-0.9955782890319824,-9.938063158188015e-05,-1.874013469205238e-05,-0.004977822303771973,-4.451931999938097e-06,-3.349592134327395e-06,1.943777533597313e-06,,,,,,
1.621574163,,,,,,,,,,,0.003210775787010789,1,-0.001669272314757109,1,0.04130716994404793,1
1.625377536,0.005,-0.003762666834518313,-0.01979115046560764,-0.9956320524215698,-9.83030186034739e-05,-1.897274523798842e-05,-0.004978103563189507,-6.356880476232618e-06,-6.839153599003112e-08,7.751694965918432e-07,,,,,,
1.626571536,,,,,,,,,,,0.003501004772260785,1,-0.001517913769930601,1,0.04077965021133423,1
1.630355477,0.005,-0.003762875683605671,-0.01972723938524723,-0.9954612851142883,-9.80386248556897e-05,-1.869680454547051e-05,-0.004976481664925814,-7.50547428651771e-07,1.119242597269476e-06,-3.59012028638972e-06,,,,,,
1.631564260,,,,,,,,,,,0.004128162283450365,1,-0.001539003453217447,1,0.04245381429791451,1
1.635310292,0.005,-0.003570372937247157,-0.01956276595592499,-0.9956571459770203,-9.645714453654364e-05,-1.687617077550385e-05,-0.004979349672794342,-2.515674850656069e-07,2.836626208591042e-06,4.943262297274487e-07,,,,,,
1.636551976,,,,,,,,,,,0.005725665483623743,1,0.0003388554323464632,1,0.04053337126970291,1
1.640241385,0.005,-0.003804714884608984,-0.01972446031868458,-0.9954538345336914,-9.951737592928112e-05,-2.012041295529343e-05,-0.004976198077201843,-1.729433961372706e-06,6.629095423704712e-07,2.818788743752521e-06,,,,,,
1.641534925,,,,,,,,,,,0.004122372251003981,1,-0.001964447321370244,1,0.04252801463007927,1
1.645147920,0.005,-0.003927059937268496,-0.01971406862139702,-0.9950798153877258,-9.863296145340428e-05,-2.066525303234812e-05,-0.004973194096237421,-3.006710471709084e-07,-4.809066467714729e-06,2.752540012807003e-06,,,,,,
1.646512866,,,,,,,,,,,0.004229625687003136,1,-0.003172730561345816,1,0.04619615525007248,1
1.650031328,0.005,-0.003602993441745639,-0.0196444783359766,-0.9956629276275635,-9.799049439607188e-05,-1.604145109013189e-05,-0.004981508478522301,-4.393652488943189e-06,3.069393187615788e-06,-6.060935788809729e-07,,,,,,
1.651486516,,,,,,,,,,,0.004916107282042503,1,-7.003691280260682e-06,1,0.04047834500670433,1
1.654891729,0.005,-0.003848990192636847,-0.01997288316488266,-0.9955015182495117,-0.0001016628884826787,-2.047421912720893e-05,-0.004977045580744743,-7.374352207989432e-06,-1.119378566727391e-06,-3.809729605563916e-06,,,,,,
1.656454921,,,,,,,,,,,0.001686252653598785,1,-0.002453911583870649,1,0.04206096008419991,1
1.659727931,0.005,-0.003963826689869165,-0.01960485428571701,-0.9953007698059082,-9.567396045895293e-05,-2.04157258849591e-05,-0.004975396208465099,1.220001195179066e-06,-7.919223321550817e-07,1.018911916617071e-06,,,,,,
1.661418796,,,,,,,,,,,0.005296521354466677,1,-0.003602477489039302,1,0.04402964562177658,1
1.664541125,0.005,-0.004061673767864704,-0.01974577642977238,-0.9954075217247009,-9.9387631053105e-05,-2.094628325721715e-05,-0.004977486561983824,1.027469579639728e-06,7.925949034870428e-07,-3.001219511133968e-06,,,,,,
1.666377783,,,,,,,,,,,0.003914499655365944,1,-0.004562865011394024,1,0.04298262670636177,1
1.669330955,0.005,-0.003848579712212086,-0.01954195462167263,-0.9956446290016174,-9.648865670897067e-05,-1.804906787583604e-05,-0.004979556892067194,-9.913703991060174e-08,-2.221642716904171e-06,-3.732916979970469e-07,,,,,,
1.671331882,,,,,,,,,,,0.005913800559937954,1,-0.002470623701810837,1,0.04065766185522079,1
1.674459696,0.005,-0.004083927720785141,-0.01972950249910355,-0.9956067204475403,-9.949332888936624e-05,-2.148949897673447e-05,-0.004977670032531023,-2.075773636533995e-06,-3.991181529272581e-06,1.092730940399633e-06,,,,,,
1.676371932,,,,,,,,,,,0.004090805537998676,1,-0.004778367467224598,1,0.04102903977036476,1
1.679654956,0.005,-0.004194064065814018,-0.01952846720814705,-0.9954846501350403,-9.633809531806037e-05,-2.147856685041916e-05,-0.004976899363100529,-3.137044757295371e-07,-1.808460865504458e-06,-2.786200639093295e-07,,,,,,
1.681407452,,,,,,,,,,,0.006086729466915131,1,-0.005855451803654432,1,0.04222563654184341,1
1.684826374,0.005,-0.00427680928260088,-0.01966595277190208,-0.9956008791923523,-9.895169932860881e-05,-2.170549851143733e-05,-0.004978531040251255,-1.106979652831797e-06,-1.956920186785283e-06,-7.708557063779153e-07,,,,,,
1.686438441,,,,,,,,,,,0.00475205248221755,1,-0.006671587005257607,1,0.04108637943863869,1
1.689973712,0.005,-0.004278778564184904,-0.01970020122826099,-0.9955765008926392,-9.909510117722675e-05,-2.125111677742098e-05,-0.004977855831384659,4.484076328026276e-07,4.02507475882885e-06,3.152841372866533e-06,,,,,,
1.691464663,,,,,,,,,,,0.004415072500705719,1,-0.006689891684800386,1,0.04132527112960815,1
1.695098877,0.005,-0.004416280426084995,-0.0196232870221138,-0.9958328604698181,-9.788143506739289e-05,-2.263136229885276e-05,-0.004980653524398804,-1.879663159343181e-06,-1.587682305626004e-07,1.654998072808667e-06,,,,,,
1.696486354,,,,,,,,,,,0.005127710290253162,1,-0.008021902292966843,1,0.03881149366497993,1
1.700199723,0.005,-0.004073905292898417,-0.0195799358189106,-0.9961175322532654,-9.75869843387045e-05,-1.872922439360991e-05,-0.004982375539839268,3.993882273789495e-06,-4.728816293209093e-06,-1.060467909042018e-07,,,,,,
1.701503515,,,,,,,,,,,0.005533478688448668,1,-0.004643485881388187,1,0.03602014482021332,1
1.705276728,0.005,-0.004088025540113449,-0.01962324790656567,-0.9958537817001343,-9.827768371906132e-05,-2.043577296717558e-05,-0.00497792474925518,1.221034267473442e-06,6.107211447670124e-06,9.204209732160962e-07,,,,,,
1.706515670,,,,,,,,,,,0.005089807789772749,1,-0.004754568450152874,1,0.038606196641922,1
1.710329890,0.005,-0.004003473091870546,-0.01976880058646202,-0.9957352876663208,-9.997210872825235e-05,-1.957731001311913e-05,-0.00497769471257925,-1.939586809385219e-06,-2.014024403251824e-06,-1.682734932728636e-06,,,,,,
1.711523056,,,,,,,,,,,0.00364821357652545,1,-0.003910171333700418,1,0.03976834565401077,1
1.715358496,0.005,-0.003904914716258645,-0.01934169419109821,-0.996030867099762,-9.441612928640097e-05,-1.864603655121755e-05,-0.004982167854905128,4.839674147660844e-06,-5.569575932895532e-06,-5.670104830102218e-09,,,,,,
1.716525793,,,,,,,,,,,0.007842366583645344,1,-0.002921354491263628,1,0.03686999157071114,1
1.720364809,0.005,-0.003967325203120708,-0.01945308595895767,-0.9959959983825684,-9.784872236195952e-05,-2.00368285732111e-05,-0.004979852121323347,3.593277597246924e-06,-1.682808601799479e-06,7.551295588825724e-09,,,,,,
1.721524000,,,,,,,,,,,0.00676528038457036,1,-0.003503123298287392,1,0.03721138462424278,1
1.725346804,0.005,-0.004351149778813124,-0.01969646848738194,-0.9959072470664978,-0.0001000580887193792,-2.419223346805666e-05,-0.004978884942829609,-4.535864718491212e-06,-3.568535021258867e-06,1.100051008506853e-06,,,,,,
1.726517558,,,,,,,,,,,0.004397111944854259,1,-0.007250555325299501,1,0.03808126226067543,1
1.730305552,0.005,-0.004215838387608528,-0.01964071579277515,-0.9960054755210876,-9.821332787396386e-05,-2.086976746795699e-05,-0.004980922676622868,-1.504734086665849e-06,3.207171914709761e-07,1.21141852105211e-06,,,,,,
1.731506228,,,,,,,,,,,0.004961845465004444,1,-0.005925883073359728,1,0.03711766004562378,1
1.735240459,0.005,-0.003946798387914896,-0.0195750817656517,-0.9962114095687866,-9.740859968587756e-05,-1.772281211742666e-05,-0.004982555750757456,1.919677970363409e-06,-4.204330252832733e-07,-1.086065637423417e-07,,,,,,
1.736490250,,,,,,,,,,,0.005613712593913078,1,-0.003277326235547662,1,0.0350981317460537,1
1.740152121,0.005,-0.004106680396944284,-0.01969116553664207,-0.9962331652641296,-9.908704669214785e-05,-2.159142604796216e-05,-0.004981163889169693,1.568313905409013e-06,-1.295827473768441e-06,-2.803063580358867e-06,,,,,,
1.741469383,,,,,,,,,,,0.004482298158109188,1,-0.004835947416722775,1,0.0348842442035675,1
1.745041370,0.005,-0.003990190103650093,-0.01952575333416462,-0.9959853291511536,-9.621778008295223e-05,-1.926746517710853e-05,-0.004978201352059841,2.9878083296353e-06,1.296640448344988e-06,-3.028018227269058e-06,,,,,,
1.746447325,,,,,,,,,,,0.00611454714089632,1,-0.003677974222227931,1,0.03731378167867661,1
1.749923587,0.005,-0.003956269938498735,-0.01965770125389099,-0.9958006143569946,-9.877256525214761e-05,-1.943508505064528e-05,-0.004978222772479057,-1.029295958687726e-06,-2.392998112554778e-06,3.356959041411756e-06,,,,,,
1.751420379,,,,,,,,,,,0.004823332186788321,1,-0.003330531995743513,1,0.0391259640455246,1
1.754782438,0.005,-0.003944823518395424,-0.01944568194448948,-0.995762825012207,-9.58581076702103e-05,-1.974756924028043e-05,-0.004978766199201345,6.52104233722639e-07,7.235321390908211e-07,-2.023383331106743e-06,,,,,,
1.756388664,,,,,,,,,,,0.006897492799907923,1,-0.003201905405148864,1,0.03949624300003052,1
1.759618044,0.005,-0.003954222425818443,-0.01958980038762093,-0.9956094026565552,-9.855591633822769e-05,-1.944891846505925e-05,-0.004976962693035603,1.763766476869932e-06,3.080593614868121e-06,-2.713506091822637e-06,,,,,,
1.761352181,,,,,,,,,,,0.005473658908158541,1,-0.003277610754594207,1,0.04100079834461212,1
1.764429808,0.005,-0.004040075466036797,-0.01959883607923985,-0.9955962896347046,-9.796221274882555e-05,-2.065624175884295e-05,-0.004977813921868801,2.374318000875064e-06,4.439300028025173e-06,2.025060666710488e-06,,,,,,
1.766310930,,,,,,,,,,,0.00536050833761692,1,-0.004091595765203238,1,0.04113023355603218,1
1.769477844,0.005,-0.004136022180318832,-0.01988181844353676,-0.9959205389022827,-0.0001013773289741948,-2.106682040903252e-05,-0.004981705918908119,2.555506853241241e-06,-1.181102561531588e-06,-1.13765077003336e-06,,,,,,
1.771351576,,,,,,,,,,,0.002568840049207211,1,-0.00501185143366456,1,0.03795093297958374,1
1.774675488,0.005,-0.003965767566114664,-0.0196521133184433,-0.99591064453125,-9.686137491371483e-05,-1.917190820677206e-05,-0.004979363176971674,1.865603167061636e-06,-3.496822728266125e-06,-1.163289198302664e-06,,,,,,
1.776387334,,,,,,,,,,,0.004819591995328665,1,-0.003318706061691046,1,0.03804796561598778,1
1.779849172,0.005,-0.003955993335694075,-0.01940129511058331,-0.9958494305610657,-9.546335786581039e-05,-1.972733298316598e-05,-0.004979429300874472,-1.861080249909719e-06,-1.267821403416747e-06,-1.810007802305336e-06,,,,,,
1.781418443,,,,,,,,,,,0.007289565168321133,1,-0.003208622802048922,1,0.03864795714616776,1
1.784998655,0.005,-0.003892179811373353,-0.01953520439565182,-0.9957693219184875,-9.875607793219388e-05,-1.915310531330761e-05,-0.00497849378734827,-7.214447919068334e-07,-3.992686856690852e-07,-5.559762712437077e-07,,,,,,
1.786444783,,,,,,,,,,,0.005982797592878342,1,-0.002576896222308278,1,0.03943319618701935,1
1.790123820,0.005,-0.004079291131347418,-0.01958234235644341,-0.9956949353218079,-9.811576455831528e-05,-2.107841646648012e-05,-0.004977766890078783,-2.669245759534533e-06,-1.698930987004132e-06,8.239929343289987e-07,,,,,,
1.791466475,,,,,,,,,,,0.005525330081582069,1,-0.004408968146890402,1,0.04016315937042236,1
1.795224547,0.005,-0.003772113472223282,-0.01959504373371601,-0.9958202242851257,-9.774386126082391e-05,-1.684530616330449e-05,-0.004980013705790043,9.962785725292633e-07,2.47891193794203e-06,3.853795931263448e-07,,,,,,
1.796483636,,,,,,,,,,,0.005399690475314856,1,-0.001394444610923529,1,0.03893480449914932,1
1.800301313,0.005,-0.003740342566743493,-0.01965405605733395,-0.9957854747772217,-9.884107566904277e-05,-1.878188959381077e-05,-0.004978402052074671,-1.410594677508925e-06,-5.061924639448989e-06,1.511348273197655e-06,,,,,,
1.801495790,,,,,,,,,,,0.004828468896448612,1,-0.0010824742494151,1,0.03927525505423546,1
1.805353761,0.005,-0.00394292501732707,-0.01966897025704384,-0.9956803917884827,-9.833399963099509e-05,-2.08787005249178e-05,-0.004978397395461798,1.183480776489887e-06,-7.778449798934162e-06,-1.492791511736868e-06,,,,,,
1.806503177,,,,,,,,,,,0.00471767270937562,1,-0.003066349774599075,1,0.04030483216047287,1
1.810381532,0.005,-0.004048913717269897,-0.0197453647851944,-0.9957647919654846,-9.932264947565272e-05,-2.108206899720244e-05,-0.004979117773473263,-2.491728707809671e-07,-5.410163907981769e-07,-1.955488642124692e-06,,,,,,
1.811505675,,,,,,,,,,,0.003998968284577131,1,-0.004100880119949579,1,0.03947610408067703,1
1.815385818,0.005,-0.003926024306565523,-0.01978316344320774,-0.9955891370773315,-9.880347352009267e-05,-1.864023943198845e-05,-0.004977133590728045,-3.020276835741242e-06,3.155085082084952e-08,-3.333730546728475e-06,,,,,,
1.816503286,,,,,,,,,,,0.003648167476058006,1,-0.002893336582928896,1,0.04119827970862389,1
1.820365071,0.005,-0.004237351939082146,-0.02001356892287731,-0.9956479072570801,-0.0001018278708215803,-2.303130349901039e-05,-0.004978916607797146,3.65096440191337e-07,3.861780726310826e-07,1.12066049950954e-06,,,,,,
1.821496010,,,,,,,,,,,0.001387025462463498,1,-0.005949179641902447,1,0.04062148556113243,1
1.825320721,0.005,-0.004007060080766678,-0.02012747339904308,-0.9956775903701782,-0.000101424077001866,-1.848704960139003e-05,-0.004978586453944445,-1.561156409479736e-06,-2.686730908862955e-07,-1.913649157359032e-06,,,,,,
1.826483965,,,,,,,,,,,0.0002712355926632881,1,-0.003695666557177901,1,0.04033081606030464,1
1.830254316,0.005,-0.004047732800245285,-0.01995463483035564,-0.995875358581543,-9.85707447398454e-05,-2.040968138317112e-05,-0.0049806023016572,1.669015887273417e-06,-3.485017714410787e-06,4.314429133955855e-07,,,,,,
1.831467748,,,,,,,,,,,0.001976667670533061,1,-0.004092760384082794,1,0.03839083388447762,1
1.835164428,0.005,-0.003852128284052014,-0.01992663741111755,-0.9959394335746765,-9.945152123691514e-05,-1.802534097805619e-05,-0.004980186931788921,3.489265054668067e-06,2.151453372789547e-06,-3.516859408136952e-07,,,,,,
1.836446762,,,,,,,,,,,0.002254616236314178,1,-0.002156288595870137,1,0.03776252642273903,1
1.840051413,0.005,-0.003664974588900805,-0.01994648762047291,-0.9960166215896606,-0.0001002368007902987,-1.720730142551474e-05,-0.004981075879186392,-2.484287506376859e-06,-2.562040208431426e-06,-6.968394359319063e-07,,,,,,
1.841420770,,,,,,,,,,,0.002065631560981274,1,-0.000303791428450495,1,0.03700536489486694,1
1.844915152,0.005,-0.00387266743928194,-0.01958684623241425,-0.995763897895813,-9.550152026349679e-05,-2.033100463449955e-05,-0.004977569915354252,-2.781996499834349e-06,-1.414330625948423e-07,-4.503738182393136e-06,,,,,,
1.846390247,,,,,,,,,,,0.005600742995738983,1,-0.002342727268114686,1,0.03948352485895157,1
1.849755883,0.005,-0.004255755338817835,-0.01946891285479069,-0.9953852891921997,-9.66826846706681e-05,-2.385286643402651e-05,-0.004974596202373505,-6.015483222654439e-07,1.918299858516548e-06,1.077588649422978e-06,,,,,,
1.851355195,,,,,,,,,,,0.00675100227817893,1,-0.006109554320573807,1,0.04319656267762184,1
1.854578972,0.005,-0.00437594298273325,-0.01961689256131649,-0.9954684376716614,-9.923023026203737e-05,-2.261064946651459e-05,-0.004977335687726736,-1.47991477206233e-06,-2.614193135741516e-06,3.165886255374062e-06,,,,,,
1.856319785,,,,,,,,,,,0.00529354577884078,1,-0.007286159787327051,1,0.04238190501928329,1
1.859395862,0.005,-0.004133095964789391,-0.01988411508500576,-0.9957454800605774,-0.0001010422056424432,-1.960302324732766e-05,-0.004980235360562801,-6.289592874964001e-06,1.387324118695688e-06,-7.111459012776322e-07,,,,,,
1.861279249,,,,,,,,,,,0.002673924434930086,1,-0.004923870321363211,1,0.03966540098190308,1
1.864446521,0.005,-0.003991618752479553,-0.01987862214446068,-0.99567049741745,-9.960964962374419e-05,-1.893587614176795e-05,-0.004978070501238108,-4.03010699301376e-06,-3.677829909065622e-06,5.791014245914994e-07,,,,,,
1.866320133,,,,,,,,,,,0.002736156340688467,1,-0.003565774532034993,1,0.04040015116333961,1
1.869644761,0.005,-0.004098919220268726,-0.0197749063372612,-0.9955570697784424,-9.831292118178681e-05,-2.148442035831977e-05,-0.004977215081453323,4.611969472989585e-08,-7.933686902106274e-06,-1.842251094785752e-06,,,,,,
1.871356130,,,,,,,,,,,0.003780893981456757,1,-0.004639980848878622,1,0.04151226580142975,1
1.874819636,0.005,-0.003898737719282508,-0.01965880393981934,-0.9953563809394836,-9.764831338543445e-05,-1.798629091354087e-05,-0.004975943360477686,-3.304752453914261e-07,2.290302745677764e-06,1.350112370346324e-06,,,,,,
1.876387835,,,,,,,,,,,0.004942114464938641,1,-0.00268825120292604,1,0.04347959160804749,1
1.879970551,0.005,-0.003710176795721054,-0.01958337798714638,-0.9955923557281494,-9.741765825310722e-05,-1.76230078068329e-05,-0.004979280289262533,6.050873366802989e-07,8.980600796348881e-07,-3.419325139475404e-06,,,,,,
1.881414652,,,,,,,,,,,0.005685615818947554,1,-0.000838965643197298,1,0.04116564616560936,1
1.885097265,0.005,-0.003774095559492707,-0.01949060708284378,-0.9956606030464172,-9.736047650221735e-05,-1.906619763758499e-05,-0.00497896084561944,-5.810066795675084e-06,-3.073456127822283e-06,1.485642997067771e-06,,,,,,
1.886436582,,,,,,,,,,,0.006601758301258087,1,-0.001474657095968723,1,0.04049601405858994,1
1.890199780,0.005,-0.004097624681890011,-0.01944848150014877,-0.9955236315727234,-9.672322630649433e-05,-2.308568764419761e-05,-0.004976698663085699,-5.800447411274945e-07,-3.126614274151507e-06,-2.576831093392684e-06,,,,,,
1.891453981,,,,,,,,,,,0.007033644709736109,1,-0.004661312326788902,1,0.04183849319815636,1
1.895278335,0.005,-0.003945937380194664,-0.01957857422530651,-0.9959811568260193,-9.856389078777283e-05,-1.86355464393273e-05,-0.004982798360288143,-3.939566795452265e-06,-2.644017627062567e-07,1.059852138496353e-06,,,,,,
1.896466374,,,,,,,,,,,0.005742587149143219,1,-0.003186833579093218,1,0.0373520702123642,1
1.900331974,0.005,-0.003812740789726377,-0.01968205533921719,-0.9960294961929321,-9.927819337463006e-05,-1.794964373402763e-05,-0.004980643279850483,-1.18486377687077e-06,-1.357560904580168e-06,2.992146164615406e-06,,,,,,
1.901473999,,,,,,,,,,,0.004713620990514755,1,-0.001898834831081331,1,0.03687882423400879,1
1.905364752,0.005,-0.004089705180376768,-0.01965115964412689,-0.9959177374839783,-9.839086123974994e-05,-2.24561408685986e-05,-0.004978655837476254,3.475339781289222e-06,4.875153081229655e-06,5.244085969025036e-06,,,,,,
1.906477809,,,,,,,,,,,0.00499553419649601,1,-0.004613883327692747,1,0.03797531500458717,1
