FILE_INFO
ListSeparator=,
DecimalSeparator=.

SESSION_INFO
TimeZone,UTC
TimeZoneOffset,0
DateTimeFormat,MM/DD/YY h:mm:ss.nnnnnnnnn
StartTime,01/01/70 00:00:00.000000000
TimeFormat,Relative

DEVICE_INFO
Address,*

CHANNEL_INFO
Channel,Type,SampleRate,Equation,Coefficients,Unit,UnitSymbol,WhereApplied,WhenApplied
inertial-6286.188861:timeInfo_deltaTime_ahrsImu,Timeseries,200Hz,,,,,,
inertial-6286.188861:scaledAccelY,Timeseries,200Hz,,,,,,
inertial-6286.188861:scaledAccelX,Timeseries,200Hz,,,,,,
inertial-6286.188861:scaledAccelZ,Timeseries,200Hz,,,,,,
inertial-6286.188861:deltaVelX,Timeseries,200Hz,,,,,,
inertial-6286.188861:deltaVelY,Timeseries,200Hz,,,,,,
inertial-6286.188861:deltaVelZ,Timeseries,200Hz,,,,,,
inertial-6286.188861:deltaThetaX,Timeseries,200Hz,,,,,,
inertial-6286.188861:deltaThetaY,Timeseries,200Hz,,,,,,
inertial-6286.188861:deltaThetaZ,Timeseries,200Hz,,,,,,
inertial-6286.188861:estLinearAccelX,Timeseries,200Hz,,,,,,
inertial-6286.188861:estLinearAccelX:valid,ValidFlag,200Hz,,,,,,
inertial-6286.188861:estLinearAccelY,Timeseries,200Hz,,,,,,
inertial-6286.188861:estLinearAccelY:valid,ValidFlag,200Hz,,,,,,
inertial-6286.188861:estLinearAccelZ,Timeseries,200Hz,,,,,,
inertial-6286.188861:estLinearAccelZ:valid,ValidFlag,200Hz,,,,,,

DATA_START
Time,inertial-6286.188861:timeInfo_deltaTime_ahrsImu,inertial-6286.188861:scaledAccelY,inertial-6286.188861:scaledAccelX,inertial-6286.188861:scaledAccelZ,inertial-6286.188861:deltaVelX,inertial-6286.188861:deltaVelY,inertial-6286.188861:deltaVelZ,inertial-6286.188861:deltaThetaX,inertial-6286.188861:deltaThetaY,inertial-6286.188861:deltaThetaZ,inertial-6286.188861:estLinearAccelX,inertial-6286.188861:estLinearAccelX:valid,inertial-6286.188861:estLinearAccelY,inertial-6286.188861:estLinearAccelY:valid,inertial-6286.188861:estLinearAccelZ,inertial-6286.188861:estLinearAccelZ:valid
0.000000000,0.005,-0.007779911160469055,-0.0279113557189703,-0.9958304166793823,-0.0001390613761032,-3.358120375196449e-05,-0.004986213520169258,-8.897945917851757e-07,1.145661826740252e-06,2.416998540866189e-06,,,,,,
0.001368064,,,,,,,,,,,-0.01571438275277615,1,0.03027945198118687,1,0.03691881522536278,1
0.004822528,0.005,-0.007634193636476994,-0.02831417135894299,-0.9968662261962891,-0.0001440297346562147,-3.715205093612894e-05,-0.004991420079022646,3.942527655453887e-06,2.379694478804595e-06,1.044258738147619e-06,,,,,,
0.006329344,,,,,,,,,,,-0.01968654990196228,1,0.03171207383275032,1,0.0267612636089325,1
0.009622016,0.005,-0.008361135609447956,-0.02848349325358868,-0.9962860941886902,-0.0001434313016943634,-4.605936555890366e-05,-0.004978491924703121,2.954979663627455e-06,9.347440936835483e-07,9.260978117708873e-08,,,,,,
0.011285760,,,,,,,,,,,-0.02136367373168468,1,0.02460123971104622,1,0.03245124965906143,1
0.014576128,0.005,-0.009404047392308712,-0.02905320562422276,-0.9955078363418579,-0.0001484346721554175,-5.314965892466716e-05,-0.004973067902028561,4.14371879742248e-06,7.267760793183697e-07,4.039483883389039e-06,,,,,,
0.016326400,,,,,,,,,,,-0.02696522139012814,1,0.01439618784934282,1,0.04008340463042259,1
0.019773183,0.005,-0.009651381522417068,-0.02966868877410889,-0.9948368668556213,-0.0001516851334599778,-5.017990770284086e-05,-0.004970144480466843,-2.732956318141078e-06,-8.427476132055745e-06,6.607509476452833e-06,,,,,,
0.021362176,,,,,,,,,,,-0.03298606723546982,1,0.01199030131101608,1,0.04666269570589066,1
0.024945663,0.005,-0.009735883213579655,-0.02945583686232567,-0.9956290125846863,-0.0001463531370973215,-4.925879693473689e-05,-0.004982602782547474,-4.109973815502599e-06,2.730464075284544e-06,4.087899924343219e-06,,,,,,
0.026393600,,,,,,,,,,,-0.03088687546551228,1,0.01115544885396957,1,0.03889454156160355,1
0.030094592,0.005,-0.009227261878550053,-0.02974675409495831,-0.9959690570831299,-0.0001502782688476145,-4.344782792031765e-05,-0.004981770645827055,7.382544936263002e-06,2.88669298242894e-06,2.352754108869703e-06,,,,,,
0.031420670,,,,,,,,,,,-0.03374980017542839,1,0.01614746823906898,1,0.03556051477789879,1
0.035222273,0.005,-0.009445883333683014,-0.02946958132088184,-0.995567798614502,-0.0001457076868973672,-4.825932410312817e-05,-0.004975784104317427,4.594401616486721e-06,3.812007207670831e-06,-3.272621142969001e-06,,,,,,
0.036442880,,,,,,,,,,,-0.03104771487414837,1,0.01404397748410702,1,0.03949515148997307,1
0.040325630,0.005,-0.00954822264611721,-0.02901677414774895,-0.9944946765899658,-0.0001423573266947642,-4.81012393720448e-05,-0.004965643398463726,4.560417892207624e-06,3.98923702960019e-06,-1.177851459033263e-06,,,,,,
0.041460738,,,,,,,,,,,-0.02664349973201752,1,0.01308024302124977,1,0.05001954361796379,1
0.045405440,0.005,-0.009532785043120384,-0.02867522835731506,-0.9944231510162354,-0.0001412845304002985,-4.791462924913503e-05,-0.00497141620144248,8.69314135343302e-07,2.807185637720977e-06,4.002444256911986e-06,,,,,,
0.046473727,,,,,,,,,,,-0.02332484349608421,1,0.01326918043196201,1,0.05072083324193954,1
0.050460927,0.005,-0.009335798211395741,-0.02798953279852867,-0.9957438111305237,-0.0001365160715067759,-4.52958993264474e-05,-0.004985918290913105,2.404813699286024e-07,-1.46689933444577e-06,2.20515494220308e-06,,,,,,
0.051481854,,,,,,,,,,,-0.01662310585379601,1,0.01521619968116283,1,0.03777026385068893,1
0.055493120,0.005,-0.009616246446967125,-0.02731290459632874,-0.9968377351760864,-0.000132252651383169,-4.968870780430734e-05,-0.004991699010133743,-1.717191082661884e-07,-5.16360978508601e-06,-1.993621935980627e-06,,,,,,
0.056485377,,,,,,,,,,,-0.009981283918023109,1,0.01247901096940041,1,0.02704204432666302,1
0.060502272,0.005,-0.01029028370976448,-0.02706782706081867,-0.9960381388664246,-0.0001340988237643614,-5.578824857366271e-05,-0.004976083990186453,3.04077957480331e-06,-5.678604338754667e-06,9.577063337928848e-07,,,,,,
0.061484288,,,,,,,,,,,-0.007553453091531992,1,0.005893560126423836,1,0.03488238155841827,1
0.065487362,0.005,-0.01106811501085758,-0.02684744633734226,-0.9948897361755371,-0.0001327179634245113,-5.977768159937114e-05,-0.004967327229678631,2.659289066286874e-06,-5.562922069657361e-06,5.003861133445753e-06,,,,,,
0.066478595,,,,,,,,,,,-0.005352030973881483,1,-0.00170991150662303,1,0.04614337533712387,1
0.070448637,0.005,-0.01103033777326345,-0.02660667337477207,-0.9941125512123108,-0.0001314370019827038,-5.540310303331353e-05,-0.004965676460415125,1.395754338773258e-06,-7.687154379709682e-07,2.157744120268035e-06,,,,,,
0.071468033,,,,,,,,,,,-0.002965858206152916,1,-0.001320358249358833,1,0.05376377701759338,1
0.075386882,0.005,-0.0100141167640686,-0.0262321699410677,-0.9952027201652527,-0.0001290977234020829,-4.460142736206762e-05,-0.004982142243534327,-2.214033202108112e-06,2.450487954774871e-06,1.586229700478725e-06,,,,,,
0.076452866,,,,,,,,,,,0.0007175204227678478,1,0.008658007718622684,1,0.04307252541184425,1
0.080301568,0.005,-0.009322513826191425,-0.0256080124527216,-0.9956474900245667,-0.00012454271200113,-4.220568371238187e-05,-0.004981181118637323,-6.065809884603368e-06,5.070403858553618e-06,3.598721605158062e-07,,,,,,
0.081432834,,,,,,,,,,,0.006821803748607635,1,0.01542524248361588,1,0.03871142119169235,1
0.085194498,0.005,-0.009706852957606316,-0.02501136623322964,-0.995905876159668,-0.000121547760500107,-5.075284207123332e-05,-0.004981417674571276,-1.217382077811635e-06,2.631750248838216e-06,2.18929835682502e-06,,,,,,
0.086411007,,,,,,,,,,,0.01265178434550762,1,0.0116384569555521,1,0.03617825731635094,1
0.090077952,0.005,-0.009961390867829323,-0.02461034059524536,-0.9951314926147461,-0.0001205991575261578,-5.150556535227224e-05,-0.004970879293978214,-3.558642802659051e-08,6.540764843521174e-06,5.18239039593027e-06,,,,,,
0.091384575,,,,,,,,,,,0.01655176468193531,1,0.009109186008572578,1,0.04377341270446777,1
0.094938621,0.005,-0.01019279006868601,-0.02372289821505547,-0.9954246282577515,-0.0001133427795139141,-5.211012467043474e-05,-0.004978571087121964,-1.683863956714049e-06,-4.286609680548281e-07,4.781362804351375e-06,,,,,,
0.096353538,,,,,,,,,,,0.02522255107760429,1,0.006811867468059063,1,0.04090037941932678,1
0.099776514,0.005,-0.01011950429528952,-0.02338031120598316,-0.9957095980644226,-0.0001144032430602238,-5.064194556325674e-05,-0.004980769939720631,1.350962065771455e-06,-9.907099638439831e-07,4.267510121280793e-06,,,,,,
0.101318143,,,,,,,,,,,0.02857291139662266,1,0.007520516403019428,1,0.03810620680451393,1
0.104592383,0.005,-0.009924620389938354,-0.02290607988834381,-0.9957252740859985,-0.0001118663349188864,-4.803848059964366e-05,-0.004978636745363474,2.817959284584504e-06,-2.042284904746339e-06,3.435256530792685e-06,,,,,,
0.106277891,,,,,,,,,,,0.03321994468569756,1,0.009430683217942715,1,0.03795208781957626,1
0.109470978,0.005,-0.01023116055876017,-0.0226177591830492,-0.9955023527145386,-0.0001112929894588888,-5.310235064825974e-05,-0.004976610187441111,-1.570597760292003e-06,-5.971023142592458e-07,1.594797254256264e-06,,,,,,
0.111318529,,,,,,,,,,,0.03605376556515694,1,0.00643374165520072,1,0.04013849422335625,1
0.114668541,0.005,-0.0100393807515502,-0.02319327741861343,-0.9952167272567749,-0.0001193171774502844,-4.936582263326272e-05,-0.004973835311830044,-4.661163984565064e-06,-8.412070542362926e-07,3.625794306572061e-06,,,,,,
0.116354562,,,,,,,,,,,0.03041023388504982,1,0.00829741545021534,1,0.04293964430689812,1
0.119842812,0.005,-0.01006890274584293,-0.0228730570524931,-0.9953324198722839,-0.0001124457849073224,-5.044928184361197e-05,-0.004977462347596884,2.711863544391235e-06,-1.298917368330876e-06,3.658579998955247e-06,,,,,,
0.121385731,,,,,,,,,,,0.03355233743786812,1,0.008008954115211964,1,0.04180515930056572,1
0.124992512,0.005,-0.01009430736303329,-0.02277359180152416,-0.9956816434860229,-0.0001132717879954726,-5.016450450057164e-05,-0.004980353638529778,-1.093172386390506e-06,-5.175180831429316e-06,3.246654159738682e-06,,,,,,
0.126412541,,,,,,,,,,,0.03454963490366936,1,0.007757667452096939,1,0.03837994486093521,1
0.130118906,0.005,-0.01023535802960396,-0.02204235084354877,-0.9957030415534973,-0.0001060317808878608,-5.214069096837193e-05,-0.004978996701538563,-5.999729069117166e-07,-7.042629590614524e-07,-3.035769850612269e-06,,,,,,
0.131434754,,,,,,,,,,,0.04173695296049118,1,0.006367589812725782,1,0.03816929459571838,1
0.135222018,0.005,-0.01033857464790344,-0.02190146222710609,-0.9955844879150391,-0.0001085016920114867,-5.222755862632766e-05,-0.004976861644536257,1.59277010425285e-06,9.810972869672696e-07,9.176810067401675e-08,,,,,,
0.136452347,,,,,,,,,,,0.04312867671251297,1,0.005357312969863415,1,0.03933151811361313,1
0.140302852,0.005,-0.01036062929779291,-0.02194510586559772,-0.9955555200576782,-0.000109825050458312,-5.201624662731774e-05,-0.004977734293788671,7.571578066745133e-07,1.482694187870948e-06,3.7197972346803e-07,,,,,,
0.141465858,,,,,,,,,,,0.0426952950656414,1,0.005150794517248869,1,0.03961540758609772,1
0.145361662,0.005,-0.01044740155339241,-0.02201389707624912,-0.9952991604804993,-0.0001106907584471628,-5.276325100567192e-05,-0.004975025542080402,1.563480225286185e-07,6.980798730182869e-07,-9.658372164267348e-07,,,,,,
0.146474496,,,,,,,,,,,0.0420120470225811,1,0.004314871039241552,1,0.04212931171059608,1
0.150396422,0.005,-0.01068487111479044,-0.02227421663701534,-0.9951739311218262,-0.0001127483483287506,-5.485418660100549e-05,-0.004975357092916965,1.410800336998363e-06,-1.431368445992121e-07,2.6408604298922e-06,,,,,,
0.151478529,,,,,,,,,,,0.0394529290497303,1,0.00199826923198998,1,0.04335741698741913,1
0.155407354,0.005,-0.01085187122225761,-0.02250907383859158,-0.9954639077186584,-0.0001138514999183826,-5.547008913708851e-05,-0.00497892452403903,-4.315000296628568e-06,1.01268869912019e-06,1.512837002337619e-06,,,,,,
0.156477958,,,,,,,,,,,0.03714203462004662,1,0.0003539239405654371,1,0.04051456972956657,1
0.160395771,0.005,-0.01104364171624184,-0.02288821525871754,-0.9956355690956116,-0.0001166136571555398,-5.627149585052393e-05,-0.004979400429874659,3.25836981573957e-06,-1.22990775253129e-06,-2.27951250053593e-06,,,,,,
0.161472768,,,,,,,,,,,0.03341522812843323,1,-0.001517509459517896,1,0.03883068636059761,1
0.165361151,0.005,-0.01149222627282143,-0.02326031588017941,-0.9955399036407471,-0.0001183452768600546,-5.986824180581607e-05,-0.004977217875421047,1.438831077393843e-06,8.929650334721373e-07,-4.425528459250927e-06,,,,,,
0.166463494,,,,,,,,,,,0.0297673549503088,1,-0.005902677308768034,1,0.03976836800575256,1
0.170305789,0.005,-0.011921769939363,-0.02368568070232868,-0.9949233531951904,-0.0001209456459037028,-6.227311678230762e-05,-0.004970871843397617,2.178077238568221e-06,-5.223681682764436e-07,4.906194135401165e-07,,,,,,
0.171449602,,,,,,,,,,,0.02558978833258152,1,-0.01009723450988531,1,0.04581489413976669,1
0.175227135,0.005,-0.0122812632471323,-0.02395626530051231,-0.9942310452461243,-0.0001214471412822604,-6.384302105288953e-05,-0.004967073444277048,1.629023586247058e-06,1.015006834137466e-08,3.210461159142142e-07,,,,,,
0.176430851,,,,,,,,,,,0.02293137274682522,1,-0.01360415015369654,1,0.05260457471013069,1
0.180125952,0.005,-0.01181185804307461,-0.02451858669519424,-0.9928878545761108,-0.0001254693197552115,-5.68941977689974e-05,-0.004956731572747231,-9.275828233512584e-06,4.331861418904737e-06,-1.260914814338321e-05,,,,,,
0.181407481,,,,,,,,,,,0.01740469597280025,1,-0.009016703814268112,1,0.06577751785516739,1
0.185001984,0.005,-0.01079608127474785,-0.02530825696885586,-0.99090975522995,-0.0001316520501859486,-4.774797707796097e-05,-0.004941913299262524,-8.775810783845372e-06,2.472578125889413e-05,-7.310328328458127e-06,,,,,,
0.186379522,,,,,,,,,,,0.009578940458595753,1,0.0009086054051294923,1,0.08517815917730331,1
0.189869061,0.005,-0.009684233926236629,-0.0238328892737627,-0.9942548274993896,-0.0001114300466724671,-4.236317909089848e-05,-0.00498916395008564,-2.885680623876397e-05,2.947776374639943e-05,-1.026229256240185e-05,,,,,,
0.191349760,,,,,,,,,,,0.02386488579213619,1,0.01170131377875805,1,0.05237988382577896,1
0.194713861,0.005,-0.006828395649790764,-0.02394437789916992,-0.9960319995880127,-0.0001187422094517387,-1.666436764935497e-05,-0.004992722999304533,-2.017563383560628e-05,8.406100278079975e-06,-7.98749260866316e-06,,,,,,
0.196315393,,,,,,,,,,,0.02260554768145084,1,0.03952921181917191,1,0.03495856747031212,1
0.199536383,0.005,-0.007191240787506104,-0.02430658787488937,-0.9967532157897949,-0.0001253050431841984,-3.751744225155562e-05,-0.004988242872059345,-7.007202839304227e-06,1.979951230168808e-05,-7.302806352527114e-06,,,,,,
0.201276422,,,,,,,,,,,0.01888998411595821,1,0.03583701699972153,1,0.02789139002561569,1
0.204421639,0.005,-0.00680914893746376,-0.02360012568533421,-0.9945354461669922,-0.0001123004767578095,-3.192820804542862e-05,-0.004960002843290567,-1.916613837238401e-05,3.856514467770467e-06,-1.376188902213471e-05,,,,,,
0.206317306,,,,,,,,,,,0.0256754644215107,1,0.03944217786192894,1,0.04964571073651314,1
0.209620997,0.005,-0.008206196129322052,-0.02537419088184834,-0.9963533282279968,-0.0001383623894071206,-4.923302913084626e-05,-0.004990114830434322,-1.23122254080954e-05,3.043705874006264e-06,3.669433965569624e-07,,,,,,
0.211353600,,,,,,,,,,,0.008195760659873486,1,0.02561345510184765,1,0.03182178735733032,1
0.214796543,0.005,-0.006838182918727398,-0.02486836910247803,-0.998901903629303,-0.000121298486192245,-2.736939859460108e-05,-0.005011114291846752,-1.627807978366036e-05,2.990282382597798e-06,1.104858893086202e-05,,,,,,
0.216385022,,,,,,,,,,,0.01308689266443253,1,0.03888334706425667,1,0.006832334212958813,1
0.219948292,0.005,-0.006673024501651525,-0.02681524492800236,-0.9979403614997864,-0.0001454929151805118,-3.083139381487854e-05,-0.004984516650438309,5.197290192882065e-06,3.01725162898947e-06,6.58432099953643e-06,,,,,,
0.221412092,,,,,,,,,,,-0.006054061464965343,1,0.04041308909654617,1,0.01626367121934891,1
0.225075707,0.005,-0.007797182071954012,-0.02711636945605278,-0.9961138367652893,-0.000137890106998384,-4.572070247377269e-05,-0.004969805013388395,-5.154624432179844e-06,1.786343773346744e-06,8.010767373889394e-07,,,,,,
0.226434559,,,,,,,,,,,-0.009045583195984364,1,0.02933765575289726,1,0.03417740389704704,1
0.230179325,0.005,-0.00850205309689045,-0.02844656631350517,-0.9952589273452759,-0.0001498692145105451,-4.599053136189468e-05,-0.004969625733792782,-3.804439359100797e-07,-1.233110879184096e-06,1.156463986262679e-05,,,,,,
0.231452167,,,,,,,,,,,-0.02210994251072407,1,0.02238648757338524,1,0.04256228357553482,1
0.235260665,0.005,-0.008806644938886166,-0.02887730859220028,-0.9959608912467957,-0.0001470507704652846,-4.71122439194005e-05,-0.004984021652489901,-4.172250100964447e-06,2.04065668185649e-06,2.058769132418092e-05,,,,,,
0.236465409,,,,,,,,,,,-0.02634848095476627,1,0.01936495676636696,1,0.03567926585674286,1
0.240318209,0.005,-0.008319959044456482,-0.02958455123007298,-0.9958323240280151,-0.000152204665937461,-3.802187711698934e-05,-0.004979036282747984,5.527610028366325e-06,7.200494565040572e-06,8.948689355747774e-06,,,,,,
0.241475329,,,,,,,,,,,-0.03331893682479858,1,0.02412877418100834,1,0.03694101423025131,1
0.245360121,0.005,-0.009270049631595612,-0.02956022135913372,-0.9958863854408264,-0.0001475002500228584,-5.202935426495969e-05,-0.004980163183063269,3.902639946318232e-06,3.547958158378606e-06,1.953240371221909e-06,,,,,,
0.246480897,,,,,,,,,,,-0.03312097862362862,1,0.01482956856489182,1,0.03641139343380928,1
0.250377983,0.005,-0.01016573887318373,-0.02961243316531181,-0.9945201277732849,-0.0001485149987274781,-5.597306881099939e-05,-0.004964390303939581,5.408338893175824e-06,-3.857237516058376e-06,1.781528567335044e-06,,,,,,
0.251481593,,,,,,,,,,,-0.03365229070186615,1,0.006076115183532238,1,0.04980947449803352,1
0.255373567,0.005,-0.01130384393036366,-0.03014611825346947,-0.9947856068611145,-0.0001538794604130089,-6.386522727552801e-05,-0.004975005518645048,8.988682793642511e-07,-3.025284513569204e-06,5.459388376038987e-06,,,,,,
0.256477952,,,,,,,,,,,-0.03888018056750298,1,-0.005047841928899288,1,0.04720568656921387,1
0.260346383,0.005,-0.01143937092274427,-0.0301836933940649,-0.9951376914978027,-0.0001511661248514429,-5.802574742119759e-05,-0.004977989941835403,7.643590151928947e-07,-4.004909442301141e-06,3.916049081453821e-06,,,,,,
0.261469692,,,,,,,,,,,-0.03923461958765984,1,-0.006361572071909904,1,0.04375283420085907,1
0.265296131,0.005,-0.01258899550884962,-0.03062416799366474,-0.9953020811080933,-0.0001559843949507922,-6.918403232702985e-05,-0.004977634642273188,5.126339601702057e-06,-2.778270527414861e-06,-1.378636284243839e-06,,,,,,
0.266456842,,,,,,,,,,,-0.04353435710072517,1,-0.01760019920766354,1,0.04214031994342804,1
0.270223349,0.005,-0.01280688494443893,-0.03024755418300629,-0.9948357343673706,-0.0001488278212491423,-6.53518145554699e-05,-0.004971806891262531,-3.412292471693945e-06,-5.859922566742171e-06,-6.803943506383803e-06,,,,,,
0.271439105,,,,,,,,,,,-0.03981244936585426,1,-0.01972160674631596,1,0.04671274870634079,1
0.275127560,0.005,-0.01359797548502684,-0.03027072362601757,-0.9950011372566223,-0.0001515298208687454,-7.27038859622553e-05,-0.004975370597094297,-4.255806018704789e-08,-5.579553999268683e-06,3.11212670567329e-06,,,,,,
0.276417017,,,,,,,,,,,-0.04000216349959373,1,-0.02747256495058537,1,0.0450889989733696,1
0.280008435,0.005,-0.01369795203208923,-0.02993683516979218,-0.9950149059295654,-0.0001472947333240882,-6.957771256566048e-05,-0.004976271651685238,-6.491975454991916e-06,-2.377761575189652e-06,-2.122659878978084e-07,,,,,,
0.281390071,,,,,,,,,,,-0.03668452799320221,1,-0.02847358398139477,1,0.04495343565940857,1
0.284866303,0.005,-0.01419995818287134,-0.02958966977894306,-0.994347870349884,-0.0001463162334403023,-7.366643694695085e-05,-0.004967642948031425,-1.83236591055902e-06,8.251374197243422e-07,-9.25963104236871e-06,,,,,,
0.286358535,,,,,,,,,,,-0.03325649350881577,1,-0.03341586515307426,1,0.05149400979280472,1
0.289701372,0.005,-0.01417251117527485,-0.02869088388979435,-0.9941236972808838,-0.0001388341624988243,-7.184948481153697e-05,-0.004969116300344467,-9.24275900615612e-06,1.129693919210695e-05,-5.56986242372659e-06,,,,,,
0.291322112,,,,,,,,,,,-0.02448137477040291,1,-0.03319178894162178,1,0.05369407311081886,1
0.294514418,0.005,-0.01319102663546801,-0.02748926356434822,-0.9948555827140808,-0.0001303860481129959,-5.99908089498058e-05,-0.004978023003786802,-6.767678314645309e-06,1.116308521886822e-05,-7.76012984715635e-06,,,,,,
0.296281606,,,,,,,,,,,-0.01277722790837288,1,-0.02362987212836742,1,0.04651940241456032,1
0.299392760,0.005,-0.01240348350256681,-0.02633222565054893,-0.9961755275726318,-0.00012456119293347,-5.732520003220998e-05,-0.004988875705748796,-2.96395955956541e-06,8.192880159185734e-06,-5.742122084484436e-06,,,,,,
0.301322997,,,,,,,,,,,-0.001512572402134538,1,-0.01595570147037506,1,0.03357747197151184,1
0.304593652,0.005,-0.01185362134128809,-0.02491762861609459,-0.9966537356376648,-0.0001163649139925838,-5.496140875038691e-05,-0.004986344836652279,-1.992364104808075e-06,1.687421445240034e-06,-1.793212845768721e-06,,,,,,
0.306359559,,,,,,,,,,,0.01228457503020763,1,-0.01060030050575733,1,0.0288909487426281,1
0.309771270,0.005,-0.01175299752503633,-0.02352807857096195,-0.9978175759315491,-0.000108777116111014,-5.902720295125619e-05,-0.004996188916265965,1.017857471197203e-06,-4.748269930132665e-06,3.06624701806868e-06,,,,,,
0.311391503,,,,,,,,,,,0.02589065209031105,1,-0.009626809507608414,1,0.01747836358845234,1
0.314926326,0.005,-0.008356248028576374,-0.0228704959154129,-0.9957519769668579,-0.0001113659382099286,-2.18695913645206e-05,-0.004967705346643925,-3.241505055484595e-06,-6.002613645250676e-06,2.663290160853649e-06,,,,,,
0.316419333,,,,,,,,,,,0.03234420716762543,1,0.02366059273481369,1,0.03773466497659683,1
0.320057094,0.005,-0.007198744919151068,-0.02205540612339973,-0.9942727088928223,-0.0001040577626554295,-2.823410977725871e-05,-0.004961741156876087,5.94583798374515e-06,-1.789506859495305e-05,-1.015993620967492e-05,,,,,,
0.321442306,,,,,,,,,,,0.04040240496397018,1,0.03502431511878967,1,0.05223938822746277,1
0.325164288,0.005,-0.006437225732952356,-0.02228512242436409,-0.9945616722106934,-0.000113911199150607,-2.769677485048305e-05,-0.00497231213375926,-1.241720042344241e-06,-9.917350325849839e-06,-1.155239351646742e-05,,,,,,
0.326460660,,,,,,,,,,,0.03824403136968613,1,0.04250567778944969,1,0.04940338432788849,1
0.330248952,0.005,-0.005695665720850229,-0.02095536515116692,-0.9978296756744385,-9.636588220018893e-05,-2.356402546865866e-05,-0.005009208340197802,1.622526156097592e-06,-8.687116860528477e-06,-2.269426659040619e-06,,,,,,
0.331474692,,,,,,,,,,,0.05136800184845924,1,0.04978278279304504,1,0.01735291071236134,1
0.335310340,0.005,-0.005313918460160494,-0.02067154087126255,-0.9990844130516052,-0.0001014659355860204,-2.474784560035914e-05,-0.005003512836992741,1.003541274258168e-05,-7.98535347712459e-06,-1.954988192665041e-06,,,,,,
0.336483836,,,,,,,,,,,0.05423064529895782,1,0.05356895923614502,1,0.005045381840318441,1
0.340348929,0.005,-0.005013859830796719,-0.02010180242359638,-0.9968946576118469,-9.764840069692582e-05,-2.199767550337128e-05,-0.004973189439624548,1.902139229059685e-05,-1.40847605507588e-05,-1.072711074812105e-05,,,,,,
0.341488898,,,,,,,,,,,0.0599103718996048,1,0.05660185217857361,1,0.02651608735322952,1
0.345364213,0.005,-0.007187860086560249,-0.02026102691888809,-0.9941848516464233,-0.0001016385067487136,-4.86036587972194e-05,-0.004954368807375431,2.070873415505048e-05,-2.486245102772955e-05,-5.251288712315727e-06,,,,,,
0.346489102,,,,,,,,,,,0.05849524214863777,1,0.0354376807808876,1,0.05308527126908302,1
0.350357234,0.005,-0.008154761977493763,-0.02101202681660652,-0.9949245452880859,-0.0001091508602257818,-4.779256050824188e-05,-0.004976951982825994,1.131853764491098e-06,-7.892290341260377e-06,1.340852759312838e-05,,,,,,
0.351484686,,,,,,,,,,,0.05127718299627304,1,0.0260653980076313,1,0.04582588747143745,1
0.355326474,0.005,-0.007769798394292593,-0.02192389219999313,-0.9973328709602356,-0.0001153091143351048,-3.625753743108362e-05,-0.005002301186323166,3.547248979884898e-06,7.5808657129528e-07,1.123471429309575e-05,,,,,,
0.356475383,,,,,,,,,,,0.04241630062460899,1,0.02991368994116783,1,0.02220532484352589,1
0.360272378,0.005,-0.009600026533007622,-0.02242917381227016,-0.9952937960624695,-0.0001145357164205052,-5.780254286946729e-05,-0.004966189153492451,1.64416433108272e-05,-4.693274604505859e-06,-4.611558779288316e-06,,,,,,
0.361461759,,,,,,,,,,,0.03751300275325775,1,0.01205800753086805,1,0.04219944402575493,1
0.365195513,0.005,-0.01301367487758398,-0.0234681311994791,-0.9931042194366455,-0.0001239883276866749,-8.601804438512772e-05,-0.004951077979058027,1.013635392155265e-05,-2.42193436861271e-06,-3.20313870361133e-06,,,,,,
0.366443783,,,,,,,,,,,0.0273771733045578,1,-0.02130186930298805,1,0.06366927176713943,1
0.370097905,0.005,-0.01380083616822958,-0.02335443720221519,-0.9946791529655457,-0.0001168914022855461,-7.479107443941757e-05,-0.004981574136763811,-7.097778507159092e-06,2.901768084484502e-06,1.251175854122266e-05,,,,,,
0.371421427,,,,,,,,,,,0.02851529605686665,1,-0.02896559238433838,1,0.04822321236133575,1
0.374977529,0.005,-0.01300306431949139,-0.02352164499461651,-0.9949285387992859,-0.0001186271838378161,-6.035307524143718e-05,-0.004977152682840824,2.69816928266664e-06,8.442811122222338e-06,1.395707113260869e-05,,,,,,
0.376394242,,,,,,,,,,,0.02685211226344109,1,-0.02112015150487423,1,0.04577801004052162,1
0.379834116,0.005,-0.01273912470787764,-0.02362259663641453,-0.9939414858818054,-0.0001185597648145631,-6.216514157131314e-05,-0.004963678307831287,7.429417564708274e-06,2.329276867385488e-06,-8.617947742095566e-07,,,,,,
0.381362438,,,,,,,,,,,0.02582424320280552,1,-0.01848310604691505,1,0.0554584413766861,1
0.384667903,0.005,-0.01294864807277918,-0.02394816093146801,-0.9942865967750549,-0.0001213996874867007,-6.540062167914584e-05,-0.004973257426172495,1.57221711560851e-06,-1.521154558759008e-06,-1.405450530000962e-05,,,,,,
0.386325747,,,,,,,,,,,0.02261074259877205,1,-0.02049320191144943,1,0.0520736426115036,1
0.389479667,0.005,-0.01399391423910856,-0.02395069226622581,-0.9949276447296143,-0.0001199852194986306,-7.710110367042944e-05,-0.0049786027520895,-7.821723784218193e-07,-3.604736548368237e-06,-2.844207756425021e-06,,,,,,
0.391284466,,,,,,,,,,,0.0225851759314537,1,-0.03072069026529789,1,0.04578679800033569,1
0.394356489,0.005,-0.0138795580714941,-0.0243739876896143,-0.9942556619644165,-0.0001239550911122933,-6.804284203099087e-05,-0.00496739661321044,-1.474642203902476e-06,-1.278466061194194e-05,2.483888010829105e-06,,,,,,
0.396326393,,,,,,,,,,,0.01846947893500328,1,-0.02958827279508114,1,0.05237541347742081,1
0.399559945,0.005,-0.01466714963316917,-0.02604625932872295,-0.9953202605247498,-0.0001406276714988053,-7.786066271364689e-05,-0.004982167389243841,4.185195393802132e-06,-1.739595245453529e-05,-2.542374431868666e-06,,,,,,
0.401363462,,,,,,,,,,,0.002170551801100373,1,-0.03729356080293655,1,0.0419323742389679,1
0.404739082,0.005,-0.01403909828513861,-0.02606204152107239,-0.9970763921737671,-0.0001307721104240045,-6.707075226586312e-05,-0.004996531177312136,-4.121028723602649e-06,-3.072836079809349e-06,-1.248819717147853e-05,,,,,,
0.406395644,,,,,,,,,,,0.002098008990287781,1,-0.03112619929015636,1,0.02470874600112438,1
0.409894139,0.005,-0.01332360971719027,-0.02623587101697922,-0.9952527284622192,-0.0001318552967859432,-6.201249925652519e-05,-0.004967126529663801,3.085130856561591e-06,-6.497730737464735e-06,-1.258166412299033e-05,,,,,,
0.411423475,,,,,,,,,,,0.0004614819772541523,1,-0.02409728616476059,1,0.042591392993927,1
0.415026933,0.005,-0.01256409380584955,-0.02687998861074448,-0.99251389503479,-0.0001377251901431009,-5.871617395314388e-05,-0.004945628345012665,-3.482216243355651e-06,-5.849209173902636e-06,-1.382148911943659e-05,,,,,,
0.416446984,,,,,,,,,,,-0.005789090879261494,1,-0.01664143241941929,1,0.06944814324378967,1
0.420136184,0.005,-0.01070997025817633,-0.02722584269940853,-0.99349045753479,-0.0001386443764204159,-4.30615182267502e-05,-0.00497153215110302,-1.199883445224259e-05,1.168579183286056e-05,-1.467649781261571e-05,,,,,,
0.421465605,,,,,,,,,,,-0.009174647741019726,1,0.001501858234405518,1,0.0598716214299202,1
0.425221890,0.005,-0.008727156557142735,-0.02653494663536549,-0.9964073896408081,-0.0001288279599975795,-3.172482320223935e-05,-0.004999646916985512,-4.146286300965585e-06,8.15655857877573e-06,-1.20494205475552e-05,,,,,,
0.426479876,,,,,,,,,,,-0.002446911297738552,1,0.02090069651603699,1,0.03126783668994904,1
0.430284292,0.005,-0.006992068607360125,-0.02650546468794346,-0.9975703358650208,-0.0001320367591688409,-2.427478466415778e-05,-0.004995731636881828,2.57672900261241e-06,1.541868186905049e-06,-1.080002584785689e-05,,,,,,
0.431489289,,,,,,,,,,,-0.002198658185079694,1,0.03789804875850677,1,0.01986410096287727,1
0.435322374,0.005,-0.005636441987007856,-0.02671858109533787,-0.9970048666000366,-0.0001344305783277377,-2.035852958215401e-05,-0.004982456564903259,-2.244140375751158e-07,-1.000903694148292e-06,-1.055439224728616e-05,,,,,,
0.436493814,,,,,,,,,,,-0.004305304959416389,1,0.05118519067764282,1,0.025410370901227,1
0.440336645,0.005,-0.004907241091132164,-0.02712860330939293,-0.994321882724762,-0.0001383588096359745,-1.930057260324247e-05,-0.004956035874783993,3.491820962153724e-06,2.207551688115927e-06,1.028519989176857e-07,,,,,,
0.441494018,,,,,,,,,,,-0.008352695964276791,1,0.05834224075078964,1,0.05172191932797432,1
0.445329398,0.005,-0.005789502989500761,-0.02744937688112259,-0.9930689930915833,-0.0001388770760968328,-3.491319512249902e-05,-0.004957010038197041,-2.520468115108088e-06,-6.070038580219261e-06,-2.85966621049738e-07,,,,,,
0.446489334,,,,,,,,,,,-0.01149759255349636,1,0.04969841614365578,1,0.06400881707668304,1
0.450298369,0.005,-0.004696078132838011,-0.02802542597055435,-0.9950810670852661,-0.000143849611049518,-1.758123835315928e-05,-0.004985889419913292,-6.536995897477027e-06,2.743691311479779e-06,4.637962774722837e-06,,,,,,
0.451480061,,,,,,,,,,,-0.01714471541345119,1,0.06039740145206451,1,0.04427742958068848,1
0.455244303,0.005,-0.004116285126656294,-0.02806711010634899,-0.9984636306762695,-0.000140219577588141,-1.624553442525212e-05,-0.005013623274862766,2.44832745011081e-06,-3.245664629503153e-06,1.957286713150097e-06,,,,,,
0.456466168,,,,,,,,,,,-0.01755568385124207,1,0.06606761366128922,1,0.01110547874122858,1
0.460166663,0.005,-0.004556229803711176,-0.02911514230072498,-0.9977657794952393,-0.0001520525547675788,-2.522237809898797e-05,-0.004987068474292755,1.035963850881672e-05,1.153948119281267e-06,-4.483359134610509e-06,,,,,,
0.461447686,,,,,,,,,,,-0.02783071622252464,1,0.0617789663374424,1,0.01794890686869621,1
0.465065718,0.005,-0.005662404932081699,-0.02892256528139114,-0.9938065409660339,-0.0001437339815311134,-3.432604353292845e-05,-0.004946189932525158,7.398908564937301e-06,-2.617926838865969e-06,4.671782335208263e-06,,,,,,
0.466424823,,,,,,,,,,,-0.02593518979847431,1,0.05099146440625191,1,0.05677460879087448,1
0.469944566,0.005,-0.006837751716375351,-0.02917360886931419,-0.9922216534614563,-0.00014718365855515,-4.191207699477673e-05,-0.004948648624122143,-6.404765827028314e-06,-2.21922618948156e-06,6.628733899560757e-06,,,,,,
0.471397370,,,,,,,,,,,-0.02838049829006195,1,0.03949775174260139,1,0.07231698930263519,1
0.474801153,0.005,-0.006416853982955217,-0.02883635461330414,-0.9966732859611511,-0.0001429191324859858,-3.000385186169297e-05,-0.005008382722735405,-1.125867584050866e-05,1.135048296418972e-05,5.033421530242776e-06,,,,,,
0.476365298,,,,,,,,,,,-0.02509447000920773,1,0.04358754307031631,1,0.0286626610904932,1
0.479634434,0.005,-0.006600956432521343,-0.02809812687337399,-0.9981510043144226,-0.0001358893641736358,-3.301174365333281e-05,-0.005001680925488472,6.750759439455578e-06,8.330574019055348e-06,1.855826667451765e-06,,,,,,
0.481328398,,,,,,,,,,,-0.01791364140808582,1,0.04176502302289009,1,0.01417250651866198,1
0.484445453,0.005,-0.009338356554508209,-0.02786745131015778,-0.9949817061424255,-0.0001377101143589243,-6.269796722335741e-05,-0.004956639837473631,8.468790838378482e-06,-5.944805252511287e-07,7.842002560209949e-06,,,,,,
0.486286849,,,,,,,,,,,-0.01569442823529243,1,0.01495811808854342,1,0.04525289312005043,1
0.489321738,0.005,-0.01083511486649513,-0.02796009927988052,-0.9939754009246826,-0.0001401578192599118,-6.352583295665681e-05,-0.004961998201906681,-4.012344106740784e-06,2.386560026934603e-06,1.043152497004485e-05,,,,,,
0.491328776,,,,,,,,,,,-0.01667150110006332,1,0.000244958559051156,1,0.05512344837188721,1
0.494526476,0.005,-0.01235081255435944,-0.02813569083809853,-0.9967382550239563,-0.0001416587183484808,-7.133626786526293e-05,-0.004999760072678328,2.597496177259018e-06,8.659621357764991e-07,1.208125013363315e-05,,,,,,
0.496366084,,,,,,,,,,,-0.01844090223312378,1,-0.01464415434747934,1,0.02803042158484459,1
0.499707639,0.005,-0.01178606878966093,-0.02770055271685123,-0.9968061447143555,-0.0001362328912364319,-5.647083526127972e-05,-0.004986107349395752,3.982285306847189e-06,2.501103153917938e-06,9.985846190829761e-06,,,,,,
0.501398504,,,,,,,,,,,-0.01420564018189907,1,-0.009102270007133484,1,0.02736555226147175,1
0.504864514,0.005,-0.01262552849948406,-0.02726961299777031,-0.9952819347381592,-0.0001329999504378065,-6.653712625848129e-05,-0.004967679269611835,1.310603420279222e-05,-4.370066562842112e-06,8.899164640752133e-06,,,,,,
0.506426096,,,,,,,,,,,-0.009996221400797367,1,-0.0172844659537077,1,0.04231315851211548,1
0.509996057,0.005,-0.01455887127667665,-0.02744491957128048,-0.9918655753135681,-0.0001390587131027132,-8.522070856997743e-05,-0.004939327016472816,3.843369086098392e-06,3.510283704599715e-06,3.437599161770777e-06,,,,,,
0.511449099,,,,,,,,,,,-0.01171895582228899,1,-0.03618402034044266,1,0.07581533491611481,1
0.515105784,0.005,-0.01485938206315041,-0.02603818662464619,-0.9923267960548401,-0.0001221568527398631,-7.63740245020017e-05,-0.004961683880537748,-4.088205969310366e-06,4.020845608465606e-06,9.725228665047325e-06,,,,,,
0.516469002,,,,,,,,,,,0.002049271948635578,1,-0.03910698741674423,1,0.07129298150539398,1
0.520198405,0.005,-0.0147640397772193,-0.02605204842984676,-0.9974255561828613,-0.0001299075229326263,-7.331877714022994e-05,-0.00501678790897131,-8.079677172645461e-06,-5.135237302056339e-07,-5.646034878736828e-06,,,,,,
0.521484554,,,,,,,,,,,0.001888920087367296,1,-0.03818438574671745,1,0.02129212021827698,1
0.525268495,0.005,-0.01375236827880144,-0.02626691199839115,-1.000425338745117,-0.0001330862723989412,-6.304479029495269e-05,-0.005023382604122162,1.622034346837609e-06,-3.585402509997948e-06,-4.06751951231854e-06,,,,,,
0.526495516,,,,,,,,,,,-0.0002185271587222815,1,-0.02827669307589531,1,-0.008125070482492447,1
0.530315280,0.005,-0.01326858252286911,-0.02461570128798485,-0.994851291179657,-0.000113470625365153,-6.23814994469285e-05,-0.004942826926708221,1.505250475020148e-05,-3.832734819297912e-06,-4.640093720809091e-06,,,,,,
0.531501830,,,,,,,,,,,0.0159809235483408,1,-0.0234907828271389,1,0.04653619974851608,1
0.535338521,0.005,-0.0136069031432271,-0.02500948496162891,-0.991001307964325,-0.0001259887940250337,-7.06483842805028e-05,-0.004928473383188248,-4.496178007684648e-06,-1.306322519667447e-05,-3.116450670859194e-06,,,,,,
0.536503553,,,,,,,,,,,0.01218158565461636,1,-0.02676439844071865,1,0.08428991585969925,1
0.540338933,0.005,-0.01076704822480679,-0.02536710724234581,-0.9951468706130981,-0.0001301648298976943,-3.797176032094285e-05,-0.004998332355171442,-1.58542170538567e-05,7.498780178138986e-06,-1.824094624680583e-06,,,,,,
0.541500926,,,,,,,,,,,0.008704459294676781,1,0.00105417612940073,1,0.04363525658845901,1
0.545317888,0.005,-0.008072025142610073,-0.02304074540734291,-0.9972058534622192,-0.000101834571978543,-2.298133767908439e-05,-0.005001167766749859,5.110884103487479e-06,5.372132363845594e-06,-4.721857749245828e-06,,,,,,
0.546493709,,,,,,,,,,,0.03149059042334557,1,0.02744601108133793,1,0.02344486676156521,1
0.550273776,0.005,-0.008213324472308159,-0.02284897305071354,-0.9935125708580017,-0.0001117729407269508,-4.118896686122753e-05,-0.004945936147123575,9.54670031205751e-06,-5.754843186878134e-06,-5.250140475254739e-06,,,,,,
0.551481843,,,,,,,,,,,0.03337393701076508,1,0.02609331160783768,1,0.059662826359272,1
0.555207193,0.005,-0.008237528614699841,-0.02296730130910873,-0.9953489303588867,-0.0001157413425971754,-4.223408177495003e-05,-0.004984110593795776,-6.507147190859541e-06,3.340243893035222e-06,-1.442018174202531e-06,,,,,,
0.556465387,,,,,,,,,,,0.03220671415328979,1,0.02587520703673363,1,0.04165434092283249,1
0.560117245,0.005,-0.006188066210597754,-0.02207173965871334,-0.9991323351860046,-0.0001054032327374443,-1.873801556939725e-05,-0.005020464770495892,-8.057293598540127e-06,6.882456546009053e-06,-3.934292891472069e-08,,,,,,
0.561444581,,,,,,,,,,,0.04096376523375511,1,0.04593812301754951,1,0.004553274251520634,1
0.565006077,0.005,-0.006053619552403688,-0.02170322835445404,-0.9966909289360046,-0.0001058330162777565,-2.851511453627609e-05,-0.004970807582139969,1.064965090336045e-05,-4.622040250978898e-06,3.337073621878517e-06,,,,,,
0.566419184,,,,,,,,,,,0.04455902427434921,1,0.0472625344991684,1,0.02849584445357323,1
0.569874704,0.005,-0.006287714932113886,-0.02237735316157341,-0.9936553239822388,-0.0001153516786871478,-3.28202368109487e-05,-0.004949394147843122,1.739427943903138e-06,-9.688864338386338e-06,-1.533784939056204e-06,,,,,,
0.571389675,,,,,,,,,,,0.03797414526343346,1,0.04498894885182381,1,0.05826421082019806,1
0.574721277,0.005,-0.00693258922547102,-0.02327086962759495,-0.9941874742507935,-0.0001219441764988005,-3.832687070826069e-05,-0.004972252994775772,-8.428789442405105e-06,3.091212420258671e-06,-4.665992946684128e-06,,,,,,
0.576355577,,,,,,,,,,,0.0292340349406004,1,0.03866438940167427,1,0.05304451659321785,1
0.579545319,0.005,-0.007207510992884636,-0.02286489494144917,-0.9958826899528503,-0.0001127755385823548,-3.804356674663723e-05,-0.004990007728338242,-6.467344519478502e-06,1.425162554369308e-05,5.787828740722034e-06,,,,,,
0.581317127,,,,,,,,,,,0.03317558765411377,1,0.03593594580888748,1,0.03642147034406662,1
0.584347129,0.005,-0.007617968134582043,-0.02308517694473267,-0.996597945690155,-0.0001159632884082384,-3.99534656025935e-05,-0.004987318068742752,-2.796166882035322e-06,-1.788122290236061e-06,3.122100224572932e-06,,,,,,
0.586359322,,,,,,,,,,,0.03097462467849255,1,0.03187397122383118,1,0.02940873615443707,1
0.589554191,0.005,-0.009234712459146976,-0.02379812672734261,-0.9967086315155029,-0.0001240593555849046,-5.558380507864058e-05,-0.004984857980161905,4.498026100918651e-06,2.55672739513102e-06,-8.494410394632723e-06,,,,,,
0.591397107,,,,,,,,,,,0.02395380660891533,1,0.01601253822445869,1,0.02832368202507496,1
0.594737172,0.005,-0.01018295995891094,-0.0235082246363163,-0.9948006868362427,-0.0001157679289462976,-5.714626968256198e-05,-0.004963345360010862,-1.125606672758295e-06,5.387897090258775e-06,4.072516276210081e-06,,,,,,
0.596430063,,,,,,,,,,,0.0267630759626627,1,0.006712024100124836,1,0.04703515395522118,1
0.599896312,0.005,-0.01030305400490761,-0.02360131591558456,-0.9939066171646118,-0.0001182818014058284,-5.208150832913816e-05,-0.004963162820786238,4.277311802525219e-07,1.225590608555649e-06,5.339656127034687e-06,,,,,,
0.601458669,,,,,,,,,,,0.0258165318518877,1,0.005536237265914679,1,0.0558043010532856,1
0.605031669,0.005,-0.01099994592368603,-0.02443693764507771,-0.9960247874259949,-0.000127559804241173,-5.964714000583626e-05,-0.004992070607841015,3.602971219152096e-06,9.632665864955925e-08,3.698668479046319e-06,,,,,,
0.606482685,,,,,,,,,,,0.01760267838835716,1,-0.001284512341953814,1,0.03503261506557465,1
0.610142708,0.005,-0.0100165493786335,-0.02381478436291218,-0.9952660799026489,-0.0001160683750640601,-4.413526403368451e-05,-0.004974034149199724,3.661105893115746e-06,1.636442561903095e-06,1.931150109157898e-06,,,,,,
0.611501813,,,,,,,,,,,0.02367683127522469,1,0.008380056358873844,1,0.04247366264462471,1
0.615229964,0.005,-0.01303625665605068,-0.02416546083986759,-0.9911743402481079,-0.0001214002113556489,-8.106042514555156e-05,-0.004930149298161268,1.347572197119007e-05,-9.221103027812205e-06,5.862617399543524e-06,,,,,,
0.616516113,,,,,,,,,,,0.02025394141674042,1,-0.02116796374320984,1,0.08259817957878113,1
0.620292842,0.005,-0.01482633128762245,-0.02558055147528648,-0.9935007691383362,-0.0001371590187773108,-8.760157652432099e-05,-0.004977304488420486,-1.30084063130198e-05,8.072472041931178e-07,3.247442464271444e-06,,,,,,
0.621525764,,,,,,,,,,,0.006397678516805172,1,-0.03869564086198807,1,0.05978299677371979,1
0.625332713,0.005,-0.01211702637374401,-0.02506605349481106,-1.00134813785553,-0.0001225839805556461,-4.458970215637237e-05,-0.00505478773266077,-1.089969009626657e-05,1.10395994852297e-05,3.358313733770046e-06,,,,,,
0.626530826,,,,,,,,,,,0.0114136878401041,1,-0.01218318939208984,1,-0.01717124134302139,1
0.630349040,0.005,-0.01265645585954189,-0.02572980336844921,-0.9997692108154297,-0.0001312053063884377,-6.463488534791395e-05,-0.004994961433112621,2.010008211073e-05,-2.203910071330029e-06,-3.142201421724167e-06,,,,,,
0.631531239,,,,,,,,,,,0.004873622674494982,1,-0.01745524443686008,1,-0.001686678268015385,1
0.635341823,0.005,-0.01362686417996883,-0.02697777561843395,-0.990838348865509,-0.0001428562973160297,-7.421383634209633e-05,-0.004900766536593437,1.219430942001054e-05,-9.81973425950855e-06,-2.48690810167318e-07,,,,,,
0.636526585,,,,,,,,,,,-0.007344986312091351,1,-0.02688570134341717,1,0.085893414914608,1
0.640310764,0.005,-0.01380855031311512,-0.02703465893864632,-0.9891080260276794,-0.0001357570290565491,-7.015865412540734e-05,-0.00492987222969532,-1.44207679113606e-05,-3.354521368237329e-06,-2.201122924816445e-06,,,,,,
0.641517580,,,,,,,,,,,-0.007867614738643169,1,-0.02863448671996593,1,0.1028606817126274,1
0.645256460,0.005,-0.01236315816640854,-0.02683553099632263,-0.9970871806144714,-0.0001329993829131126,-5.498237078427337e-05,-0.005030270665884018,-2.426221180940047e-05,1.158909799414687e-05,-6.531004601129098e-06,,,,,,
0.646503448,,,,,,,,,,,-0.005923119373619556,1,-0.01453864667564631,1,0.02461320720613003,1
0.650178552,0.005,-0.008766920305788517,-0.0258051585406065,-1.002227067947388,-0.0001238554687006399,-2.111955836880952e-05,-0.005047711543738842,4.872278623224702e-06,1.053274718287867e-05,-1.088079625333194e-05,,,,,,
0.651485205,,,,,,,,,,,0.004112614318728447,1,0.02065210416913033,1,-0.02578946575522423,1
0.655091941,0.005,-0.01064100582152605,-0.02564771100878716,-0.9942382574081421,-0.0001255779934581369,-6.154963921289891e-05,-0.004927373491227627,2.423128717055079e-05,-1.480906303186202e-05,-1.730805524857715e-05,,,,,,
0.656464875,,,,,,,,,,,0.005647021345794201,1,0.00232633575797081,1,0.05255370587110519,1
0.659983099,0.005,-0.01272534858435392,-0.02727530710399151,-0.9894912838935852,-0.0001464673405280337,-7.783918408676982e-05,-0.004914399236440659,-9.040554687089752e-06,-6.271727670537075e-06,-1.306917329202406e-05,,,,,,
0.661440015,,,,,,,,,,,-0.01026804000139236,1,-0.01805661618709564,1,0.09910361468791962,1
0.664851427,0.005,-0.009470555931329727,-0.0261619295924902,-0.995850682258606,-0.0001245120074599981,-2.991185647260863e-05,-0.00501524843275547,-2.522784780012444e-05,5.331999545887811e-06,2.52907238973421e-06,,,,,,
0.666410506,,,,,,,,,,,0.0006571663543581963,1,0.01378950849175453,1,0.03673955425620079,1
0.669697821,0.005,-0.006926896050572395,-0.02589612081646919,-0.9983345866203308,-0.0001268411142518744,-1.794613126548938e-05,-0.005010675638914108,6.058759026927873e-06,-8.06217599347292e-07,1.655067535466515e-06,,,,,,
0.671376407,,,,,,,,,,,0.003255382180213928,1,0.03867331519722939,1,0.01238252408802509,1
0.674521863,0.005,-0.007647828664630651,-0.02643320709466934,-0.9946361184120178,-0.0001355690328637138,-4.22108278144151e-05,-0.004950800444930792,8.677426194481086e-06,-9.029767170432024e-06,-6.655545803369023e-06,,,,,,
0.676337421,,,,,,,,,,,-0.001981211826205254,1,0.03162272274494171,1,0.04865066707134247,1
0.679324150,0.005,-0.008253635838627815,-0.0266216229647398,-0.9935653209686279,-0.0001343187177553773,-4.482261283555999e-05,-0.004959397483617067,-7.649562576261815e-06,-3.468109298410127e-06,-3.493696794976131e-06,,,,,,
0.681380093,,,,,,,,,,,-0.003790478222072124,1,0.02567627653479576,1,0.05914976820349693,1
0.684533238,0.005,-0.007952190935611725,-0.02642560563981533,-0.9949235320091248,-0.0001315602567046881,-3.901219679391943e-05,-0.004982713609933853,-9.347697414341383e-06,5.167591098143021e-06,9.441373549634591e-06,,,,,,
0.686418176,,,,,,,,,,,-0.001856515067629516,1,0.02859650924801826,1,0.04583090171217918,1
0.689719021,0.005,-0.00617015128955245,-0.02570872940123081,-0.9958735108375549,-0.0001238435943378136,-2.055491313512903e-05,-0.004985278472304344,-1.018651687445526e-06,-3.312273747724248e-06,1.136284663516562e-05,,,,,,
0.691451907,,,,,,,,,,,0.00514221889898181,1,0.04602494090795517,1,0.03651609644293785,1
0.694880247,0.005,-0.005476875230669975,-0.02673396654427052,-0.9969285130500793,-0.0001392241683788598,-2.220203714387026e-05,-0.00499138655140996,3.057332833122928e-06,-1.46611546369968e-05,1.34184347189148e-07,,,,,,
0.696480751,,,,,,,,,,,-0.004880205728113651,1,0.05280306935310364,1,0.02616965584456921,1
0.700018167,0.005,-0.006450327578932047,-0.02685565501451492,-0.9959069490432739,-0.0001357243745587766,-3.801729690167122e-05,-0.00497475964948535,3.157147830279428e-06,2.913167463702848e-06,5.060880084784003e-06,,,,,,
0.701505005,,,,,,,,,,,-0.006041312124580145,1,0.04326030239462852,1,0.03618720546364784,1
0.705132544,0.005,-0.006619611755013466,-0.02644204348325729,-0.9934430122375488,-0.000129296284285374,-3.403655136935413e-05,-0.004952318035066128,8.379953442272381e-07,7.628827347616607e-07,1.150450043496676e-05,,,,,,
0.706524670,,,,,,,,,,,-0.00198512664064765,1,0.04161518812179565,1,0.06035031378269196,1
0.710223079,0.005,-0.007181651890277863,-0.02771181054413319,-0.9936680793762207,-0.0001457421167287976,-3.859391654259525e-05,-0.004967444576323032,-1.960507631793007e-07,-5.223917924013222e-06,6.380712420650525e-06,,,,,,
0.711541235,,,,,,,,,,,-0.01441132742911577,1,0.03611143305897713,1,0.05814184993505478,1
0.715298057,0.005,-0.007496967446058989,-0.02784460224211216,-0.9958860874176025,-0.0001407608651788905,-3.963616109103896e-05,-0.004993411246687174,-4.065394477947848e-06,1.172715292341309e-05,4.305943548388314e-07,,,,,,
0.716553450,,,,,,,,,,,-0.01573660597205162,1,0.03301611542701721,1,0.03639151901006699,1
0.720350742,0.005,-0.009722643531858921,-0.02675375156104565,-0.9964044094085693,-0.0001271360233658925,-6.144132930785418e-05,-0.00498555600643158,7.807961992511991e-06,2.431991561024915e-06,2.247480324513162e-06,,,,,,
0.721560836,,,,,,,,,,,-0.005076691508293152,1,0.01120219379663467,1,0.03130864724516869,1
0.725380361,0.005,-0.01027517393231392,-0.02687897905707359,-0.9967276453971863,-0.000134815985802561,-5.619681178359315e-05,-0.004985678009688854,3.15645911541651e-06,2.788402525766287e-06,2.677173597476212e-06,,,,,,
0.726563573,,,,,,,,,,,-0.006334663368761539,1,0.005815024487674236,1,0.02813974767923355,1
0.730386198,0.005,-0.01019241474568844,-0.02700439468026161,-0.9966751337051392,-0.0001356229622615501,-4.93816623929888e-05,-0.004984034225344658,1.139432879426749e-05,-6.414155109268904e-07,4.062670086568687e-06,,,,,,
0.731561959,,,,,,,,,,,-0.007589876651763916,1,0.006676777265965939,1,0.02865448594093323,1
0.735369205,0.005,-0.01276451628655195,-0.02741866558790207,-0.9917229413986206,-0.0001400466717313975,-7.843534694984555e-05,-0.004930579569190741,7.435366569552571e-06,1.542897734907456e-06,4.974701823812211e-06,,,,,,
0.736555517,,,,,,,,,,,-0.01166676450520754,1,-0.01846623979508877,1,0.07721815258264542,1
0.740330219,0.005,-0.0138452909886837,-0.02641260996460915,-0.9911918640136719,-0.000126310798805207,-7.614957576151937e-05,-0.004949081223458052,-5.322438028088072e-06,1.464809997742123e-06,3.544051878634491e-06,,,,,,
0.741544962,,,,,,,,,,,-0.001821694895625114,1,-0.02903099358081818,1,0.0824267566204071,1
0.745268464,0.005,-0.01338273007422686,-0.02623092755675316,-0.9983838796615601,-0.0001290234649786726,-6.479406874859706e-05,-0.005033347755670547,-1.506117587268818e-05,-1.397349137732817e-06,2.56921089203388e-06,,,,,,
0.746529520,,,,,,,,,,,-4.587962757796049e-05,1,-0.02452866174280643,1,0.01189775764942169,1
0.750183702,0.005,-0.01240690518170595,-0.0258528720587492,-1.00243067741394,-0.0001280986762139946,-5.616504495264962e-05,-0.005039779935032129,3.117529786322848e-06,4.312469172873534e-06,2.81349161923572e-06,,,,,,
0.751509488,,,,,,,,,,,0.003646797733381391,1,-0.01499623153358698,1,-0.02778739668428898,1
0.755076587,0.005,-0.01267807185649872,-0.0253200214356184,-0.9950683116912842,-0.0001229101471835747,-6.35574251646176e-05,-0.004934191703796387,2.010513162531424e-05,-1.455401434213854e-05,4.425530278240331e-06,,,,,,
0.756484866,,,,,,,,,,,0.008888456970453262,1,-0.01760396547615528,1,0.04441208392381668,1
0.759946525,0.005,-0.01424983143806458,-0.02659644559025764,-0.9902195334434509,-0.000139774740091525,-8.245148637797683e-05,-0.004917572252452374,-7.005797215242637e-06,-1.303173303313088e-05,-1.401124563926714e-06,,,,,,
0.761455595,,,,,,,,,,,-0.003549124347046018,1,-0.0329582579433918,1,0.09195958822965622,1
0.764794648,0.005,-0.01172471418976784,-0.02639810927212238,-0.9947909116744995,-0.0001323490141658112,-4.509701102506369e-05,-0.004999057855457067,-2.322301588719711e-05,1.153567882283824e-05,1.6492441545779e-06,,,,,,
0.766422510,,,,,,,,,,,-0.001578291645273566,1,-0.008259089663624763,1,0.04712950065732002,1
0.769622266,0.005,-0.009385636076331139,-0.02451936528086662,-0.9983115196228027,-0.0001105682895286009,-3.184543311363086e-05,-0.005015251692384481,3.158723757223925e-06,-1.38379519398768e-07,-1.715201506158337e-06,,,,,,
0.771384597,,,,,,,,,,,0.01682599447667599,1,0.0146132642403245,1,0.01260554790496826,1
0.774427891,0.005,-0.009684073738753796,-0.02503094263374805,-0.9960622787475586,-0.0001276889961445704,-4.984599945601076e-05,-0.004968042951077223,1.336955938313622e-05,-1.228228938998654e-05,-2.737386466833414e-06,,,,,,
0.776427507,,,,,,,,,,,0.01184966508299112,1,0.01171268150210381,1,0.03466226533055305,1
0.779637754,0.005,-0.009277280420064926,-0.02429240755736828,-0.9950863718986511,-0.000117484712973237,-4.509092104854062e-05,-0.004967836197465658,-4.679131507145939e-06,1.540791231491312e-06,-9.160491572401952e-06,,,,,,
0.781465828,,,,,,,,,,,0.01912065222859383,1,0.01572058163583279,1,0.04423161596059799,1
0.784823537,0.005,-0.007811900693923235,-0.02396577596664429,-0.9960418343544006,-0.0001172995689557865,-3.013490822922904e-05,-0.004986463580280542,-7.114354048098903e-07,-5.92721607972635e-06,-2.152100933017209e-06,,,,,,
0.786499321,,,,,,,,,,,0.02235295996069908,1,0.03009115532040596,1,0.03486140444874763,1
0.789985776,0.005,-0.006569209042936563,-0.02375155314803123,-0.9957500696182251,-0.0001178520687972195,-2.560011489549652e-05,-0.004976543597877026,-9.182886060443707e-07,-3.240098976675654e-06,2.488939344402752e-06,,,,,,
0.791528463,,,,,,,,,,,0.02448947168886662,1,0.04227346926927567,1,0.03772113844752312,1
0.795124471,0.005,-0.005757532082498074,-0.02369443327188492,-0.9963556528091431,-0.0001177284284494817,-2.354131902393419e-05,-0.004985068924725056,4.836225002691208e-07,-1.237803417097894e-06,3.872684430916706e-07,,,,,,
0.796552718,,,,,,,,,,,0.02507510408759117,1,0.05023912340402603,1,0.0317816287279129,1
0.800238311,0.005,-0.006119862198829651,-0.02434120140969753,-0.9958820343017578,-0.000125496182590723,-3.196773468516767e-05,-0.00497769471257925,3.025841351700365e-06,7.656729508198623e-07,-7.309039119718364e-06,,,,,,
0.801572084,,,,,,,,,,,0.01874683611094952,1,0.04669210314750671,1,0.03642594814300537,1
0.805328667,0.005,-0.007386657875031233,-0.02385331317782402,-0.9942852258682251,-0.0001164770583272912,-4.44688557763584e-05,-0.004962076898664236,2.615463472466217e-06,5.598867574008182e-07,2.254657601952204e-06,,,,,,
0.806587160,,,,,,,,,,,0.02352931909263134,1,0.03429215773940086,1,0.05208476632833481,1
0.810395896,0.005,-0.008040645159780979,-0.02444717288017273,-0.9940155148506165,-0.0001255036622751504,-4.403274215292186e-05,-0.004967174027115107,-5.9593998003038e-07,-1.885246433630527e-06,4.113012892048573e-06,,,,,,
0.811597288,,,,,,,,,,,0.01771141588687897,1,0.02789757773280144,1,0.05472966283559799,1
0.815438569,0.005,-0.008721084333956242,-0.02476841956377029,-0.9960922002792358,-0.0001263998710783198,-4.783847180078737e-05,-0.004993060603737831,-2.861833763745381e-06,8.144445928337518e-06,2.878217401303118e-06,,,,,,
0.816602886,,,,,,,,,,,0.01454165019094944,1,0.0212272796779871,1,0.03436475992202759,1
0.820457220,0.005,-0.008622696623206139,-0.02400663681328297,-0.9964792728424072,-0.0001154987985501066,-4.285317118046805e-05,-0.004985700361430645,9.036618394020479e-06,6.101583039708203e-06,1.624523406462686e-06,,,,,,
0.821603596,,,,,,,,,,,0.02197051420807838,1,0.02221234701573849,1,0.03056953474879265,1
0.825452805,0.005,-0.008857193402945995,-0.02406357228755951,-0.9937903881072998,-0.0001205971493618563,-4.472621731110848e-05,-0.004953126888722181,7.780771738907788e-06,-1.494004095548007e-06,-1.299515020036779e-06,,,,,,
0.826599658,,,,,,,,,,,0.0213792659342289,1,0.01996150054037571,1,0.05693861469626427,1
0.830424070,0.005,-0.01100227236747742,-0.02428029105067253,-0.9955766797065735,-0.0001222513092216104,-6.768546882085502e-05,-0.00498586380854249,-4.257570651589049e-07,-7.617989012942417e-06,1.095806737794192e-06,,,,,,
0.831591427,,,,,,,,,,,0.01925680600106716,1,-0.001020718133077025,1,0.03942052647471428,1
0.835373819,0.005,-0.01117358636111021,-0.02412205375730991,-0.9975894093513489,-0.0001203623396577314,-5.786614565295167e-05,-0.005001608282327652,-6.163994385133265e-06,7.916656613815576e-06,1.61877633217955e-05,,,,,,
0.836578548,,,,,,,,,,,0.020803552120924,1,-0.002707639243453741,1,0.01968282833695412,1
0.840300262,0.005,-0.01168185938149691,-0.02427258528769016,-0.9961259365081787,-0.0001204103537020274,-6.068506627343595e-05,-0.004973845556378365,6.150140961835859e-06,-1.131386852648575e-05,1.467826041334774e-05,,,,,,
0.841560841,,,,,,,,,,,0.01933914236724377,1,-0.007677290122956038,1,0.0340338908135891,1
0.845203459,0.005,-0.01493243314325809,-0.02548883482813835,-0.993363082408905,-0.00013553629105445,-9.349325409857556e-05,-0.004948865622282028,-8.961204400748102e-08,-5.868249445484253e-06,-6.901843335072044e-06,,,,,,
0.846538484,,,,,,,,,,,0.007452758029103279,1,-0.03953644633293152,1,0.06112679094076157,1
0.850083351,0.005,-0.01522842142730951,-0.02566906809806824,-0.9931293725967407,-0.0001290647778660059,-7.912018190836534e-05,-0.004963696002960205,-1.021616026264383e-05,-6.593178341063322e-07,6.531348390126368e-06,,,,,,
0.851511300,,,,,,,,,,,0.005721873138099909,1,-0.0424625389277935,1,0.06341883540153503,1
0.854940653,0.005,-0.01488226652145386,-0.0259163174778223,-0.9949426054954529,-0.0001310621446464211,-7.213577191578224e-05,-0.004984870553016663,-4.055933914060006e-06,5.659123871737393e-06,1.69122613442596e-05,,,,,,
0.856479466,,,,,,,,,,,0.003297283314168453,1,-0.03910250961780548,1,0.04563748091459274,1
0.859774947,0.005,-0.01328418310731649,-0.02568086981773376,-0.9958204030990601,-0.000127258914289996,-5.775169120170176e-05,-0.004985198844224215,-1.749769893422126e-07,6.013578513375251e-06,-8.833722517920251e-07,,,,,,
0.861442804,,,,,,,,,,,0.005576878320425749,1,-0.02346259355545044,1,0.037029929459095,1
0.864586473,0.005,-0.01249674241989851,-0.02577217668294907,-0.993720531463623,-0.0001291396620217711,-5.583500387729146e-05,-0.004957461263984442,3.821061454800656e-06,-1.900518554975861e-06,-1.379267541778972e-05,,,,,,
0.866401553,,,,,,,,,,,0.004661561921238899,1,-0.01574049890041351,1,0.05762333422899246,1
0.869375765,0.005,-0.01319317985326052,-0.02550868317484856,-0.9929661750793457,-0.000126240513054654,-7.067080878186971e-05,-0.004957814700901508,-2.237134367533145e-06,-5.146824605617439e-06,-9.896889423544053e-06,,,,,,
0.871355653,,,,,,,,,,,0.007241073064506054,1,-0.02255456335842609,1,0.06502098590135574,1
0.874586880,0.005,-0.01115031633526087,-0.0258156955242157,-0.9964154362678528,-0.0001302102318732068,-4.43093158537522e-05,-0.005001839715987444,-1.322484422416892e-05,6.330305950541515e-07,2.978358963900973e-07,,,,,,
0.876394212,,,,,,,,,,,0.004243705421686172,1,-0.002563805785030127,1,0.03119500912725925,1
0.879774213,0.005,-0.009099854156374931,-0.02518985420465469,-0.9978823661804199,-0.000122751691378653,-3.241949889343232e-05,-0.005001191981136799,-2.020879719566437e-06,3.391243694750301e-07,-2.073191353701986e-06,,,,,,
0.881428480,,,,,,,,,,,0.01037786621600389,1,0.01749255135655403,1,0.01680991798639297,1
0.884938002,0.005,-0.009505352936685085,-0.02582698315382004,-0.9934468269348145,-0.0001318310969509184,-4.887317481916398e-05,-0.004941416438668966,1.388578948535724e-05,-1.423853882442927e-05,-1.6498892364325e-05,,,,,,
0.886457860,,,,,,,,,,,0.004162723198533058,1,0.01353601086884737,1,0.06030642986297607,1
0.890081286,0.005,-0.01089771464467049,-0.02683736756443977,-0.9930269718170166,-0.0001410041149938479,-6.382113497238606e-05,-0.004959999583661556,-5.743452788919967e-07,-3.262802920289687e-06,-1.582413824507967e-05,,,,,,
0.891483128,,,,,,,,,,,-0.005704105831682682,1,-0.0001016520109260455,1,0.06442245095968246,1
0.895201027,0.005,-0.009530585259199142,-0.02644206397235394,-0.9963643550872803,-0.0001303174649365246,-4.025963426101953e-05,-0.005002143792808056,-1.024266020976938e-05,5.603760200756369e-06,-3.224111878807889e-06,,,,,,
0.896503806,,,,,,,,,,,-0.001834672642871737,1,0.01327298581600189,1,0.03169446811079979,1
0.900296986,0.005,-0.008696521632373333,-0.02628202550113201,-0.9962553381919861,-0.0001301183219766244,-3.790723712882027e-05,-0.004981642588973045,9.934495892593986e-07,-1.874424697234645e-06,3.561932544471347e-06,,,,,,
0.901520133,,,,,,,,,,,-0.0002669939422048628,1,0.02142559923231602,1,0.0327645055949688,1
0.905369580,0.005,-0.007647580467164516,-0.02584247477352619,-0.9959896802902222,-0.0001266854960704222,-3.214875687262975e-05,-0.004977818112820387,6.650496402471617e-07,-4.572726993501419e-06,-1.208161302201916e-05,,,,,,
0.906531572,,,,,,,,,,,0.004055015277117491,1,0.03170701861381531,1,0.03536993637681007,1
0.910417914,0.005,-0.007216793950647116,-0.02626570872962475,-0.9957239627838135,-0.0001338201109319925,-3.276929419371299e-05,-0.004976918920874596,1.496679033152759e-06,-7.097507932485314e-07,-9.045028491527773e-06,,,,,,
0.911538422,,,,,,,,,,,-7.886928506195545e-05,1,0.03592929244041443,1,0.03797522559762001,1
0.915443480,0.005,-0.006895744241774082,-0.02581507712602615,-0.9949865341186523,-0.0001271082292078063,-3.301059041405097e-05,-0.004970548208802938,-2.467172180331545e-06,-3.416308231862786e-07,3.761521384149091e-06,,,,,,
0.916540682,,,,,,,,,,,0.004344867076724768,1,0.03907943516969681,1,0.04520715773105621,1
0.920446455,0.005,-0.005787737667560577,-0.02565889805555344,-0.994620680809021,-0.0001266233739443123,-2.237644002889283e-05,-0.00497034378349781,-5.629679890262196e-06,-6.796426532673649e-06,5.657545443682466e-06,,,,,,
0.921538293,,,,,,,,,,,0.00589829683303833,1,0.04992916062474251,1,0.0487934909760952,1
0.925425410,0.005,-0.005635543260723352,-0.02639725059270859,-0.9965049028396606,-0.0001365751231787726,-2.709226828301325e-05,-0.004993288777768612,-2.170559355363366e-06,-8.564143740841246e-07,-2.298201252415311e-06,,,,,,
0.926531315,,,,,,,,,,,-0.001316373352892697,1,0.05139368399977684,1,0.03031525947153568,1
0.930381596,0.005,-0.006203913595527411,-0.02611959725618362,-0.9967743158340454,-0.0001293294335482642,-3.399799243197776e-05,-0.004986792802810669,8.378823963539617e-07,1.594614673194883e-06,-3.042587422896759e-06,,,,,,
0.931519747,,,,,,,,,,,0.001411623088642955,1,0.04580920189619064,1,0.0276733823120594,1
0.935314178,0.005,-0.007246841676533222,-0.02639448642730713,-0.9952688217163086,-0.0001327428471995518,-4.232959690853022e-05,-0.004967459943145514,6.612029210373294e-06,-7.095900855347281e-06,8.646771675557829e-06,,,,,,
0.936503291,,,,,,,,,,,-0.00126441742759198,1,0.03559510037302971,1,0.04243640974164009,1
0.940223992,0.005,-0.008274503983557224,-0.02731829881668091,-0.9951828718185425,-0.0001423854846507311,-4.7498986532446e-05,-0.004974499344825745,-1.145867713603366e-06,-8.014128525246633e-07,7.11871780367801e-06,,,,,,
0.941482723,,,,,,,,,,,-0.01029567513614893,1,0.02553818747401237,1,0.04327879101037979,1
0.945113361,0.005,-0.008450801484286785,-0.02754120901226997,-0.9952825307846069,-0.0001395934668835253,-4.341017483966425e-05,-0.004977791104465723,-3.931937044399092e-06,7.749638825771399e-06,8.628708201285917e-06,,,,,,
0.946457326,,,,,,,,,,,-0.01249316800385714,1,0.02380410954356194,1,0.04230142757296562,1
0.949979901,0.005,-0.009745447896420956,-0.02697985619306564,-0.9948960542678833,-0.0001310971711063758,-5.617683564196341e-05,-0.004972489550709724,6.674823907815153e-06,1.072440909410943e-06,8.936303856899031e-06,,,,,,
0.951427341,,,,,,,,,,,-0.007010034751147032,1,0.01111950445920229,1,0.04609185457229614,1
0.954824448,0.005,-0.01095021795481443,-0.02706276439130306,-0.9955369234085083,-0.0001358815643470734,-6.219366332516074e-05,-0.004981081932783127,-5.108713594381697e-06,6.761195436411072e-06,4.485753379412927e-06,,,,,,
0.956392705,,,,,,,,,,,-0.007858522236347198,1,-0.0006954914424568415,1,0.03980793803930283,1
0.959646463,0.005,-0.01116070244461298,-0.02705067209899426,-0.9971583485603333,-0.0001354627747787163,-5.696542939404026e-05,-0.004995974712073803,1.36123230731755e-06,9.416237844561692e-06,3.631565959949512e-06,,,,,,
0.961353481,,,,,,,,,,,-0.007796725258231163,1,-0.002765326760709286,1,0.02390866540372372,1
0.964445710,0.005,-0.0124763585627079,-0.02659101039171219,-0.9955958724021912,-0.0001302370365010574,-7.034113514237106e-05,-0.004969585686922073,7.396946330118226e-06,5.887221504963236e-06,2.947883558590547e-06,,,,,,
0.966309905,,,,,,,,,,,-0.003355759428814054,1,-0.015646917745471,1,0.03923314809799194,1
0.969571590,0.005,-0.01331293396651745,-0.02653450891375542,-0.9938249588012695,-0.00013226960436441,-7.162363908719271e-05,-0.004957842174917459,2.455577941873344e-06,-3.917469257430639e-06,-3.873322839353932e-06,,,,,,
0.971348763,,,,,,,,,,,-0.002837256761267781,1,-0.02380707301199436,1,0.05659984797239304,1
0.974760711,0.005,-0.01364164426922798,-0.02646761387586594,-0.9945045709609985,-0.0001318994618486613,-7.026276580290869e-05,-0.004975776188075542,-4.973043814970879e-06,4.536621418083087e-06,8.337354984178091e-08,,,,,,
0.976383507,,,,,,,,,,,-0.002207314595580101,1,-0.0270141065120697,1,0.04993570223450661,1
0.979926765,0.005,-0.01289217825978994,-0.02563387528061867,-0.9956498146057129,-0.0001234409137396142,-6.049363946658559e-05,-0.004985353909432888,-5.370922281144885e-06,6.313780886557652e-06,-2.962492999358801e-06,,,,,,
0.981413364,,,,,,,,,,,0.005927859805524349,1,-0.01969325542449951,1,0.03870588541030884,1
0.985069573,0.005,-0.01265234779566526,-0.02556419931352139,-0.9950975179672241,-0.0001267759944312274,-6.151478737592697e-05,-0.004973061382770538,3.032306267414242e-06,-9.194532140099909e-06,-7.286998879862949e-06,,,,,,
0.986438394,,,,,,,,,,,0.006601239088922739,1,-0.0173444077372551,1,0.04412249475717545,1
0.990188301,0.005,-0.0126511175185442,-0.02538062073290348,-0.9949506521224976,-0.0001260003336938098,-6.378745456459001e-05,-0.004973478615283966,7.441519755957415e-07,-5.026007329433924e-06,-5.69724807064631e-06,,,,,,
0.991459072,,,,,,,,,,,0.008422678336501122,1,-0.01732146181166172,1,0.04556259140372276,1
0.995282710,0.005,-0.01153065264225006,-0.02488977834582329,-0.9949585199356079,-0.0001220122212544084,-5.153985330252908e-05,-0.004975227639079094,-1.268960204470204e-06,4.5114402382751e-06,-5.87172098676092e-06,,,,,,
0.996475160,,,,,,,,,,,0.01324706245213747,1,-0.006331394426524639,1,0.04548491165041924,1
1.000354290,0.005,-0.01070958189666271,-0.02453277446329594,-0.9953131079673767,-0.000119971446110867,-4.834466017200612e-05,-0.004978498909622431,4.690945388574619e-06,-2.142105131497374e-06,-3.744263267435599e-06,,,,,,
1.001486540,,,,,,,,,,,0.01674126833677292,1,0.001739202998578548,1,0.04200756549835205,1
1.005402565,0.005,-0.009501532651484013,-0.0246405191719532,-0.9960154294967651,-0.0001238654949702322,-4.044760862598196e-05,-0.004984138067811728,1.506213152424607e-06,-5.441878329293104e-06,-2.534274244681001e-06,,,,,,
1.006493211,,,,,,,,,,,0.01570718176662922,1,0.01360905915498734,1,0.0351199246942997,1
1.010426879,0.005,-0.008455383591353893,-0.02434598468244076,-0.995819091796875,-0.0001201771883643232,-3.6038789403392e-05,-0.00497837970033288,-3.885733121933299e-07,-4.268047632649541e-06,-9.21055834623985e-06,,,,,,
1.011494875,,,,,,,,,,,0.01862233504652977,1,0.02388086915016174,1,0.03704429790377617,1
1.015427828,0.005,-0.008129507303237915,-0.02450572699308395,-0.995036244392395,-0.0001232940558111295,-3.887262937496416e-05,-0.00497114285826683,6.1443906815839e-06,-1.415686597283639e-06,-5.272551334201125e-06,,,,,,
1.016492009,,,,,,,,,,,0.01707869023084641,1,0.02710657939314842,1,0.04472079128026962,1
1.020404458,0.005,-0.007471057586371899,-0.0243743397295475,-0.9944578409194946,-0.0001210718328366056,-3.361196650075726e-05,-0.004968042951077223,2.012621251878954e-07,-1.831369189631005e-07,-2.339756747460342e-06,,,,,,
1.021484256,,,,,,,,,,,0.01837717927992344,1,0.0335913673043251,1,0.0503925234079361,1
1.025360107,0.005,-0.006874238606542349,-0.02463807910680771,-0.9958091974258423,-0.0001245980383828282,-3.075017593801022e-05,-0.004986696410924196,-2.407389729341958e-06,-2.196905143136973e-06,-4.123196049476974e-06,,,,,,
1.026472449,,,,,,,,,,,0.01580989547073841,1,0.03945541754364967,1,0.03713920712471008,1
1.030292749,0.005,-0.00661897799000144,-0.0245101023465395,-0.9961325526237488,-0.0001222192368004471,-3.104340430581942e-05,-0.004983358550816774,-1.939795993166626e-06,8.386662557313684e-06,-4.732539764518151e-06,,,,,,
1.031455994,,,,,,,,,,,0.01704663038253784,1,0.04195598885416985,1,0.03396870195865631,1
1.035202026,0.005,-0.006681639235466719,-0.02439211495220661,-0.9954023361206055,-0.000121005876280833,-3.374108200659975e-05,-0.00497265113517642,2.06434424399049e-06,3.48210801348614e-06,-1.414006533195789e-06,,,,,,
1.036434889,,,,,,,,,,,0.01816899329423904,1,0.04135009273886681,1,0.04113090038299561,1
1.040088058,0.005,-0.007045578211545944,-0.02465352229773998,-0.9955114722251892,-0.0001247378968400881,-3.737099905265495e-05,-0.004978450946509838,7.853621355025098e-06,2.090373754981556e-06,-9.826312634686474e-07,,,,,,
1.041409016,,,,,,,,,,,0.01557648926973343,1,0.0378153882920742,1,0.04006045311689377,1
1.044951081,0.005,-0.007526787463575602,-0.02487842366099358,-0.9953754544258118,-0.0001260910794371739,-4.049190465593711e-05,-0.004976141732186079,4.60867249785224e-06,4.929649094265187e-06,-3.250079998906585e-06,,,,,,
1.046378493,,,,,,,,,,,0.01333430130034685,1,0.03314217925071716,1,0.04139452800154686,1
1.049791217,0.005,-0.008247154764831066,-0.02521939761936665,-0.9949790835380554,-0.0001281661679968238,-4.508494021138176e-05,-0.004972462542355061,3.148569703625981e-06,2.378323870289023e-06,-4.691113190347096e-06,,,,,,
1.051343322,,,,,,,,,,,0.009951521642506123,1,0.02612100355327129,1,0.04528182744979858,1
1.054608583,0.005,-0.009349992498755455,-0.02550654299557209,-0.9953306913375854,-0.0001295085385208949,-5.317795512382872e-05,-0.004978647455573082,-2.031268650171114e-06,1.197309643430344e-06,2.816053211063263e-06,,,,,,
1.056303382,,,,,,,,,,,0.007111028302460909,1,0.01532912626862526,1,0.04183470085263252,1
1.059404254,0.005,-0.01039235200732946,-0.02605415880680084,-0.9957423210144043,-0.0001335229608230293,-5.859104203409515e-05,-0.004981216043233871,2.276088935104781e-06,2.543954906286672e-06,2.028076778515242e-06,,,,,,
1.061258793,,,,,,,,,,,0.001715970342047513,1,0.005121231079101562,1,0.03779854997992516,1
1.064529896,0.005,-0.01144488248974085,-0.02613200433552265,-0.9957975149154663,-0.0001312859531026334,-6.309032323770225e-05,-0.004979785997420549,4.215447006572504e-06,-1.105075284613122e-07,4.261536105332198e-06,,,,,,
1.066297889,,,,,,,,,,,0.0009279290679842234,1,-0.005175120197236538,1,0.03725745156407356,1
1.069720030,0.005,-0.01233795657753944,-0.0268703531473875,-0.9952156543731689,-0.0001382200716761872,-6.710833258694038e-05,-0.004972673021256924,-2.155522679458954e-06,1.887938196887262e-06,-1.919827582241851e-06,,,,,,
1.071332812,,,,,,,,,,,-0.00632672430947423,1,-0.01391156762838364,1,0.04296346753835678,1
1.074887395,0.005,-0.01280591450631618,-0.02698458544909954,-0.9945900440216064,-0.0001357909059152007,-6.698474317090586e-05,-0.004969347734004259,-1.045652084030735e-06,6.282203685259447e-06,7.009299451965489e-07,,,,,,
1.076362967,,,,,,,,,,,-0.007480129599571228,1,-0.01849895156919956,1,0.04910014942288399,1
1.080031514,0.005,-0.01293423399329185,-0.02721589989960194,-0.9945158362388611,-0.000137794588226825,-6.589903205167502e-05,-0.00497230002656579,-4.749834261019714e-06,2.47465266056679e-07,2.736799615377095e-06,,,,,,
1.081388235,,,,,,,,,,,-0.009781218133866787,1,-0.01976797915995121,1,0.04982903227210045,1
1.085151792,0.005,-0.01290035154670477,-0.02727648802101612,-0.9953629374504089,-0.0001368626544717699,-6.454873800976202e-05,-0.004981745965778828,5.275066072840673e-08,-8.049269126786385e-07,-2.139985781468567e-06,,,,,,
1.086409211,,,,,,,,,,,-0.01038983277976513,1,-0.0194459930062294,1,0.04152180254459381,1
1.090247989,0.005,-0.01244340557605028,-0.02713375352323055,-0.9959890246391296,-0.0001348636433249339,-5.947314639342949e-05,-0.004983982071280479,5.902211796637857e-06,6.050961019354872e-06,1.311069297571521e-07,,,,,,
1.091425300,,,,,,,,,,,-0.009018823504447937,1,-0.01498783845454454,1,0.03538326919078827,1
1.095320106,0.005,-0.01205451879650354,-0.02650673687458038,-0.9954488277435303,-0.0001287964405491948,-5.818079807795584e-05,-0.004974544979631901,-6.002047712172498e-07,7.380929218925303e-07,-1.236789216818579e-06,,,,,,
1.096436739,,,,,,,,,,,-0.002903989516198635,1,-0.01118677482008934,1,0.04068142175674438,1
1.100369453,0.005,-0.01230170391499996,-0.026161914691329,-0.9949043989181519,-0.0001285574398934841,-6.285835843300447e-05,-0.00497059291228652,-1.916969040394179e-06,-5.269419034448219e-06,-5.77055425310391e-06,,,,,,
1.101443529,,,,,,,,,,,0.0004734899266622961,1,-0.01361957658082247,1,0.04602075740695,1
1.105395198,0.005,-0.01271825935691595,-0.02578528970479965,-0.9951197504997253,-0.0001268316409550607,-6.598548498004675e-05,-0.004976886324584484,1.742014774208656e-06,-3.828468379651895e-06,-2.197647518187296e-06,,,,,,
1.106445789,,,,,,,,,,,0.004177703522145748,1,-0.01770847104489803,1,0.04390833526849747,1
1.110407114,0.005,-0.01222860161215067,-0.02601799927651882,-0.9957863688468933,-0.0001311402156716213,-5.860231976839714e-05,-0.004983098246157169,-3.740487272807513e-06,-9.361385764350416e-07,-7.587394520669477e-06,,,,,,
1.111445785,,,,,,,,,,,0.001912317937240005,1,-0.01291580591350794,1,0.03737106919288635,1
1.115397930,0.005,-0.01232255715876818,-0.02613167464733124,-0.9966025948524475,-0.0001312698586843908,-6.081545870983973e-05,-0.004987950436770916,1.111064534597972e-06,-4.750363586936146e-06,-3.752351858565817e-06,,,,,,
1.116441131,,,,,,,,,,,0.0008161116857081652,1,-0.01383742317557335,1,0.02936623618006706,1
1.120365620,0.005,-0.01290019601583481,-0.02694210596382618,-0.9964259266853333,-0.0001393084385199472,-6.967825174797326e-05,-0.004982099402695894,4.248779106319489e-08,-2.710809440031881e-06,-6.784985657759535e-07,,,,,,
1.121431828,,,,,,,,,,,-0.007105583325028419,1,-0.0194967333227396,1,0.03109764866530895,1
1.125309944,0.005,-0.01017538737505674,-0.02647051587700844,-0.993608295917511,-0.0001304041797993705,-3.443386231083423e-05,-0.00495068309828639,-4.229821570334025e-06,3.620564939410542e-06,3.535481596372847e-07,,,,,,
1.126417637,,,,,,,,,,,-0.002477485686540604,1,0.007207802031189203,1,0.05872874334454536,1
1.130230308,0.005,-0.009409581311047077,-0.02590229734778404,-0.9942823648452759,-0.0001248479093192145,-4.246845855959691e-05,-0.004975022748112679,-3.301415517853457e-06,-3.448941015449236e-06,-2.542318043197156e-06,,,,,,
1.131398916,,,,,,,,,,,0.003103490453213453,1,0.01470441184937954,1,0.05211891606450081,1
1.135128617,0.005,-0.007003979757428169,-0.02650127932429314,-0.994968593120575,-0.0001368261000607163,-2.142312951036729e-05,-0.004978640004992485,-8.920045729610138e-06,3.497927991702454e-06,-8.871546015143394e-06,,,,,,
1.136375546,,,,,,,,,,,-0.002764233853667974,1,0.03825520351529121,1,0.04538993909955025,1
1.140004635,0.005,-0.006359198596328497,-0.02405629307031631,-0.9958418607711792,-0.0001058682391885668,-2.597816637717187e-05,-0.004984638653695583,4.916899342788383e-06,7.771331183903385e-06,-8.019914275791962e-06,,,,,,
1.141347528,,,,,,,,,,,0.02116448432207108,1,0.04455755278468132,1,0.03682660311460495,1
1.144856811,0.005,-0.006527663674205542,-0.02408363297581673,-0.9965826272964478,-0.0001190718612633646,-3.451183147262782e-05,-0.004986645188182592,-5.031148248235695e-06,-1.060187787516043e-05,-8.163378879544325e-06,,,,,,
1.146314979,,,,,,,,,,,0.02089858055114746,1,0.04289567470550537,1,0.0295625813305378,1
1.149686813,0.005,-0.005999941844493151,-0.02431486174464226,-0.997996985912323,-0.0001237588585354388,-2.631010829645675e-05,-0.004998922813683748,5.610731477645459e-06,4.681313612309168e-07,-2.890234782171319e-06,,,,,,
1.151277542,,,,,,,,,,,0.01864831335842609,1,0.04806475713849068,1,0.01569202169775963,1
1.154493451,0.005,-0.007440746296197176,-0.02408380247652531,-0.9958601593971252,-0.0001187111483886838,-4.591730976244435e-05,-0.004967844113707542,2.126934532498126e-06,-6.75582896292326e-06,-2.221020167780807e-06,,,,,,
1.156235576,,,,,,,,,,,0.02092859335243702,1,0.03396010026335716,1,0.03664594143629074,1
1.159535885,0.005,-0.008353430777788162,-0.0243405569344759,-0.9938706755638123,-0.0001228306500706822,-4.701379293692298e-05,-0.004956259857863188,6.7460509853845e-06,-5.754373432864668e-06,5.396606411522953e-06,,,,,,
1.161274910,,,,,,,,,,,0.01845942810177803,1,0.02504665963351727,1,0.05615545809268951,1
1.164726734,0.005,-0.009668337181210518,-0.02490696310997009,-0.9943792223930359,-0.0001282399753108621,-5.59392647119239e-05,-0.00497386185452342,-3.768989017771673e-06,6.624615707551129e-06,7.470157925126841e-06,,,,,,
1.166309834,,,,,,,,,,,0.01292087975889444,1,0.01216766610741615,1,0.05116741359233856,1
1.169894457,0.005,-0.009791173972189426,-0.0245087556540966,-0.9965036511421204,-0.000120461598271504,-5.028542727814056e-05,-0.004995917901396751,-3.403012897251756e-06,1.240472647623392e-05,5.6326316553168e-06,,,,,,
1.171339989,,,,,,,,,,,0.01677919551730156,1,0.01096137799322605,1,0.0303356908261776,1
1.175038218,0.005,-0.01078973058611155,-0.02376933209598064,-0.9961620569229126,-0.0001139900923590176,-5.961424176348373e-05,-0.004979365505278111,5.091164439363638e-06,5.070120096206665e-06,3.984156592196086e-06,,,,,,
1.176365256,,,,,,,,,,,0.02397180907428265,1,0.00117691932246089,1,0.03368644043803215,1
1.180158257,0.005,-0.01148676406592131,-0.02401468530297279,-0.9954059720039368,-0.0001218957695527934,-6.208456034073606e-05,-0.004972252994775772,-5.012282144889468e-07,6.788827249692986e-06,5.435805633169366e-06,,,,,,
1.181386232,,,,,,,,,,,0.02150957845151424,1,-0.00564038660377264,1,0.04110253602266312,1
1.185254693,0.005,-0.01137613318860531,-0.02353503182530403,-0.9952313899993896,-0.0001145218921010382,-5.663178308168426e-05,-0.004975034855306149,-1.643299583520275e-06,7.014092261670157e-06,1.007331411528867e-05,,,,,,
1.186402321,,,,,,,,,,,0.02614114060997963,1,-0.004553044680505991,1,0.04281706735491753,1
1.190326571,0.005,-0.01127378921955824,-0.02386025711894035,-0.9961063861846924,-0.0001208444882649928,-5.605231490335427e-05,-0.004985159728676081,-3.034113206012989e-06,1.792589955584845e-06,7.324713351408718e-06,,,,,,
1.191413760,,,,,,,,,,,0.02290288172662258,1,-0.003560587065294385,1,0.03423738107085228,1
1.195379972,0.005,-0.01044054143130779,-0.02371661178767681,-0.9959835410118103,-0.0001180895706056617,-4.682113649323583e-05,-0.004979655612260103,1.047322598424216e-06,-4.637408039798174e-07,4.405371782922884e-06,,,,,,
1.196422100,,,,,,,,,,,0.02427752129733562,1,0.004601869732141495,1,0.03544300049543381,1
1.200411916,0.005,-0.011056256480515,-0.02371902018785477,-0.9956369400024414,-0.0001177358208224177,-5.863185651833192e-05,-0.004976267460733652,8.087520654953551e-06,-7.791198186168913e-06,-9.954912911780411e-07,,,,,,
1.201425672,,,,,,,,,,,0.02425812743604183,1,-0.001412693527527153,1,0.03884182125329971,1
1.205421567,0.005,-0.01133130770176649,-0.02397413738071918,-0.9945090413093567,-0.0001215854936162941,-5.841578968102112e-05,-0.004966088570654392,6.93706454057974e-07,-4.471901320357574e-06,-1.623993966859416e-06,,,,,,
1.206424594,,,,,,,,,,,0.02177439257502556,1,-0.004078398458659649,1,0.04990168288350105,1
1.210408449,0.005,-0.01214471086859703,-0.02410676516592503,-0.9947003126144409,-0.0001211155904456973,-6.529920938191935e-05,-0.004973706789314747,2.176349198634853e-06,-7.703730261710007e-06,7.339034624465057e-08,,,,,,
1.211418867,,,,,,,,,,,0.02051728591322899,1,-0.01202809438109398,1,0.04802386090159416,1
1.215372086,0.005,-0.01208187360316515,-0.0244682040065527,-0.9958111643791199,-0.0001244840386789292,-6.075501732993871e-05,-0.004985904321074486,-4.680872734752484e-06,-6.231358383956831e-06,-2.292164708705968e-06,,,,,,
1.216408610,,,,,,,,,,,0.01702279038727283,1,-0.01140635088086128,1,0.03712907433509827,1
1.220312357,0.005,-0.01211542822420597,-0.02448954619467258,-0.9957400560379028,-0.0001231448695762083,-6.024366666679271e-05,-0.004978596232831478,-1.564824401611986e-06,2.355579681534437e-06,-5.812301878904691e-06,,,,,,
1.221393943,,,,,,,,,,,0.01684321835637093,1,-0.0117376996204257,1,0.0378260500729084,1
1.225231051,0.005,-0.01214470062404871,-0.02497625723481178,-0.9950089454650879,-0.000127671955851838,-6.170505366753787e-05,-0.004970722366124392,7.427632340295531e-07,1.429879148417967e-06,-7.07142044120701e-06,,,,,,
1.226374626,,,,,,,,,,,0.01208113878965378,1,-0.01202449295669794,1,0.04499505832791328,1
1.230126858,0.005,-0.01164518389850855,-0.02523468807339668,-0.9947713613510132,-0.0001273331145057455,-5.504725049831904e-05,-0.004972295835614204,-9.743671398609877e-07,6.044712819175402e-08,-5.318578132573748e-06,,,,,,
1.231350780,,,,,,,,,,,0.009546015411615372,1,-0.007128645665943623,1,0.04732505604624748,1
1.235000372,0.005,-0.01069103553891182,-0.02542668953537941,-0.9947025775909424,-0.0001287671184400097,-4.819268724531867e-05,-0.004973088856786489,-6.484594905487029e-06,5.093066647532396e-06,-5.585089184023673e-06,,,,,,
1.236322284,,,,,,,,,,,0.007648875936865807,1,0.002209389349445701,1,0.04800058156251907,1
1.239850998,0.005,-0.009768885560333729,-0.02502463385462761,-0.9949370622634888,-0.0001227511384058744,-4.332461321610026e-05,-0.004975851625204086,-4.006191829830641e-06,1.717877125884115e-06,-4.987168267689412e-06,,,,,,
1.241289258,,,,,,,,,,,0.01156585663557053,1,0.0112222982570529,1,0.04570216313004494,1
1.244678378,0.005,-0.009556882083415985,-0.02536866441369057,-0.9952893853187561,-0.0001281968725379556,-4.667833127314225e-05,-0.004978411830961704,-1.29978991481039e-06,4.476991762203397e-06,-6.947960628167493e-06,,,,,,
1.246251464,,,,,,,,,,,0.008164381608366966,1,0.01326870266348124,1,0.04224791005253792,1
1.249486327,0.005,-0.009074348025023937,-0.02605890482664108,-0.9958113431930542,-0.0001347061479464173,-4.283771340851672e-05,-0.004982607439160347,7.338488927643994e-08,4.593946414388483e-06,-4.49309072791948e-06,,,,,,
1.251209736,,,,,,,,,,,0.001351530430838466,1,0.01799836196005344,1,0.03713024780154228,1
1.254445553,0.005,-0.008303504437208176,-0.02588766254484653,-0.9954826235771179,-0.0001281004806514829,-3.675048355944455e-05,-0.004975696559995413,-9.72153998191061e-07,-5.448385309136938e-06,2.604647988846409e-06,,,,,,
1.256250143,,,,,,,,,,,0.003016472794115543,1,0.0255478248000145,1,0.04035420715808868,1
1.259641886,0.005,-0.008029935881495476,-0.0265027116984129,-0.9949260354042053,-0.0001355134008917958,-3.826969987130724e-05,-0.004970871843397617,-2.615460061861086e-06,-8.016536412469577e-06,7.903300343059527e-07,,,,,,
1.261285901,,,,,,,,,,,-0.002992783207446337,1,0.02821786515414715,1,0.04581283777952194,1
1.264813781,0.005,-0.007496675942093134,-0.02703188732266426,-0.9951182007789612,-0.0001387914380757138,-3.459970685071312e-05,-0.004976373631507158,-3.487016329017933e-07,1.995322236325592e-06,-3.575679329514969e-06,,,,,,
1.266316772,,,,,,,,,,,-0.008165250532329082,1,0.03343958780169487,1,0.04392757639288902,1
1.269961715,0.005,-0.007249654736369848,-0.02739568613469601,-0.9957205057144165,-0.0001389714307151735,-3.467920396360569e-05,-0.004981905221939087,-1.609625883247645e-06,-2.894604222092312e-06,-1.898163077385107e-06,,,,,,
1.271343589,,,,,,,,,,,-0.01172102149575949,1,0.03584961593151093,1,0.03802128881216049,1
1.275088668,0.005,-0.00746882101520896,-0.02776714786887169,-0.9961190819740295,-0.0001410067779943347,-3.827382897725329e-05,-0.004983325488865376,4.22080074713449e-06,-5.603406407317379e-06,2.183561917945553e-07,,,,,,
1.276365876,,,,,,,,,,,-0.01534214708954096,1,0.03371058031916618,1,0.03411136567592621,1
1.280191779,0.005,-0.00782073475420475,-0.02793663740158081,-0.996113657951355,-0.0001409937540302053,-4.12770859838929e-05,-0.004981157835572958,-2.203654730692506e-06,5.677586614183383e-07,-9.073542628357245e-07,,,,,,
1.281383395,,,,,,,,,,,-0.01698273047804832,1,0.03026906214654446,1,0.03416357934474945,1
1.285271287,0.005,-0.008364835754036903,-0.02806386910378933,-0.9954472780227661,-0.0001407275121891871,-4.509343489189632e-05,-0.004973261617124081,-9.690481874713441e-07,-2.675144230579463e-07,2.433598353945854e-07,,,,,,
1.286396384,,,,,,,,,,,-0.0182260163128376,1,0.02492924593389034,1,0.04069909080862999,1
1.290326834,0.005,-0.008959552273154259,-0.02836399525403976,-0.9953921437263489,-0.0001435597951058298,-4.879781772615388e-05,-0.004976538009941578,1.219465957547072e-06,1.501323595221038e-06,4.857320163864642e-07,,,,,,
1.291404486,,,,,,,,,,,-0.02118350937962532,1,0.01906933076679707,1,0.04124052077531815,1
1.295358777,0.005,-0.008847753517329693,-0.02827559411525726,-0.9957054257392883,-0.0001409668184351176,-4.362851177575067e-05,-0.004980608820915222,1.84644113687682e-06,1.621892920411483e-06,2.408676664344966e-06,,,,,,
1.296408057,,,,,,,,,,,-0.02033507265150547,1,0.02016222663223743,1,0.03816918656229973,1
1.300368667,0.005,-0.008977402001619339,-0.028037428855896,-0.9958720803260803,-0.0001387231604894623,-4.555482519208454e-05,-0.004980550147593021,1.214236135638203e-06,8.615216756879818e-06,1.77201422957296e-06,,,,,,
1.301407218,,,,,,,,,,,-0.01804089173674583,1,0.01889446191489697,1,0.03653529658913612,1
1.305354953,0.005,-0.009041993878781796,-0.02798915095627308,-0.9952434301376343,-0.0001399453321937472,-4.577482104650699e-05,-0.004972407128661871,1.020561512632412e-06,5.415224222815596e-06,3.215256583644077e-06,,,,,,
1.306401491,,,,,,,,,,,-0.01761620491743088,1,0.01826626434922218,1,0.04270210862159729,1
1.310318351,0.005,-0.009619798511266708,-0.02799183875322342,-0.995184600353241,-0.0001398113381583244,-5.141093424754217e-05,-0.004974931944161654,-2.339829279662808e-06,6.618686256842921e-06,5.484555003931746e-06,,,,,,
1.311391234,,,,,,,,,,,-0.01770666241645813,1,0.01259933784604073,1,0.04328103736042976,1
1.315257907,0.005,-0.0100278165191412,-0.0280386321246624,-0.9953858852386475,-0.0001406642113579437,-5.263163257041015e-05,-0.004978140816092491,1.090559294425475e-06,1.524113713458064e-06,8.360831998288631e-06,,,,,,
1.316376090,,,,,,,,,,,-0.01821248419582844,1,0.00860487949103117,1,0.04130777344107628,1
1.320174336,0.005,-0.01013106666505337,-0.02782713994383812,-0.9954921007156372,-0.0001376659201923758,-5.129708370077424e-05,-0.004978128243237734,-1.300937583437189e-06,3.327174226797069e-06,4.869003987550968e-06,,,,,,
1.321356297,,,,,,,,,,,-0.01618162915110588,1,0.00758660351857543,1,0.04026740044355392,1
1.325076222,0.005,-0.01100849825888872,-0.02765657752752304,-0.9960044026374817,-0.0001370548125123605,-6.015357575961389e-05,-0.00498303072527051,9.39000756261521e-07,2.500569507901673e-06,-1.377746684738668e-06,,,,,,
1.326334000,,,,,,,,,,,-0.01454479247331619,1,-0.001014810870401561,1,0.03524394333362579,1
1.329958200,0.005,-0.01193028315901756,-0.02747124806046486,-0.9957244396209717,-0.0001360516907880083,-6.516840949188918e-05,-0.004977173637598753,3.435475036894786e-06,1.240276674252527e-06,2.218260760855628e-06,,,,,,
1.331307292,,,,,,,,,,,-0.01275520026683807,1,-0.01003902312368155,1,0.0379892885684967,1
1.334816813,0.005,-0.01243733428418636,-0.0272992979735136,-0.9953690767288208,-0.0001356130669591948,-6.552025297423825e-05,-0.004974400624632835,-2.048769374596304e-06,2.432633436910692e-07,1.268414848709654e-06,,,,,,
1.336275935,,,,,,,,,,,-0.0110941780731082,1,-0.015001748688519,1,0.04147505015134811,1
1.339653134,0.005,-0.01221532840281725,-0.02720035426318645,-0.9953901171684265,-0.0001353981206193566,-5.983187656966038e-05,-0.004977088421583176,9.25292624742724e-07,-6.301665962382685e-06,-1.078707327906159e-06,,,,,,
1.341239810,,,,,,,,,,,-0.01011686306446791,1,-0.01281783543527126,1,0.04126849770545959,1
1.344467402,0.005,-0.01207651011645794,-0.02679403871297836,-0.9953698515892029,-0.0001319942530244589,-5.964168303762563e-05,-0.004976959433406591,-2.784039679681882e-06,-9.351250582767534e-07,-1.106384406313055e-08,,,,,,
1.346199036,,,,,,,,,,,-0.006118194200098515,1,-0.01146180275827646,1,0.04146704077720642,1
1.349344969,0.005,-0.01123674213886261,-0.02616303041577339,-0.9951890110969543,-0.0001272270892513916,-5.148663694853894e-05,-0.004974526353180408,-1.431305349797185e-06,-4.069911938131554e-06,-6.25557640887564e-06,,,,,,
1.351239681,,,,,,,,,,,8.57312697917223e-05,1,-0.003231698647141457,1,0.04324007406830788,1
1.354543328,0.005,-0.01024229638278484,-0.02584155648946762,-0.9954233765602112,-0.0001269372296519578,-4.542692840914242e-05,-0.004978573881089687,-3.698402224472375e-06,-4.580769200401846e-06,-4.79781192552764e-06,,,,,,
1.356275678,,,,,,,,,,,0.003266798099502921,1,0.006508383434265852,1,0.04094148054718971,1
1.359717131,0.005,-0.009545759297907352,-0.02546018548309803,-0.9953641891479492,-0.00012533190601971,-4.368856752989814e-05,-0.004976500757038593,2.356551703996956e-06,-8.473349453197443e-07,4.028259354527108e-06,,,,,,
1.361307144,,,,,,,,,,,0.007033025380223989,1,0.01333325076848269,1,0.04152114689350128,1
1.364866853,0.005,-0.008694696240127087,-0.02468384988605976,-0.9953075051307678,-0.0001188096284749918,-3.812916838796809e-05,-0.004976276308298111,-2.00272870642948e-06,-9.130866374107427e-07,5.994185130475671e-07,,,,,,
1.366333723,,,,,,,,,,,0.01466178894042969,1,0.0216759517788887,1,0.0420767143368721,1
1.369995236,0.005,-0.008290233090519905,-0.02430183440446854,-0.9952995777130127,-0.0001191064147860743,-3.866787665174343e-05,-0.00497595826163888,-3.733204721356742e-06,3.855006980302278e-06,1.816032977330906e-06,,,,,,
1.371356964,,,,,,,,,,,0.01840660721063614,1,0.02563148364424706,1,0.0421544723212719,1
1.375102758,0.005,-0.008079439401626587,-0.02404305338859558,-0.9955292940139771,-0.0001185681321658194,-3.905150515493006e-05,-0.004978963173925877,-6.847621989436448e-07,2.381018930464052e-06,1.428919404133921e-06,,,,,,
1.376375318,,,,,,,,,,,0.0209253802895546,1,0.02768375352025032,1,0.03990239277482033,1
1.380186677,0.005,-0.008250235579907894,-0.02377908118069172,-0.9953749775886536,-0.0001171216354123317,-4.249355697538704e-05,-0.004976332653313875,-3.522946599332499e-06,-3.825153726211283e-06,1.23114671168878e-06,,,,,,
1.381389022,,,,,,,,,,,0.02351300977170467,1,0.02598854526877403,1,0.04141596704721451,1
1.385247231,0.005,-0.008521041832864285,-0.02373184077441692,-0.9955003261566162,-0.0001182723935926333,-4.394814459374174e-05,-0.004978378303349018,1.425901672291729e-07,-1.605157990525186e-06,4.613598321157042e-06,,,,,,
1.386398196,,,,,,,,,,,0.02398563735187054,1,0.02332335896790028,1,0.04018678143620491,1
1.390284777,0.005,-0.009031189605593681,-0.02354487217962742,-0.9948546886444092,-0.0001162785483757034,-4.795337736140937e-05,-0.004970618523657322,4.148459993302822e-06,2.71469502877153e-06,-4.333968774972163e-07,,,,,,
1.391402483,,,,,,,,,,,0.0258191991597414,1,0.01832785457372665,1,0.0465179979801178,1
1.395298600,0.005,-0.009651266969740391,-0.02376165054738522,-0.9945560693740845,-0.0001201261766254902,-5.225980567047372e-05,-0.004970956593751907,-1.485024768044241e-06,-1.820614329517412e-06,2.79179994322476e-06,,,,,,
1.396402717,,,,,,,,,,,0.02368508651852608,1,0.01225599832832813,1,0.04944608360528946,1
1.400289774,0.005,-0.01041968166828156,-0.0234062559902668,-0.9951624274253845,-0.0001150157986558042,-5.643791519105434e-05,-0.004979465156793594,-9.840039183472982e-07,6.419566943804966e-06,5.005389539292082e-06,,,,,,
1.401398063,,,,,,,,,,,0.02714974991977215,1,0.004722981248050928,1,0.04350076988339424,1
1.405257463,0.005,-0.01057594083249569,-0.02303916402161121,-0.9956061840057373,-0.0001135539059760049,-5.388363933889195e-05,-0.00498118856921792,-2.495587295925361e-06,3.286844730610028e-06,-1.257106418961484e-07,,,,,,
1.406388760,,,,,,,,,,,0.03072233498096466,1,0.003181465435773134,1,0.03915007784962654,1
1.410203338,0.005,-0.010579370893538,-0.02267086505889893,-0.9947296380996704,-0.0001108030555769801,-5.310925917001441e-05,-0.004968979395925999,-2.287112010890269e-06,-2.842954245352303e-06,4.977202024747385e-06,,,,,,
1.411374807,,,,,,,,,,,0.03431506454944611,1,0.003132647834718227,1,0.04774652794003487,1
1.415126324,0.005,-0.01063619554042816,-0.02277065999805927,-0.9944067597389221,-0.0001148868468590081,-5.367224002839066e-05,-0.004968979395925999,-5.007137133361539e-06,-4.151560915488517e-06,7.311703484447207e-06,,,,,,
1.416356564,,,,,,,,,,,0.03334609791636467,1,0.00255824439227581,1,0.05091259628534317,1
1.420026422,0.005,-0.01039628498256207,-0.02242575399577618,-0.9962685108184814,-0.0001099989021895453,-5.051114567322657e-05,-0.004991697147488594,-6.781378033338115e-06,-8.652867222735949e-07,3.050317900488153e-06,,,,,,
1.421333551,,,,,,,,,,,0.03673847019672394,1,0.004871436394751072,1,0.03265538066625595,1
1.424906492,0.005,-0.01046014484018087,-0.02276372723281384,-0.9986326098442078,-0.0001155902718892321,-5.291158595355228e-05,-0.005007944535464048,2.397611979176872e-06,-2.85811239564282e-07,-4.798671326966542e-08,,,,,,
1.426306605,,,,,,,,,,,0.03343131765723228,1,0.004218475893139839,1,0.009472236037254333,1
1.429764867,0.005,-0.01138432137668133,-0.02321503683924675,-0.9971594214439392,-0.0001188797832583077,-6.207283877301961e-05,-0.00497900415211916,5.233211595623288e-06,-7.597105195600307e-06,6.587326311091601e-07,,,,,,
1.431274772,,,,,,,,,,,0.02902899868786335,1,-0.004839411936700344,1,0.02391849458217621,1
1.434600472,0.005,-0.01323444489389658,-0.02443187870085239,-0.9934981465339661,-0.0001290258078370243,-7.677434768993407e-05,-0.004945507273077965,3.429910293561989e-06,-9.18647856451571e-06,-3.918639492894727e-07,,,,,,
1.436238647,,,,,,,,,,,0.01714847609400749,1,-0.02296084351837635,1,0.05982136726379395,1
1.439414024,0.005,-0.01501779537647963,-0.02512882836163044,-0.9940653443336487,-0.0001309554500039667,-8.677745790919289e-05,-0.004971637390553951,-1.251759385922924e-05,3.86094825444161e-06,1.326700044046447e-06,,,,,,
1.441197872,,,,,,,,,,,0.01034351997077465,1,-0.04045981913805008,1,0.05425870418548584,1
1.444291353,0.005,-0.01380997896194458,-0.02448280341923237,-0.9959110021591187,-0.0001183639251394197,-6.265105912461877e-05,-0.00499145919457078,-7.134196494007483e-06,8.254017302533612e-06,4.625818291970063e-06,,,,,,
1.446238995,,,,,,,,,,,0.01665978506207466,1,-0.02867263182997704,1,0.03615916520357132,1
1.449493289,0.005,-0.01390516385436058,-0.02444783411920071,-0.9944558143615723,-0.0001219297482748516,-6.888843199703842e-05,-0.004964288789778948,8.594486644142307e-06,3.977109372499399e-06,3.934538199246163e-06,,,,,,
1.451275826,,,,,,,,,,,0.01696461252868176,1,-0.02961199544370174,1,0.05043122917413712,1
1.454670310,0.005,-0.01395772583782673,-0.02488921768963337,-0.9943168759346008,-0.000127096296637319,-7.096395711414516e-05,-0.004968908615410328,-5.948793386778561e-06,2.952565637315274e-06,-7.131672191462712e-06,,,,,,
1.456307769,,,,,,,,,,,0.01260495372116566,1,-0.03012559935450554,1,0.0517948605120182,1
1.459825158,0.005,-0.01249557174742222,-0.02473581954836845,-0.9980566501617432,-0.000122891942737624,-5.421425521490164e-05,-0.005011606495827436,-1.414368762198137e-05,9.886701946015819e-07,-3.858871423290111e-06,,,,,,
1.461335778,,,,,,,,,,,0.01407945994287729,1,-0.0158453993499279,1,0.01512175519019365,1
1.464959025,0.005,-0.01037773583084345,-0.02501444146037102,-0.9981763958930969,-0.0001264772436115891,-3.912474858225323e-05,-0.004993905313313007,4.631549018085934e-06,-5.74112391404924e-06,2.59480157183134e-06,,,,,,
1.466359258,,,,,,,,,,,0.0113433450460434,1,0.004882867448031902,1,0.01394717395305634,1
1.470068693,0.005,-0.00924240704625845,-0.0257655568420887,-0.9938024282455444,-0.0001330209925072268,-3.892350650858134e-05,-0.004944040905684233,1.210798109241296e-05,-1.289943247684278e-05,-1.280644937651232e-06,,,,,,
1.471378207,,,,,,,,,,,0.004019466228783131,1,0.0160460602492094,1,0.05683961138129234,1
1.475155234,0.005,-0.009509729221463203,-0.02669952064752579,-0.9917459487915039,-0.0001391055266140029,-4.849517426919192e-05,-0.00494418665766716,-5.906766546104336e-06,-7.66742232372053e-06,-1.27729945234023e-05,,,,,,
1.476392508,,,,,,,,,,,-0.005080760456621647,1,0.01345197856426239,1,0.07700476795434952,1
1.480217576,0.005,-0.008858896791934967,-0.02682921662926674,-0.9954723715782166,-0.0001352722174488008,-4.187309968983755e-05,-0.004998783580958843,-1.75495970324846e-05,-2.497779405530309e-06,-1.420309217792237e-06,,,,,,
1.481402159,,,,,,,,,,,-0.006290663499385118,1,0.01978266425430775,1,0.04046019166707993,1
1.485257506,0.005,-0.007831443101167679,-0.02668407931923866,-0.9973717331886292,-0.0001320966985076666,-3.201832441845909e-05,-0.005000108852982521,2.912466698035132e-06,-2.97379847324919e-06,1.987494897548459e-06,,,,,,
1.486407161,,,,,,,,,,,-0.004831539932638407,1,0.02980674058198929,1,0.02183406241238117,1
1.490275025,0.005,-0.008714006282389164,-0.02729045227169991,-0.9960829019546509,-0.0001403136411681771,-4.892974538961425e-05,-0.004972247872501612,7.229711627587676e-06,-6.395515811163932e-06,-1.024843550112564e-05,,,,,,
1.491407871,,,,,,,,,,,-0.01075592078268528,1,0.02115694805979729,1,0.03447183221578598,1
1.495268822,0.005,-0.008750940673053265,-0.02794612199068069,-0.995697557926178,-0.0001437847822671756,-4.455741873243824e-05,-0.004977179691195488,-5.083350970380707e-06,-8.154999704856891e-06,-5.786979727417929e-06,,,,,,
1.496403694,,,,,,,,,,,-0.01714171841740608,1,0.02078756876289845,1,0.03825012594461441,1
1.500239849,0.005,-0.008331884630024433,-0.02773400954902172,-0.9952772855758667,-0.0001375214051222429,-3.932536856154911e-05,-0.004973552189767361,4.973639988747891e-06,-4.534275603873539e-07,5.642534119942866e-07,,,,,,
1.501394987,,,,,,,,,,,-0.01502921245992184,1,0.02490466833114624,1,0.04237084463238716,1
1.505187631,0.005,-0.006429069209843874,-0.02824318408966064,-0.9955278038978577,-0.0001439174811821431,-2.163563476642594e-05,-0.004979390650987625,-4.334578534326283e-06,-3.082056309722248e-06,6.166386356198927e-06,,,,,,
1.506381273,,,,,,,,,,,-0.01999497599899769,1,0.04356579482555389,1,0.03991351276636124,1
1.510112047,0.005,-0.005616385955363512,-0.02878846041858196,-0.9960945248603821,-0.0001469104608986527,-2.227153345302213e-05,-0.004983546212315559,1.809207901715126e-06,4.214623913867399e-06,-2.209439116995782e-06,,,,,,
1.511363387,,,,,,,,,,,-0.02533577941358089,1,0.05153162032365799,1,0.03435579314827919,1
1.515025616,0.005,-0.006207074970006943,-0.02856487222015858,-0.9947932958602905,-0.000141604570671916,-3.424414899200201e-05,-0.004966672975569963,3.169309138684184e-06,1.330501959273533e-06,8.866742291502305e-07,,,,,,
1.516343594,,,,,,,,,,,-0.02314909547567368,1,0.0457586869597435,1,0.04711616784334183,1
1.519920111,0.005,-0.007595725823193789,-0.02836242876946926,-0.9940574765205383,-0.0001401990739395842,-4.608601739164442e-05,-0.004963844548910856,1.933775735096788e-07,2.191754447267158e-06,6.508768819912802e-06,,,,,,
1.521319389,,,,,,,,,,,-0.02118381485342979,1,0.03215484693646431,1,0.05433198809623718,1
1.524791598,0.005,-0.006932215765118599,-0.02845552377402782,-0.9978097677230835,-0.0001430310803698376,-3.221986116841435e-05,-0.005011658184230328,-9.325032806373201e-06,4.84132897327072e-06,2.419305701550911e-06,,,,,,
1.526290417,,,,,,,,,,,-0.02211537584662437,1,0.03863811492919922,1,0.01753559336066246,1
1.529640913,0.005,-0.006584822665899992,-0.02750383131206036,-0.9980101585388184,-0.0001321135205216706,-2.976581527036615e-05,-0.004993891809135675,7.711951184319332e-06,-1.896057369776827e-06,6.667691195616499e-06,,,,,,
1.531256795,,,,,,,,,,,-0.01280695665627718,1,0.04204295575618744,1,0.01557081937789917,1
1.534467578,0.005,-0.008470796979963779,-0.02710895985364914,-0.992420494556427,-0.0001333753461949527,-5.308915933710523e-05,-0.004929509945213795,1.382456139253918e-05,-6.770629170205211e-06,5.390441856434336e-06,,,,,,
1.536218882,,,,,,,,,,,-0.008919538930058479,1,0.02360596507787704,1,0.07038624584674835,1
1.539356709,0.005,-0.009538380429148674,-0.02721071429550648,-0.9928798675537109,-0.0001365562784485519,-5.538696132134646e-05,-0.004964558407664299,-8.502438504365273e-06,-5.065498953626957e-07,5.458398391056107e-06,,,,,,
1.541260004,,,,,,,,,,,-0.009895701892673969,1,0.0131669482216239,1,0.0658801794052124,1
1.544557571,0.005,-0.009702905081212521,-0.02655434608459473,-0.9969474673271179,-0.0001295942056458443,-4.892852666671388e-05,-0.005008194129914045,-3.346029416206875e-06,1.054909625963774e-05,7.424130217259517e-06,,,,,,
1.546296358,,,,,,,,,,,-0.003486215136945248,1,0.01154607906937599,1,0.02599132247269154,1
1.549734712,0.005,-0.01021303050220013,-0.02583431638777256,-0.9974772334098816,-0.0001244794548256323,-5.396205961005762e-05,-0.004994334653019905,6.07609126745956e-06,1.33165974602889e-06,7.379777798632858e-06,,,,,,
1.551328301,,,,,,,,,,,0.003541714977473021,1,0.006545842625200748,1,0.02079667896032333,1
1.554888725,0.005,-0.01185823790729046,-0.02571633644402027,-0.9945071339607239,-0.000127540624816902,-6.848303019069135e-05,-0.004954347386956215,1.348960358882323e-05,-1.152659206127282e-05,2.84081625068211e-06,,,,,,
1.556356072,,,,,,,,,,,0.00471014529466629,1,-0.009524725377559662,1,0.04992209747433662,1
1.560021281,0.005,-0.01332539040595293,-0.02611265890300274,-0.9952312707901001,-0.0001335637934971601,-7.62251511332579e-05,-0.004978861659765244,-1.116487965191482e-05,4.244548563292483e-06,9.694098253021366e-07,,,,,,
1.561379313,,,,,,,,,,,0.0008390931761823595,1,-0.02389459125697613,1,0.04282127693295479,1
1.565129757,0.005,-0.01254097744822502,-0.02513981051743031,-0.9956557154655457,-0.0001202357307192869,-5.817371129523963e-05,-0.004982526879757643,-3.350312681504874e-06,9.950151252269279e-06,9.116256478591822e-06,,,,,,
1.566397905,,,,,,,,,,,0.01034861709922552,1,-0.01622062548995018,1,0.03865944221615791,1
1.570215225,0.005,-0.0131080849096179,-0.02457413449883461,-0.9944792985916138,-0.0001192134441225789,-6.840717833256349e-05,-0.004964914638549089,9.234226126864087e-06,-1.838628463701752e-06,5.69814574191696e-06,,,,,,
1.571411967,,,,,,,,,,,0.01586272940039635,1,-0.02176404371857643,1,0.0501970499753952,1
1.575276852,0.005,-0.01248529646545649,-0.02449025027453899,-0.994515061378479,-0.0001220567064592615,-5.937770765740424e-05,-0.004972512368112803,-1.304984493799566e-06,4.836734206037363e-06,-4.408696895552566e-06,,,,,,
1.576421380,,,,,,,,,,,0.01666317135095596,1,-0.01563513278961182,1,0.04984632134437561,1
1.580314636,0.005,-0.01256655622273684,-0.02371442876756191,-0.9950688481330872,-0.000113873858936131,-6.259596557356417e-05,-0.004978608805686235,5.655479640154226e-07,8.262942685632879e-08,-5.658816462528193e-06,,,,,,
1.581426382,,,,,,,,,,,0.02424351498484612,1,-0.0164187029004097,1,0.04441628232598305,1
1.585332274,0.005,-0.0123510304838419,-0.02301537431776524,-0.9950947761535645,-0.0001108763462980278,-6.145130464574322e-05,-0.004975779447704554,-2.774641643554787e-06,1.700199163678917e-06,1.928694700836786e-06,,,,,,
1.586427093,,,,,,,,,,,0.03107782825827599,1,-0.01430386491119862,1,0.0441620759665966,1
1.590325475,0.005,-0.01147112809121609,-0.02285271696746349,-0.9956192970275879,-0.000112716035800986,-5.197774589760229e-05,-0.004980902653187513,-3.481578005448682e-06,-3.965304131270386e-06,2.76980290436768e-06,,,,,,
1.591423035,,,,,,,,,,,0.03266384452581406,1,-0.005686484277248383,1,0.03901928663253784,1
1.595296502,0.005,-0.01153953559696674,-0.02305184677243233,-0.9963446259498596,-0.000116514740511775,-5.792558658868074e-05,-0.004986591637134552,-1.861923237811425e-06,-3.456724016359658e-06,-1.128698841057485e-06,,,,,,
1.596414208,,,,,,,,,,,0.0307218860834837,1,-0.006369146052747965,1,0.03190601244568825,1
1.600243926,0.005,-0.01261494681239128,-0.02279451675713062,-0.995478093624115,-0.0001127604336943477,-6.934288103366271e-05,-0.004971870221197605,5.332438377081417e-06,-7.114899744919967e-06,-1.818472469494736e-06,,,,,,
1.601400614,,,,,,,,,,,0.03327434882521629,1,-0.0169045701622963,1,0.0404028482735157,1
1.605177402,0.005,-0.01143029518425465,-0.02247263863682747,-0.9957531094551086,-0.0001101279776776209,-5.151678851689212e-05,-0.004980411846190691,-3.999725777248386e-06,-6.929875326022739e-06,-1.407309014211933e-06,,,,,,
1.606384873,,,,,,,,,,,0.03648032248020172,1,-0.005286430474370718,1,0.0377042219042778,1
1.610090494,0.005,-0.01027502585202456,-0.02297300659120083,-0.9939190149307251,-0.0001179358878289349,-4.284800161258318e-05,-0.004958718549460173,9.594829180059605e-07,2.984431830554968e-07,5.933061402174644e-07,,,,,,
1.611364365,,,,,,,,,,,0.03160751610994339,1,0.006041329354047775,1,0.05568965151906013,1
1.614981413,0.005,-0.01075636874884367,-0.02293534763157368,-0.9920635223388672,-0.0001143397239502519,-5.651530955219641e-05,-0.004948125220835209,-5.475755187944742e-06,-1.341965912615706e-06,-7.212794571387349e-06,,,,,,
1.616339445,,,,,,,,,,,0.03199814260005951,1,0.001312465290538967,1,0.07388612627983093,1
1.619849682,0.005,-0.008955342695116997,-0.02267142571508884,-0.9978720545768738,-0.0001110412558773533,-3.495625060168095e-05,-0.005020427517592907,-1.764130865922198e-05,6.729469532729127e-06,-1.034045453707222e-05,,,,,,
1.621309996,,,,,,,,,,,0.03457661718130112,1,0.01890755817294121,1,0.01692402362823486,1
1.624695301,0.005,-0.00654116552323103,-0.02241840772330761,-1.001691699028015,-0.0001109041477320716,-1.732242890284397e-05,-0.005035496782511473,3.446478103796835e-06,2.031406893365784e-06,-4.231510956742568e-06,,,,,,
1.626275897,,,,,,,,,,,0.03703149780631065,1,0.0425170436501503,1,-0.02053168229758739,1
1.629519105,0.005,-0.006757579743862152,-0.022821931168437,-0.9952890872955322,-0.0001157305086962879,-3.43079082085751e-05,-0.004941818304359913,1.717556551739108e-05,-7.621825716341846e-06,-5.71136024518637e-06,,,,,,
1.631237149,,,,,,,,,,,0.03308046981692314,1,0.0404340848326683,1,0.04225600510835648,1
1.634405851,0.005,-0.007987957447767258,-0.02348913252353668,-0.9892012476921082,-0.0001214867952512577,-4.634688957594335e-05,-0.004905542358756065,3.542658532751375e-06,-8.141340913425665e-06,-4.015022113890154e-06,,,,,,
1.636278749,,,,,,,,,,,0.026578014716506,1,0.02843097224831581,1,0.1019551455974579,1
1.639609814,0.005,-0.007669795770198107,-0.02390699647367001,-0.9942766427993774,-0.0001219544064952061,-3.795195516431704e-05,-0.004997759591788054,-2.20822257688269e-05,1.400797282258281e-05,-1.4714415783601e-06,,,,,,
1.641315818,,,,,,,,,,,0.02247440814971924,1,0.0315280519425869,1,0.05218309536576271,1
1.644790053,0.005,-0.005970921367406845,-0.02353891730308533,-0.9997630715370178,-0.0001155982463387772,-1.904930832097307e-05,-0.005036164540797472,2.326096591787064e-06,8.555592103220988e-06,4.575138973450521e-06,,,,,,
1.646348596,,,,,,,,,,,0.02602224424481392,1,0.04813746735453606,1,-0.001618799869902432,1
1.649946094,0.005,-0.007876966148614883,-0.02391037531197071,-0.9951362013816833,-0.0001214209332829341,-4.908415576210245e-05,-0.004949310328811407,2.006438444368541e-05,-2.585687070677523e-06,-5.074606633570511e-06,,,,,,
1.651376605,,,,,,,,,,,0.02234179526567459,1,0.02948563173413277,1,0.04375576227903366,1
1.655081987,0.005,-0.01030073873698711,-0.02480060793459415,-0.9934929609298706,-0.0001291428634431213,-6.734229100402445e-05,-0.004956518765538931,-5.310699862093315e-07,-3.455066462265677e-06,-5.561674242926529e-06,,,,,,
1.656400681,,,,,,,,,,,0.0136058833450079,1,0.005775051657110453,1,0.05986939743161201,1
1.660194039,0.005,-0.01053956151008606,-0.02547780238091946,-0.994381844997406,-0.0001313740649493411,-5.422519097919576e-05,-0.004976054187864065,7.457774700014852e-07,5.761051852459786e-06,7.80758182372665e-06,,,,,,
1.661420345,,,,,,,,,,,0.006953410804271698,1,0.003463043831288815,1,0.05115307122468948,1
1.665283322,0.005,-0.009368743747472763,-0.02542044222354889,-0.9951795935630798,-0.0001272275694645941,-4.09482599934563e-05,-0.004981853999197483,8.721260655875085e-07,6.798187314416282e-06,1.233741841133451e-05,,,,,,
1.666435122,,,,,,,,,,,0.007471431978046894,1,0.01496698241680861,1,0.04333112761378288,1
1.670349598,0.005,-0.008146097883582115,-0.02587421797215939,-0.9953711628913879,-0.0001310402294620872,-3.299309901194647e-05,-0.004977245815098286,1.300395410908095e-06,-5.41844292456517e-06,3.166186601788468e-08,,,,,,
1.671445251,,,,,,,,,,,0.003001221921294928,1,0.02698059938848019,1,0.04145222529768944,1
1.675391436,0.005,-0.009679685346782207,-0.02696677856147289,-0.9960594773292542,-0.0001418182364432141,-5.665797289111651e-05,-0.00498520489782095,4.793827883986523e-06,1.011946278595133e-05,-1.15263246698305e-05,,,,,,
1.676450849,,,,,,,,,,,-0.007749896962195635,1,0.01196706108748913,1,0.03470351919531822,1
1.680410624,0.005,-0.01143991574645042,-0.02686934359371662,-0.9932738542556763,-0.0001344244228675961,-6.860541179776192e-05,-0.004951491951942444,2.828254991982249e-06,5.375952696340391e-07,-1.180440222015022e-06,,,,,,
1.681452036,,,,,,,,,,,-0.006833583116531372,1,-0.005256188102066517,1,0.06202134862542152,1
1.685407758,0.005,-0.01204380579292774,-0.02747288718819618,-0.9947766065597534,-0.0001407871022820473,-6.452583329519257e-05,-0.004979652818292379,-6.948940608708654e-06,-1.547338683849375e-06,-1.895302375487518e-06,,,,,,
1.686448693,,,,,,,,,,,-0.01276535168290138,1,-0.01117243431508541,1,0.04728458821773529,1
1.690380573,0.005,-0.01217187102884054,-0.02834974974393845,-0.9987727999687195,-0.0001466840622015297,-6.068548100301996e-05,-0.0050192647613585,1.975896566364099e-06,-5.517334557225695e-06,-6.526740321532998e-07,,,,,,
1.691440344,,,,,,,,,,,-0.02137249149382114,1,-0.01247998885810375,1,0.008095975965261459,1
1.695331097,0.005,-0.01224252209067345,-0.02845104597508907,-0.9958266615867615,-0.0001435856538591906,-6.147098611108959e-05,-0.004965632688254118,1.623832213226706e-05,-6.218127168722276e-07,-2.540331706768484e-06,,,,,,
1.696427464,,,,,,,,,,,-0.02237383835017681,1,-0.0131446523591876,1,0.03698727488517761,1
1.700258613,0.005,-0.01401024498045444,-0.02781977504491806,-0.9912981390953064,-0.000133555571665056,-7.993743929546326e-05,-0.004926206544041634,1.918353973451303e-06,-1.454572793591069e-05,-1.310360516981746e-06,,,,,,
1.701409817,,,,,,,,,,,-0.01614762283861637,1,-0.03042152337729931,1,0.08139572292566299,1
1.705163002,0.005,-0.01296198461204767,-0.03007122874259949,-0.995033323764801,-0.0001649226760491729,-5.968931509414688e-05,-0.004994084127247334,-2.151607623090968e-05,3.092636234214297e-06,7.786593982928025e-07,,,,,,
1.706388235,,,,,,,,,,,-0.03817752376198769,1,-0.02018288150429726,1,0.04476508125662804,1
1.710046768,0.005,-0.01131197530776262,-0.02866730839014053,-0.9994270801544189,-0.0001354850537609309,-4.644953878596425e-05,-0.005026913248002529,2.785246579151135e-06,8.723215614736546e-06,-1.539060463073838e-06,,,,,,
1.711361766,,,,,,,,,,,-0.0244370773434639,1,-0.004048858769237995,1,0.001678559347055852,1
1.714907885,0.005,-0.01220675650984049,-0.02906289882957935,-0.993752121925354,-0.0001467539259465411,-6.473434041254222e-05,-0.00493605388328433,1.116888324759202e-05,-1.460433395550353e-05,-8.715685453353217e-07,,,,,,
1.716330767,,,,,,,,,,,-0.02829860523343086,1,-0.01280327700078487,1,0.05733020231127739,1
1.719746590,0.005,-0.01299555972218513,-0.03023169562220573,-0.9931345582008362,-0.0001583433768246323,-7.064329838613048e-05,-0.004959132522344589,-8.787892511463724e-06,-3.045410039703711e-06,-5.304478690959513e-06,,,,,,
1.721295357,,,,,,,,,,,-0.03971308842301369,1,-0.02053055912256241,1,0.06338490545749664,1
1.724562407,0.005,-0.01037660427391529,-0.02926716022193432,-0.9966018795967102,-0.0001410699624102563,-3.740964530152269e-05,-0.005003758706152439,-1.50072210090002e-05,6.273221515584737e-06,1.621325623091252e-06,,,,,,
1.726255059,,,,,,,,,,,-0.0302455835044384,1,0.005093628074973822,1,0.02938314527273178,1
1.729442835,0.005,-0.006848852150142193,-0.02760143391788006,-0.9961486458778381,-0.0001276684197364375,-1.200320639327401e-05,-0.004978994838893414,-1.66346708851961e-07,-2.567935837305413e-07,5.357939244277077e-06,,,,,,
1.731297255,,,,,,,,,,,-0.0139257712289691,1,0.03963599726557732,1,0.03382886573672295,1
1.734648585,0.005,-0.005713687278330326,-0.02751983888447285,-0.9971141815185547,-0.0001357819564873353,-2.181103991460986e-05,-0.004991563968360424,6.852695605630288e-06,-1.794585296011064e-05,-6.672238214378012e-06,,,,,,
1.736334801,,,,,,,,,,,-0.01307454984635115,1,0.05077161639928818,1,0.02435877174139023,1
1.739830256,0.005,-0.005686325021088123,-0.02766523696482182,-0.9947453141212463,-0.0001400530454702675,-2.722684621403459e-05,-0.004960415884852409,3.178465021846932e-06,-5.479591891344171e-06,-1.398042331857141e-05,,,,,,
1.741367579,,,,,,,,,,,-0.0144274327903986,1,0.0510525181889534,1,0.0475870668888092,1
1.744987130,0.005,-0.006750689353793859,-0.02579357102513313,-0.9922124743461609,-0.0001181249317596667,-4.046734466101043e-05,-0.004945747088640928,-4.772971806232817e-06,7.243748768814839e-06,1.164875556014522e-07,,,,,,
1.746395946,,,,,,,,,,,0.003944959491491318,1,0.04061691835522652,1,0.07242536544799805,1
1.750120997,0.005,-0.006156539544463158,-0.02526268921792507,-0.9945247769355774,-0.0001215770244016312,-2.769757702481002e-05,-0.004983466118574142,-7.909642590675503e-06,-7.610195098095573e-06,-1.492184537710273e-06,,,,,,
1.751420140,,,,,,,,,,,0.009171986021101475,1,0.0464215986430645,1,0.04974925890564919,1
1.755233765,0.005,-0.005782363470643759,-0.0257188193500042,-0.9999935030937195,-0.000132325483718887,-2.560615030233748e-05,-0.005033914465457201,3.767350563066429e-06,8.384673492400907e-06,-5.430085820989916e-06,,,,,,
1.756439805,,,,,,,,,,,0.004699390847235918,1,0.05006707832217216,1,-0.003880380652844906,1
1.760323048,0.005,-0.008066641166806221,-0.0240530613809824,-0.9972161054611206,-0.0001105078481486998,-5.355068424250931e-05,-0.004973468836396933,1.42404014695785e-05,4.364344022178557e-06,-5.742930170526961e-06,,,,,,
1.761454821,,,,,,,,,,,0.02099758386611938,1,0.02771685272455215,1,0.02335694804787636,1
1.765389085,0.005,-0.009437227621674538,-0.02425905875861645,-0.9915934801101685,-0.0001211974740726873,-5.59455256734509e-05,-0.00492191594094038,6.524076525238343e-06,-1.062364208337385e-05,7.794113116688095e-06,,,,,,
1.766465068,,,,,,,,,,,0.01898851804435253,1,0.01434663124382496,1,0.07849492132663727,1
1.770431757,0.005,-0.01039948407560587,-0.02512257546186447,-0.9934436678886414,-0.000131965396576561,-5.834064722876064e-05,-0.004974895156919956,-9.929301995725837e-06,8.375079232791904e-06,1.297906601394061e-05,,,,,,
1.771470547,,,,,,,,,,,0.01052864175289869,1,0.004934239201247692,1,0.0603504553437233,1
1.775450587,0.005,-0.009078760631382465,-0.02347978949546814,-0.9988994002342224,-0.0001077808410627767,-3.844229286187328e-05,-0.005028118379414082,-9.043214049597736e-06,1.811274159990717e-05,6.277461579884402e-06,,,,,,
1.776471257,,,,,,,,,,,0.02656388282775879,1,0.01784547418355942,1,0.006849430501461029,1
1.780446768,0.005,-0.008998625911772251,-0.02298465184867382,-0.9962876439094543,-0.0001104675029637292,-4.31655535066966e-05,-0.004967914428561926,1.438636445527663e-05,-6.046153657734976e-07,7.259876838361379e-06,,,,,,
1.781467676,,,,,,,,,,,0.03134776279330254,1,0.0186365619301796,1,0.03246422857046127,1
1.785419226,0.005,-0.01049610693007708,-0.02370965667068958,-0.9939365386962891,-0.0001235619129147381,-6.169431435409933e-05,-0.004954563919454813,8.759138268032984e-07,1.168780727311969e-06,7.341343462030636e-06,,,,,,
1.786459088,,,,,,,,,,,0.02419545687735081,1,0.003993438556790352,1,0.05552144721150398,1
1.790368557,0.005,-0.01049645151942968,-0.02335824258625507,-0.9942595958709717,-0.0001146768699982204,-5.24696552020032e-05,-0.004972709342837334,-3.800824515565182e-06,3.69944632439001e-06,1.035689456330147e-05,,,,,,
1.791445971,,,,,,,,,,,0.02760889567434788,1,0.004002034664154053,1,0.05235408246517181,1
1.795293927,0.005,-0.0111918319016695,-0.02298658899962902,-0.9946434497833252,-0.0001130421151174232,-5.980278001516126e-05,-0.004975649993866682,1.361197973892558e-06,3.063149506488116e-06,1.318507474934449e-05,,,,,,
1.796428084,,,,,,,,,,,0.03121812827885151,1,-0.002821107627823949,1,0.04859085008502007,1
1.800196409,0.005,-0.0114313792437315,-0.022762481123209,-0.9957141280174255,-0.0001119128501159139,-5.866594801773317e-05,-0.004984534345567226,8.467224574815191e-07,-6.886815299367299e-06,5.237913683231454e-06,,,,,,
1.801405430,,,,,,,,,,,0.03340842947363853,1,-0.00516505166888237,1,0.03809103742241859,1
1.805076957,0.005,-0.01303732953965664,-0.02375558763742447,-0.9968863725662231,-0.0001244136947207153,-7.403741619782522e-05,-0.00499165803194046,6.733723239449318e-06,-5.98084943703725e-06,-3.055302613574895e-06,,,,,,
1.806378484,,,,,,,,,,,0.02369957789778709,1,-0.02088864706456661,1,0.02659395150840282,1
1.809935331,0.005,-0.01461662631481886,-0.02406856045126915,-0.9952549338340759,-0.0001224356528837234,-8.273682033177465e-05,-0.004967825952917337,6.611935532419011e-06,-2.281748265886563e-06,-4.446573257155251e-06,,,,,,
1.811346889,,,,,,,,,,,0.02065417729318142,1,-0.03632834553718567,1,0.04259220883250237,1
1.814770699,0.005,-0.01533451490104198,-0.02452903985977173,-0.9936445355415344,-0.0001251327194040641,-8.108658948913217e-05,-0.004957504570484161,2.03291051548149e-06,-1.460562884858518e-06,3.441630497036385e-06,,,,,,
1.816310525,,,,,,,,,,,0.01615837775170803,1,-0.04332380741834641,1,0.05838381126523018,1
1.819583774,0.005,-0.01543705444782972,-0.02500251680612564,-0.9946112632751465,-0.0001276886032428592,-7.770895899739116e-05,-0.004977752920240164,-4.892023298452841e-06,2.994613851114991e-06,-3.006804718097555e-06,,,,,,
1.821269512,,,,,,,,,,,0.01151957362890244,1,-0.04431513324379921,1,0.0489029586315155,1
1.824373960,0.005,-0.01518317405134439,-0.02481272257864475,-0.9959812164306641,-0.0001229106419486925,-7.472055585822091e-05,-0.004988143220543861,-6.624981779168593e-06,8.28947941045044e-06,-8.335327038366813e-06,,,,,,
1.826311946,,,,,,,,,,,0.01335073821246624,1,-0.04183799028396606,1,0.03546921536326408,1
1.829580784,0.005,-0.01369885168969631,-0.02459613606333733,-0.9961943626403809,-0.0001216328091686592,-5.982857692288235e-05,-0.00498267263174057,-1.882175638456829e-06,1.571953248458158e-06,-3.493754320516018e-06,,,,,,
1.831349492,,,,,,,,,,,0.01543851848691702,1,-0.02730655670166016,1,0.0333801731467247,1
1.834763527,0.005,-0.01276781223714352,-0.02538575977087021,-0.9954745173454285,-0.0001314820692641661,-5.810035145259462e-05,-0.004973395261913538,9.81715402303962e-07,-6.080865205149166e-06,-1.880981358226563e-06,,,,,,
1.836382151,,,,,,,,,,,0.007692218292504549,1,-0.0181839894503355,1,0.04044043272733688,1
1.839921713,0.005,-0.01206943672150373,-0.02541161328554153,-0.9941359758377075,-0.0001280937431147322,-5.657697693095542e-05,-0.004962400533258915,-1.681458229541022e-06,4.145460934523726e-06,-7.299275694094831e-06,,,,,,
1.841411114,,,,,,,,,,,0.007431546226143837,1,-0.01133623719215393,1,0.05356622487306595,1
1.845058084,0.005,-0.0108627425506711,-0.02474204264581203,-0.99314284324646,-0.0001191751071019098,-4.748312130686827e-05,-0.004959248937666416,-7.467357136192732e-06,-6.984793799347244e-06,-3.186713456670986e-06,,,,,,
1.846435308,,,,,,,,,,,0.01399624347686768,1,0.0004623353015631437,1,0.06330635398626328,1
1.850170851,0.005,-0.009429668076336384,-0.02555453591048717,-0.9952223896980286,-0.0001328546204604208,-3.874889080179855e-05,-0.004987114109098911,-5.48514208276174e-06,-6.922508873685729e-06,-3.611607155562524e-07,,,,,,
1.851454735,,,,,,,,,,,0.006067732814699411,1,0.01447723712772131,1,0.04291218891739845,1
1.855259418,0.005,-0.007674047723412514,-0.02564522810280323,-0.9979330897331238,-0.0001290163636440411,-2.800984657369554e-05,-0.005006407853215933,1.853643311733322e-06,3.587081778277934e-07,-1.3207635447543e-06,,,,,,
1.856469512,,,,,,,,,,,0.005199616309255362,1,0.03167178109288216,1,0.01632896065711975,1
1.860325098,0.005,-0.006731021218001842,-0.02592654712498188,-0.9967923164367676,-0.0001306815101997927,-2.713279172894545e-05,-0.00497945724055171,6.684631443931721e-06,-6.705833129672101e-06,-2.901612788264174e-06,,,,,,
1.861479402,,,,,,,,,,,0.002474570646882057,1,0.04093310609459877,1,0.02751521952450275,1
1.865366817,0.005,-0.006846440024673939,-0.0267734881490469,-0.9941903352737427,-0.0001393040729453787,-3.474324330454692e-05,-0.004954478237777948,5.864477316208649e-06,-1.001947748591192e-05,6.055980179553444e-07,,,,,,
1.866484761,,,,,,,,,,,-0.005772802978754044,1,0.03984196484088898,1,0.05303005501627922,1
1.870385170,0.005,-0.006027637515217066,-0.02679147385060787,-0.9943801760673523,-0.0001344336924375966,-2.598112041596323e-05,-0.004972312599420547,-6.539631158375414e-06,1.398645395056519e-06,-1.798857510948437e-06,,,,,,
1.871485472,,,,,,,,,,,-0.005906012840569019,1,0.04788374900817871,1,0.05116741359233856,1
1.875382066,0.005,-0.005071972496807575,-0.02652504295110703,-0.9957956075668335,-0.0001311711093876511,-1.927160701598041e-05,-0.004987654276192188,-2.009651780099375e-06,4.255112799000926e-06,-5.776768375653774e-06,,,,,,
1.876482010,,,,,,,,,,,-0.003292123088613153,1,0.05724607408046722,1,0.03728635981678963,1
1.880355120,0.005,-0.004688473884016275,-0.0260107945650816,-0.9960963726043701,-0.0001272502995561808,-2.10047401196789e-05,-0.004982874263077974,-2.713006779231364e-06,1.828106292123266e-06,-6.099662186898058e-06,,,,,,
1.881473780,,,,,,,,,,,0.00174103700555861,1,0.06099795550107956,1,0.03433733806014061,1
1.885307431,0.005,-0.005163549911230803,-0.02551255561411381,-0.995566189289093,-0.0001243639999302104,-2.842707908712327e-05,-0.004975016694515944,1.547093233966734e-06,3.465997906459961e-06,-5.837579919898417e-06,,,,,,
1.886462927,,,,,,,,,,,0.006609952077269554,1,0.0563320592045784,1,0.03953739255666733,1
1.890245914,0.005,-0.005609688349068165,-0.02543038688600063,-0.9951517581939697,-0.0001267931656911969,-3.079468297073618e-05,-0.004972973838448524,-1.455586243537255e-06,9.454402061237488e-06,-2.216933125964715e-06,,,,,,
1.891447783,,,,,,,,,,,0.007363912649452686,1,0.05192637071013451,1,0.04360360279679298,1
1.895161390,0.005,-0.005985568277537823,-0.02501131966710091,-0.9954533576965332,-0.0001227401808137074,-3.240283695049584e-05,-0.004978685639798641,-4.179239567747572e-06,6.720854344166582e-06,5.398428129410604e-06,,,,,,
1.896427989,,,,,,,,,,,0.01140479184687138,1,0.04820792004466057,1,0.04064768552780151,1
1.900054574,0.005,-0.006406338885426521,-0.02520967461168766,-0.9956759214401245,-0.0001269118802156299,-3.417402331251651e-05,-0.004980009980499744,5.801516181236366e-06,4.471005922823679e-06,1.222040827997262e-05,,,,,,
1.901403666,,,,,,,,,,,0.009398922324180603,1,0.04406866803765297,1,0.03846699371933937,1
