FILE_INFO
ListSeparator=,
DecimalSeparator=.

SESSION_INFO
TimeZone,UTC
TimeZoneOffset,0
DateTimeFormat,MM/DD/YY h:mm:ss.nnnnnnnnn
StartTime,01/01/70 00:00:00.000000000
TimeFormat,Relative

DEVICE_INFO
Address,*

CHANNEL_INFO
Channel,Type,SampleRate,Equation,Coefficients,Unit,UnitSymbol,WhereApplied,WhenApplied
inertial-6286.188861:deltaVelX,Timeseries,200Hz,,,,,,
inertial-6286.188861:deltaVelY,Timeseries,200Hz,,,,,,
inertial-6286.188861:deltaVelZ,Timeseries,200Hz,,,,,,
inertial-6286.188861:deltaThetaX,Timeseries,200Hz,,,,,,
inertial-6286.188861:deltaThetaY,Timeseries,200Hz,,,,,,
inertial-6286.188861:deltaThetaZ,Timeseries,200Hz,,,,,,
inertial-6286.188861:estAccelBiasY,Timeseries,,,,,,,
inertial-6286.188861:estAccelBiasZ,Timeseries,,,,,,,
inertial-6286.188861:estGyroBiasXUncert,Timeseries,,,,,,,
inertial-6286.188861:estGyroBiasYUncert,Timeseries,,,,,,,
inertial-6286.188861:estGyroBiasZUncert,Timeseries,,,,,,,
inertial-6286.188861:estAccelBiasXUncert,Timeseries,,,,,,,
inertial-6286.188861:estAccelBiasYUncert,Timeseries,,,,,,,
inertial-6286.188861:estAccelBiasZUncert,Timeseries,,,,,,,
inertial-6286.188861:estAccelBiasX,Timeseries,,,,,,,
inertial-6286.188861:estGyroBiasY,Timeseries,,,,,,,
inertial-6286.188861:estGyroBiasX,Timeseries,,,,,,,
inertial-6286.188861:estGyroBiasZ,Timeseries,,,,,,,
inertial-6286.188861:timeInfo_deltaTime_ahrsImu,Timeseries,200Hz,,,,,,
inertial-6286.188861:scaledAccelX,Timeseries,200Hz,,,,,,
inertial-6286.188861:scaledAccelY,Timeseries,200Hz,,,,,,
inertial-6286.188861:scaledAccelZ,Timeseries,200Hz,,,,,,

DATA_START
Time,inertial-6286.188861:deltaVelX,inertial-6286.188861:deltaVelY,inertial-6286.188861:deltaVelZ,inertial-6286.188861:deltaThetaX,inertial-6286.188861:deltaThetaY,inertial-6286.188861:deltaThetaZ,inertial-6286.188861:estAccelBiasY,inertial-6286.188861:estAccelBiasZ,inertial-6286.188861:estGyroBiasXUncert,inertial-6286.188861:estGyroBiasYUncert,inertial-6286.188861:estGyroBiasZUncert,inertial-6286.188861:estAccelBiasXUncert,inertial-6286.188861:estAccelBiasYUncert,inertial-6286.188861:estAccelBiasZUncert,inertial-6286.188861:estAccelBiasX,inertial-6286.188861:estGyroBiasY,inertial-6286.188861:estGyroBiasX,inertial-6286.188861:estGyroBiasZ,inertial-6286.188861:timeInfo_deltaTime_ahrsImu,inertial-6286.188861:scaledAccelX,inertial-6286.188861:scaledAccelY,inertial-6286.188861:scaledAccelZ
0.000000000,2.726187994994689e-05,-2.794099782477133e-05,-0.004981191363185644,-2.11018758022874e-07,7.339992862398503e-07,-3.887497769028414e-06,,,,,,,,,,,,,0.005,0.00550887593999505,-0.005227575078606606,-0.9962964653968811
0.004911104,2.54047590715345e-05,-2.424993363092653e-05,-0.004983299877494574,1.692751993687125e-06,-3.467627038844512e-06,3.715009810889569e-08,,,,,,,,,,,,,0.005,0.005316105205565691,-0.005070414394140244,-0.9964106678962708
0.009799936,2.513408981030807e-05,-2.5606414055801e-05,-0.004973822273313999,-1.001683017420874e-06,2.618601001813659e-06,-1.189195359074802e-06,,,,,,,,,,,,,0.005,0.005211166106164455,-0.005083483178168535,-0.9956414103507996
0.014664448,2.77771341643529e-05,-2.181522722821683e-05,-0.004976744297891855,-5.808035894006025e-06,3.916592049790779e-06,-1.20421123028791e-06,,,,,,,,,,,,,0.005,0.005379343871027231,-0.004750992637127638,-0.9955624938011169
0.019505920,2.504450458218344e-05,-2.424902595521417e-05,-0.004980043973773718,-2.272337724207318e-06,-5.322565357346321e-07,-1.51237043155561e-06,,,,,,,,,,,,,0.005,0.005199451930820942,-0.004800583235919476,-0.9957298040390015
0.024326911,2.917863457696512e-05,-2.739180490607396e-05,-0.004982192069292068,-1.914325594043476e-06,-2.747214466580772e-06,1.433428451491636e-06,,,,,,,,,,,,,0.005,0.005498046055436134,-0.005091965198516846,-0.9960367679595947
0.029126400,2.805216354317963e-05,-2.409430453553796e-05,-0.004982249345630407,-5.343503744370537e-06,-6.769436822651187e-06,-3.835079951386433e-07,,,,,,,,,,,,,0.005,0.005533251445740461,-0.004963226616382599,-0.9962457418441772
0.033903360,2.674621464393567e-05,-2.09012196137337e-05,-0.00497962161898613,2.762980955139938e-07,-2.869690263196389e-08,1.721929720588378e-06,,,,,,,,,,,,,0.005,0.005445495247840881,-0.004598136525601149,-0.9961206912994385
0.038856193,2.715947630349547e-05,-2.51214351010276e-05,-0.004986132960766554,-2.537025878268651e-08,3.110201760136988e-06,2.821341809067235e-07,,,,,,,,,,,,,0.005,0.005398121662437916,-0.004814689047634602,-0.9966194033622742
0.044082433,2.785441938613076e-05,-2.295928788953461e-05,-0.004977693315595388,1.693168201200024e-06,-5.596029382104462e-07,-6.003796443110332e-06,,,,,,,,,,,,,0.005,0.005487863440066576,-0.004705625120550394,-0.9960997700691223
0.049284864,2.775251778075472e-05,-2.393382055743132e-05,-0.004979823715984821,-7.088661391208007e-07,-2.881083673855755e-07,-2.923865622506128e-06,,,,,,,,,,,,,0.005,0.005488259717822075,-0.004740794189274311,-0.9960528612136841
0.054462463,2.494215186743531e-05,-2.413232141407207e-05,-0.004980744794011116,4.056672423757846e-06,8.702488116796303e-07,1.047267573994759e-06,,,,,,,,,,,,,0.005,0.005292720161378384,-0.004799725022166967,-0.9960722327232361
0.059613951,2.836104613379575e-05,-2.281234446854796e-05,-0.004979624412953854,1.922022875078255e-06,-2.101235395457479e-06,1.095774564419116e-06,,,,,,,,,,,,,0.005,0.005442665424197912,-0.004672680981457233,-0.9959895014762878
0.064740352,2.60309134318959e-05,-2.152982597181108e-05,-0.004983094520866871,-1.811029733289615e-06,-1.656434506003279e-06,-1.734454372126493e-06,,,,,,,,,,,,,0.005,0.005359371658414602,-0.004516275599598885,-0.9962643980979919
0.069842435,2.69150023086695e-05,-2.364076317462604e-05,-0.004979708697646856,-1.073714429367101e-06,2.771776280496852e-06,2.839666876752744e-06,,,,,,,,,,,,,0.005,0.005354480352252722,-0.00458097318187356,-0.9961254000663757
0.074919939,2.666786167537794e-05,-2.331517316633835e-05,-0.004983254242688417,-1.845689780566317e-06,-1.244770714947663e-06,1.430199176866154e-06,,,,,,,,,,,,,0.005,0.005361375398933887,-0.004647906869649887,-0.9963642358779907
0.079973377,2.549525925132912e-05,-2.345033499295823e-05,-0.00498046912252903,1.220298258886032e-06,-3.396203283045907e-06,3.219463167170034e-07,,,,,,,,,,,,,0.005,0.005244760308414698,-0.004654792603105307,-0.9962391257286072
0.085001469,2.90681236947421e-05,-2.316436621185858e-05,-0.004982222802937031,2.734739190657365e-08,-1.071972974386881e-06,-4.822244363822392e-07,,,,,,,,,,,,,0.005,0.005521412938833237,-0.004656371660530567,-0.9963656067848206
0.090005249,2.616717029013671e-05,-2.301847052876838e-05,-0.004980658181011677,4.958816589351045e-06,-7.278890166162455e-07,-1.180844265036285e-06,,,,,,,,,,,,,0.005,0.005365190096199512,-0.004661332815885544,-0.996259868144989
0.094984703,2.973495429614559e-05,-2.255124854855239e-05,-0.004977756179869175,2.242157535192746e-07,3.195218369000941e-06,4.291004643164342e-06,,,,,,,,,,,,,0.005,0.005644372198730707,-0.004590690601617098,-0.9959264993667603
0.099940352,2.620432314870413e-05,-2.546663381508552e-05,-0.004981890320777893,-3.505999757180689e-07,-7.450548196175077e-07,-1.017242425405129e-06,,,,,,,,,,,,,0.005,0.005467356648296118,-0.004812170285731554,-0.9961023926734924
0.104879871,2.909070644818712e-05,-2.529830453568138e-05,-0.004980196710675955,1.725252673168143e-06,6.311317406471062e-07,-1.258526367564627e-06,,,,,,,,,,,,,0.005,0.005642994306981564,-0.004930018913000822,-0.9960153102874756
0.109796353,2.677288284758106e-05,-2.286130984430201e-05,-0.004979371558874846,2.4034227408265e-06,-6.127768301666947e-07,-3.115118033747422e-06,,,,,,,,,,,,,0.005,0.005498474463820457,-0.004751797299832106,-0.9959976077079773
0.114688516,3.072138133575208e-05,-2.126186518580653e-05,-0.004982726648449898,-3.358469939485076e-06,-9.933564797393046e-07,2.585075208116905e-06,,,,,,,,,,,,,0.005,0.005779665894806385,-0.004515322390943766,-0.996220588684082
0.119557120,2.547126678109635e-05,-2.28616627282463e-05,-0.004982825368642807,-9.610358802092378e-07,-1.340745939160115e-06,1.039015160131385e-06,,,,,,,,,,,,,0.005,0.005443867295980453,-0.004520765505731106,-0.9963716864585876
0.124402434,2.788337951642461e-05,-2.565460272307973e-05,-0.004981332924216986,-3.068927981075831e-06,-1.896380240395956e-06,-2.006400592335922e-07,,,,,,,,,,,,,0.005,0.00548281567171216,-0.004801888018846512,-0.9963150024414062
0.129224703,3.072926119784825e-05,-2.243119160993956e-05,-0.004979102872312069,-1.976110297619016e-06,-1.146223553405434e-06,-2.433265080981073e-06,,,,,,,,,,,,,0.005,0.005795530509203672,-0.004657026845961809,-0.9960785508155823
0.134023175,2.701121593418065e-05,-2.552895057306159e-05,-0.004978911951184273,8.856248179256454e-09,2.397211119387066e-06,-7.56825897951785e-07,,,,,,,,,,,,,0.005,0.005581042729318142,-0.004868270363658667,-0.995942234992981
0.138799101,2.804533141897991e-05,-2.427698382234666e-05,-0.004980923607945442,-3.974579158239067e-06,-9.427809573026025e-07,1.79755454610131e-06,,,,,,,,,,,,,0.005,0.005586467683315277,-0.004847678821533918,-0.996050238609314
0.143849477,2.636472345329821e-05,-2.215772474301048e-05,-0.004977480042725801,-4.793102448275022e-07,2.570413698776974e-06,1.422518721483357e-06,,,,,,,,,,,,,0.005,0.005470211617648602,-0.004653193987905979,-0.9958431124687195
0.149074435,3.019333234988153e-05,-2.389613291597925e-05,-0.004985983949154615,4.197095790914318e-07,3.534645998115593e-08,-2.027123855441459e-06,,,,,,,,,,,,,0.005,0.005736059974879026,-0.004735600668936968,-0.9964481592178345
0.154275075,2.714126094360836e-05,-2.382435741310474e-05,-0.004979806020855904,1.290689169763937e-06,3.728516048795427e-06,-4.775991442329541e-07,,,,,,,,,,,,,0.005,0.005579060409218073,-0.004718975629657507,-0.996191680431366
0.159449607,2.908866736106575e-05,-2.153437344531994e-05,-0.004984127823263407,-2.905588644352974e-06,-6.730147106281947e-07,-2.882162789319409e-06,,,,,,,,,,,,,0.005,0.005691614467650652,-0.004517288878560066,-0.9964867830276489
0.164599046,2.801068694679998e-05,-2.241594484075904e-05,-0.004982095211744308,-1.066407662619895e-06,8.70700603172736e-07,7.184112291724887e-07,,,,,,,,,,,,,0.005,0.005645273253321648,-0.0045209601521492,-0.9964454770088196
0.169725433,2.556395338615403e-05,-2.608943941595498e-05,-0.004981045611202717,-7.002515189924452e-07,4.337618065619608e-06,-1.851499860094918e-06,,,,,,,,,,,,,0.005,0.005419683642685413,-0.004835386294871569,-0.9963537454605103
0.174827516,2.745734127529431e-05,-2.328068330825772e-05,-0.004981937818229198,2.621819476189557e-06,3.21822585647169e-06,-8.334022254530282e-07,,,,,,,,,,,,,0.005,0.005431709345430136,-0.004729510750621557,-0.9963879585266113
0.179904506,2.817492713802494e-05,-2.109847264364362e-05,-0.004981519654393196,2.428876996418694e-06,8.875284152054519e-07,-3.058044967474416e-06,,,,,,,,,,,,,0.005,0.005512325558811426,-0.004522232804447412,-0.9963484406471252
0.184957698,2.925278931797948e-05,-2.257529376947787e-05,-0.004983976017683744,3.208125463061151e-06,1.857712277342216e-06,2.512947958166478e-06,,,,,,,,,,,,,0.005,0.005624403711408377,-0.004507144913077354,-0.9965341687202454
0.189986810,2.650601891218685e-05,-2.194380795117468e-05,-0.004976961761713028,3.943622175484052e-07,1.645168936192931e-06,-1.163840465778776e-06,,,,,,,,,,,,,0.005,0.005476568359881639,-0.004466292914003134,-0.9959648251533508
0.194991097,2.817934910126496e-05,-2.398269134573638e-05,-0.004978491459041834,4.750222615257371e-06,-9.532056566285974e-08,5.04276727042452e-07,,,,,,,,,,,,,0.005,0.005565663333982229,-0.004584661219269037,-0.9958977699279785
0.199971586,2.854617559933104e-05,-2.103220867866185e-05,-0.004982376471161842,-4.046744379593292e-06,9.089072250390018e-07,1.792103375919396e-06,,,,,,,,,,,,,0.005,0.005614500492811203,-0.004428686574101448,-0.9961658716201782
0.204927996,2.660371501406189e-05,-2.210485399700701e-05,-0.004977421369403601,3.797564431806677e-06,-1.396284233123879e-06,1.298019355999713e-06,,,,,,,,,,,,,0.005,0.005480896215885878,-0.004397136624902487,-0.9958621859550476
0.209859833,2.845450217137113e-05,-1.99233545572497e-05,-0.00498171616345644,1.947818873304641e-06,-3.849940185318701e-06,1.243705469278211e-06,,,,,,,,,,,,,0.005,0.005557408090680838,-0.004266161937266588,-0.9961017966270447
0.214768380,2.944314474007115e-05,-2.467635204084218e-05,-0.004978725221008062,2.275196038681315e-06,2.971158892250969e-06,-1.887559051283461e-06,,,,,,,,,,,,,0.005,0.005702592432498932,-0.004547029733657837,-0.9959508776664734
0.219652608,2.794237116177101e-05,-2.549366945459042e-05,-0.004978935234248638,4.305108632252086e-06,-7.617547453264706e-06,-3.391809002550872e-07,,,,,,,,,,,,,0.005,0.005658368580043316,-0.004822904244065285,-0.995858371257782
0.224514812,2.69535812549293e-05,-2.041924562945496e-05,-0.00497992429882288,4.542135229712585e-06,-4.763131471463566e-07,-2.811519834722276e-06,,,,,,,,,,,,,0.005,0.005557607859373093,-0.004470201209187508,-0.9959418773651123
0.229352698,2.601046799100004e-05,-2.25438670895528e-05,-0.004977887030690908,-4.00270300815464e-06,-4.876207526649523e-07,-3.124046088487376e-06,,,,,,,,,,,,,0.005,0.005374534986913204,-0.004487347323447466,-0.9957578778266907
0.234167546,2.701155244722031e-05,-1.980058004846796e-05,-0.004981530830264091,2.14518900065741e-06,-4.347817821326316e-07,4.411693907968584e-07,,,,,,,,,,,,,0.005,0.00540711497887969,-0.004231059923768044,-0.9960101842880249
0.238958851,2.663961822690908e-05,-2.318442238902207e-05,-0.004984934814274311,2.202961695729755e-06,-4.241575197738712e-07,-4.188043476460734e-06,,,,,,,,,,,,,0.005,0.005386266857385635,-0.004455936141312122,-0.9964262247085571
0.243726850,2.813770515786018e-05,-2.273235804750584e-05,-0.004983964841812849,-6.933447821211303e-06,4.160617663728772e-06,-6.607008913306345e-07,,,,,,,,,,,,,0.005,0.005452063400298357,-0.004491494502872229,-0.9965786933898926
0.248973817,2.791581209748983e-05,-2.326729736523703e-05,-0.004980847705155611,3.232649532947107e-06,-1.798045218492916e-06,-4.301280114304973e-06,,,,,,,,,,,,,0.005,0.005516174715012312,-0.004573667887598276,-0.9963581562042236
0.254195720,2.874792335205711e-05,-2.378381032031029e-05,-0.004980113822966814,3.572940613594255e-06,-3.653815028314966e-08,1.362831714146751e-08,,,,,,,,,,,,,0.005,0.005668626632541418,-0.004676259122788906,-0.9962443709373474
0.259392500,2.758699338301085e-05,-2.392419264651835e-05,-0.004981881938874722,2.457146820233902e-06,5.570075700234156e-06,-1.893347985060245e-06,,,,,,,,,,,,,0.005,0.005578881595283747,-0.00468864431604743,-0.9962816834449768
0.264563709,2.89423405774869e-05,-2.252045305795036e-05,-0.004978130105882883,-4.207653546473011e-06,-5.724899665437988e-07,2.45313913183054e-07,,,,,,,,,,,,,0.005,0.005685520824044943,-0.004610421136021614,-0.9960151314735413
0.269710600,2.904480606957804e-05,-2.508848410798237e-05,-0.004978555254638195,-1.427381789653737e-06,1.17772640351177e-06,-1.384510483148915e-06,,,,,,,,,,,,,0.005,0.005695735104382038,-0.004809684120118618,-0.9958646893501282
0.274832398,2.931155177066103e-05,-2.361586666665971e-05,-0.004977225326001644,4.769966380990809e-06,-1.340049493592232e-06,1.295654499244847e-07,,,,,,,,,,,,,0.005,0.00575721450150013,-0.004756133537739515,-0.9956865906715393
0.279929340,2.752493310254067e-05,-2.734043846430723e-05,-0.004980262834578753,-4.807432560482994e-06,5.991974489916174e-07,-1.721789288922082e-07,,,,,,,,,,,,,0.005,0.005617443937808275,-0.005072802770882845,-0.9958391785621643
0.285001993,2.785172546282411e-05,-2.696318915695883e-05,-0.004978759679943323,-5.032856279285625e-06,1.838108005358663e-06,-1.033174157782923e-06,,,,,,,,,,,,,0.005,0.005595461465418339,-0.00520751578733325,-0.9957526326179504
0.290052861,2.756877438514493e-05,-2.278733518323861e-05,-0.004976408090442419,-1.97101303456293e-06,4.400536454340909e-06,-1.667194851506792e-06,,,,,,,,,,,,,0.005,0.005581772420555353,-0.004909674637019634,-0.9954879283905029
0.295079410,2.884757122956216e-05,-2.300179767189547e-05,-0.004976565018296242,-9.457926921641047e-07,7.825523198334849e-07,6.461027624027338e-07,,,,,,,,,,,,,0.005,0.005664433818310499,-0.004778160713613033,-0.9954438209533691
0.300081909,2.522805516491644e-05,-2.400461562501732e-05,-0.004977278877049685,-1.69886925505125e-06,5.823128503834596e-06,6.621798547712388e-06,,,,,,,,,,,,,0.005,0.005367682315409184,-0.00479792570695281,-0.9954348206520081
0.305059850,2.748318001977168e-05,-2.529981611587573e-05,-0.004980993922799826,-2.045484052359825e-06,3.139229875159799e-06,2.894072167691775e-06,,,,,,,,,,,,,0.005,0.00543974107131362,-0.004889961332082748,-0.9957919120788574
0.310013950,2.920084443758242e-05,-2.071647759294137e-05,-0.004979777149856091,8.179065389413154e-07,1.190997181765852e-06,-3.19510513691057e-06,,,,,,,,,,,,,0.005,0.005625582300126553,-0.004559980239719152,-0.9958202838897705
0.314943999,2.790872349578422e-05,-2.24888226512121e-05,-0.004982240498065948,-3.610095063777408e-06,-4.879274001723388e-06,-2.973349637613865e-06,,,,,,,,,,,,,0.005,0.00561052467674017,-0.004531856626272202,-0.9961187243461609
0.319850504,2.620960003696382e-05,-2.212943763879593e-05,-0.004979253746569157,3.443635478106444e-06,9.704022829737369e-08,-1.366656647405762e-06,,,,,,,,,,,,,0.005,0.00545225478708744,-0.004460843745619059,-0.9960277676582336
0.324732661,2.679064346011728e-05,-2.455210051266477e-05,-0.004978681448847055,1.658527821746247e-06,-4.103450919501483e-06,-3.183531589456834e-06,,,,,,,,,,,,,0.005,0.005428039003163576,-0.004683412611484528,-0.9958611130714417
0.329591811,2.681705700524617e-05,-2.163801582355518e-05,-0.004980102647095919,-1.510158995188249e-06,2.272199566277777e-07,1.488388079451397e-06,,,,,,,,,,,,,0.005,0.005414346698671579,-0.004510920494794846,-0.9959550499916077
0.334426612,3.000031028932426e-05,-2.190654049627483e-05,-0.004979988560080528,-3.515846628943109e-06,-3.428566742513794e-06,-2.024117065957398e-06,,,,,,,,,,,,,0.005,0.00564961601048708,-0.004481312353163958,-0.9959457516670227
0.339237899,2.745432357187383e-05,-2.423655678285286e-05,-0.00498200161382556,1.111438564294076e-06,1.086191105059697e-06,-2.054543074336834e-06,,,,,,,,,,,,,0.005,0.005574693437665701,-0.004632948897778988,-0.9961397647857666
0.344027132,2.77167528111022e-05,-2.288682117068674e-05,-0.004979047924280167,3.948904634398787e-07,1.347482452729309e-06,1.352922481601126e-06,,,,,,,,,,,,,0.005,0.005589384119957685,-0.004593105055391788,-0.9959730505943298
0.348792315,2.812027560139541e-05,-2.358158053539228e-05,-0.004978032317012548,-6.211888603502302e-07,-1.586327471159166e-06,3.20141424481335e-07,,,,,,,,,,,,,0.005,0.00562195060774684,-0.004629325121641159,-0.9957865476608276
0.354037255,3.080705573665909e-05,-2.155327456421219e-05,-0.004984045866876841,-5.836315608576115e-07,-8.460694544965008e-08,1.16603575861518e-06,,,,,,,,,,,,,0.005,0.005879300180822611,-0.004478323739022017,-0.9962754845619202
0.359256834,2.824695366143715e-05,-2.238876368210185e-05,-0.004985655192285776,2.507579438315588e-06,-3.709674274432473e-06,2.75519425940729e-07,,,,,,,,,,,,,0.005,0.005765221081674099,-0.004517770372331142,-0.9966418743133545
0.364452094,2.573952042439487e-05,-2.579657120804768e-05,-0.004982597660273314,-2.098094228131231e-06,-9.689294984127628e-07,-1.848614061827902e-08,,,,,,,,,,,,,0.005,0.005482563748955727,-0.004808610305190086,-0.9965599179267883
0.369622260,2.587110066087916e-05,-2.180526462325361e-05,-0.004978732205927372,-1.001968939817743e-06,1.541120809633867e-06,-4.21232158487328e-07,,,,,,,,,,,,,0.005,0.005343828350305557,-0.004615582060068846,-0.9961962699890137
0.374766588,2.662392398633529e-05,-2.564244277891703e-05,-0.004981746897101402,4.576982519211015e-06,-2.196712557633873e-06,4.700898443843471e-07,,,,,,,,,,,,,0.005,0.005350027699023485,-0.004836708772927523,-0.9962246417999268
0.379886597,2.968953776871786e-05,-2.393003705947194e-05,-0.004977913107722998,2.007295506700757e-06,3.730769094545394e-06,-1.368016683045425e-06,,,,,,,,,,,,,0.005,0.005601533222943544,-0.004781798925250769,-0.9959287643432617
0.384981245,2.687528467504308e-05,-2.1716819901485e-05,-0.004971188958734274,1.332558667854755e-06,4.304414744638052e-07,4.832901367990416e-07,,,,,,,,,,,,,0.005,0.005504169967025518,-0.004558696411550045,-0.995143711566925
0.390051842,2.909552131313831e-05,-2.28212393267313e-05,-0.004975597374141216,-1.825471940719581e-06,-4.645621345389372e-07,-6.014328732817376e-07,,,,,,,,,,,,,0.005,0.005656851455569267,-0.004554946441203356,-0.9951814413070679
0.395099133,2.617502286739182e-05,-2.384344588790555e-05,-0.004979222547262907,6.786514177292702e-07,5.33442516825744e-06,1.835164312069537e-06,,,,,,,,,,,,,0.005,0.005481314845383167,-0.004632580559700727,-0.995475172996521
0.400123894,2.660958125488833e-05,-2.416144707240164e-05,-0.004982452839612961,2.638533032950363e-06,1.708510581011069e-06,4.139823488458205e-07,,,,,,,,,,,,,0.005,0.005407722201198339,-0.004741489887237549,-0.9959263205528259
0.405126393,2.609955663501751e-05,-2.389230212429538e-05,-0.004980983678251505,-1.054841689551722e-07,1.724368303257506e-06,9.680634320829995e-07,,,,,,,,,,,,,0.005,0.005295458249747753,-0.004743164405226707,-0.9960340857505798
0.410105586,2.879261955968104e-05,-1.983883885259274e-05,-0.004981947131454945,-3.618412392825121e-06,-3.685951696752454e-06,-3.631768095146981e-06,,,,,,,,,,,,,0.005,0.005459653213620186,-0.004380646161735058,-0.9961987137794495
0.415060729,2.657249206095003e-05,-2.440742537146434e-05,-0.004981715232133865,-9.132402283285046e-07,-2.97867745757685e-06,-2.915317509177839e-06,,,,,,,,,,,,,0.005,0.005392073187977076,-0.004607563838362694,-0.9962707757949829
0.419991285,2.547895746829454e-05,-2.295477679581381e-05,-0.004983452614396811,-8.557271371500974e-07,1.610329263712629e-06,4.610600683463417e-07,,,,,,,,,,,,,0.005,0.005240736529231071,-0.004589742980897427,-0.9964486956596375
0.424898803,2.876601683965418e-05,-2.492688872735016e-05,-0.004980885423719883,-2.951686326468916e-07,1.046777356350503e-06,1.982855110327364e-06,,,,,,,,,,,,,0.005,0.005512546747922897,-0.004789551254361868,-0.996319591999054
0.429783046,3.042114258278161e-05,-2.183651304221712e-05,-0.004981031641364098,4.358519163361052e-06,-2.12306622415781e-06,4.464246103452751e-06,,,,,,,,,,,,,0.005,0.005766741465777159,-0.004563568159937859,-0.9962949752807617
0.434642941,2.550197677919641e-05,-2.497195600881241e-05,-0.004971503280103207,-5.82431937345973e-07,-8.877365758053202e-07,-2.210078264397453e-06,,,,,,,,,,,,,0.005,0.005470034666359425,-0.004779594950377941,-0.9953016638755798
0.439479798,2.68317453446798e-05,-1.860937300079968e-05,-0.004984278697520494,-2.928062485807459e-07,2.496581373634399e-06,1.125647258959361e-06,,,,,,,,,,,,,0.005,0.005445655435323715,-0.00439110491424799,-0.9960051774978638
0.444292605,2.958226832561195e-05,-2.416155439277645e-05,-0.00498069217428565,-1.118856175708061e-06,4.579528194881277e-06,-2.154033154511126e-06,,,,,,,,,,,,,0.005,0.005643789190798998,-0.004575569182634354,-0.9960742592811584
0.449082613,2.744046651059762e-05,-2.192853753513191e-05,-0.004981972742825747,1.598845074113342e-06,2.096157913911156e-06,1.84659631941031e-06,,,,,,,,,,,,,0.005,0.005559173412621021,-0.00446448614820838,-0.9962490797042847
0.453949690,2.621308158268221e-05,-2.00849990505958e-05,-0.004983929917216301,2.768123522400856e-06,4.136584720981773e-06,2.669553168743732e-06,,,,,,,,,,,,,0.005,0.005425982177257538,-0.004287266172468662,-0.9964411854743958
0.459192574,2.612680145830382e-05,-2.541649882914498e-05,-0.004982661921530962,2.567694764366024e-06,-2.148913154087495e-06,-2.457588834658964e-07,,,,,,,,,,,,,0.005,0.005322986282408237,-0.004634430166333914,-0.996512234210968
0.464409351,2.469696482876316e-05,-2.639069498400204e-05,-0.00498682027682662,2.29491547543148e-06,-5.061086767454981e-07,-9.101973064140623e-10,,,,,,,,,,,,,0.005,0.005170726217329502,-0.00491897901520133,-0.996877133846283
0.469601274,2.695759576454293e-05,-2.585021866252646e-05,-0.004978056997060776,9.657768487159046e-07,-7.05614866092219e-07,1.834246859289124e-06,,,,,,,,,,,,,0.005,0.005284955725073814,-0.00501283211633563,-0.9962911605834961
0.474768639,2.610229967103805e-05,-2.262270027131308e-05,-0.004976832307875156,2.279244171177197e-08,3.374255584276398e-06,-1.380209482704231e-06,,,,,,,,,,,,,0.005,0.005248433444648981,-0.004794246517121792,-0.9958939552307129
0.479912698,2.859199594240636e-05,-2.146654333046172e-05,-0.004981462378054857,1.442427219444653e-06,-2.427867684673402e-06,9.172074442176381e-07,,,,,,,,,,,,,0.005,0.005445163231343031,-0.004581291694194078,-0.9960977435112
0.485033989,2.912986383307725e-05,-2.487864912836812e-05,-0.004974076524376869,-3.893613666150486e-06,1.089717557078984e-06,1.495059365197449e-08,,,,,,,,,,,,,0.005,0.005594581831246614,-0.004756601061671972,-0.9955214858055115
0.490130931,2.604480687296018e-05,-1.966213676496409e-05,-0.004981725011020899,-1.818389137042686e-06,-4.530398200586205e-06,-1.55746477048524e-06,,,,,,,,,,,,,0.005,0.005424611736088991,-0.004379709251224995,-0.9959009885787964
0.495203316,2.738230068644043e-05,-2.394377588643692e-05,-0.004976500757038593,-3.118430640824954e-06,2.469560740792076e-06,1.318039721809328e-06,,,,,,,,,,,,,0.005,0.005441964603960514,-0.004575250204652548,-0.995595395565033
0.500250340,2.86678405245766e-05,-2.536156898713671e-05,-0.004978035110980272,-7.763724170217756e-06,7.316101005017117e-07,9.588578677721671e-07,,,,,,,,,,,,,0.005,0.005567493382841349,-0.004785579163581133,-0.9956613779067993
0.505273104,2.663941631908529e-05,-2.242266236862633e-05,-0.004982603248208761,-1.716984456834325e-06,1.35166089876293e-06,-1.580545472279482e-06,,,,,,,,,,,,,0.005,0.005471492186188698,-0.004681582096964121,-0.9959887266159058
0.510272503,2.545266761444509e-05,-2.553483864176087e-05,-0.00497645977884531,-1.669083417255024e-06,-2.397476919213659e-06,-1.671130689828715e-06,,,,,,,,,,,,,0.005,0.005354474764317274,-0.004861959256231785,-0.9956608414649963
0.515246570,2.897365448006894e-05,-2.158541246899404e-05,-0.004976598545908928,-6.868475566079724e-07,-7.913057515906985e-07,7.861461881475407e-07,,,,,,,,,,,,,0.005,0.005576096475124359,-0.004533844999969006,-0.9955459237098694
0.520197392,2.830328776326496e-05,-2.552574369474314e-05,-0.00498487614095211,2.971524509121082e-06,1.561325916554779e-06,-2.252466856589308e-06,,,,,,,,,,,,,0.005,0.005646624602377415,-0.004831688944250345,-0.9961041212081909
0.525123358,2.433721056149807e-05,-2.720534757827409e-05,-0.004978652577847242,-3.878731149598025e-06,2.422495072096353e-06,2.99461339636764e-06,,,,,,,,,,,,,0.005,0.005308376159518957,-0.005094767548143864,-0.9958853721618652
0.530025482,2.667364606168121e-05,-2.321671490790322e-05,-0.004978849552571774,-1.45450667332625e-06,4.500912382354727e-06,-9.352320375910494e-07,,,,,,,,,,,,,0.005,0.005338411312550306,-0.004892503377050161,-0.9959059953689575
0.534904838,1.545853228890337e-05,-3.445594120421447e-05,-0.004927374888211489,-7.341318450926337e-06,3.1933252557792e-06,-3.96953282688628e-07,,,,,,,,,,,,,0.005,0.004419623874127865,-0.005725530907511711,-0.9905381798744202
0.539760649,4.034578159917146e-05,-3.634160066212644e-06,-0.005058233626186848,1.481384879298275e-05,-2.841318007540394e-07,-4.217105924908537e-06,,,,,,,,,,,,,0.005,0.006131250411272049,-0.00370141351595521,-0.9998750686645508
0.544592917,2.852657416951843e-05,-4.194192297291011e-05,-0.004991897381842136,7.024126716714818e-06,-3.100682761214557e-06,1.250783952855272e-06,,,,,,,,,,,,,0.005,0.005722903180867434,-0.005668381694704294,-0.9993804693222046
0.549402118,2.979893906740472e-05,-2.090750058414415e-05,-0.004973703995347023,-6.577667591045611e-06,-7.359320079558529e-06,-1.050055743689882e-06,,,,,,,,,,,,,0.005,0.005683059804141521,-0.004869852215051651,-0.9975682497024536
0.554187536,2.29331708396785e-05,-1.686610266915523e-05,-0.004970032721757889,3.473558308542124e-06,-4.18289073422784e-06,-3.459626043422759e-07,,,,,,,,,,,,,0.005,0.005227713380008936,-0.004258857108652592,-0.995871365070343
0.559050262,2.835446321114432e-05,-2.803433199005667e-05,-0.004969127010554075,-2.419351631033351e-06,3.031329697478213e-06,-2.661629196154536e-06,,,,,,,,,,,,,0.005,0.005429428070783615,-0.004855342209339142,-0.9949933886528015
0.564288795,2.93173343379749e-05,-2.339902857784182e-05,-0.004968433640897274,-2.992496320075588e-06,-1.447083519678927e-07,1.891525812425243e-06,,,,,,,,,,,,,0.005,0.005639603361487389,-0.004792247898876667,-0.9941830635070801
0.569502234,2.740005584200844e-05,-2.598194259917364e-05,-0.004959362559020519,8.048601785048959e-07,4.575518687488511e-06,4.24307472712826e-06,,,,,,,,,,,,,0.005,0.005588935688138008,-0.004966466687619686,-0.9932250380516052
0.574690044,3.059342270717025e-05,-2.58386971836444e-05,-0.004985733423382044,5.282444817567011e-06,1.750477167661302e-06,1.576900558575289e-06,,,,,,,,,,,,,0.005,0.00582685275003314,-0.005068707745522261,-0.9950631856918335
0.579852283,2.447766928526107e-05,-3.046343044843525e-05,-0.004995409864932299,-1.748500949361187e-06,-1.833368628467724e-06,3.7702081954194e-06,,,,,,,,,,,,,0.005,0.005349739920347929,-0.005475675221532583,-0.9968625903129578
0.584991217,2.380450496275444e-05,-2.084738116536755e-05,-0.004988709930330515,-2.645837184900302e-06,-2.880147576433956e-06,7.127753747226961e-07,,,,,,,,,,,,,0.005,0.005085727199912071,-0.004824676085263491,-0.9971761107444763
0.590106130,2.454931018291973e-05,-1.978389627765864e-05,-0.004975183866918087,-3.754901626962237e-06,-4.522597464529099e-06,-7.766079335169707e-08,,,,,,,,,,,,,0.005,0.005018597934395075,-0.004460341297090054,-0.9961249232292175
0.595195413,2.678279997780919e-05,-2.085553569486365e-05,-0.004977058619260788,-1.710447605773879e-07,-3.185053856213926e-06,2.194073829286936e-07,,,,,,,,,,,,,0.005,0.005192294716835022,-0.004316715523600578,-0.9958828687667847
0.600260377,3.012200068042148e-05,-2.346340988879092e-05,-0.004992502741515636,9.367310667585116e-06,-2.79312371276319e-06,3.510917395033175e-06,,,,,,,,,,,,,0.005,0.005555100739002228,-0.004563597030937672,-0.9970495700836182
0.605300963,2.63138826994691e-05,-2.727840910665691e-05,-0.004982664249837399,-1.227093548550329e-06,-4.675672244047746e-06,-6.483146108848814e-08,,,,,,,,,,,,,0.005,0.005418379325419664,-0.004961727652698755,-0.9968267679214478
0.610317290,2.759054223133717e-05,-2.427864819765091e-05,-0.004978723358362913,-5.540639904211275e-06,-2.393325075900066e-06,-8.643619935355673e-07,,,,,,,,,,,,,0.005,0.005473995581269264,-0.004914306569844484,-0.9963653087615967
0.615309596,2.755585956037976e-05,-2.092177601298317e-05,-0.004976597148925066,5.383977281780972e-07,-7.929480489110574e-06,-1.631118834666268e-06,,,,,,,,,,,,,0.005,0.005471677053719759,-0.004562199581414461,-0.9958680868148804
0.620277226,3.048837606911547e-05,-2.18079803744331e-05,-0.004972841124981642,8.698245892446721e-07,-2.479862075688288e-07,-2.557202662956115e-07,,,,,,,,,,,,,0.005,0.005725654773414135,-0.004479630384594202,-0.9952922463417053
0.625220597,2.770642822724767e-05,-2.091379064950161e-05,-0.004980538506060839,2.23755273509596e-06,-1.61883679083985e-06,1.216548412230622e-06,,,,,,,,,,,,,0.005,0.005635399837046862,-0.004398885183036327,-0.9956263899803162
0.630139887,2.758773371169809e-05,-2.379699071752839e-05,-0.004982462152838707,2.946697122752084e-06,-6.991695499891648e-06,-1.322478766496715e-07,,,,,,,,,,,,,0.005,0.00560108246281743,-0.004592405632138252,-0.9960381388664246
0.635034859,3.051428211620077e-05,-2.327175025129691e-05,-0.004990861285477877,1.81825771505828e-06,2.413735501249903e-06,1.862273506958445e-06,,,,,,,,,,,,,0.005,0.005818745121359825,-0.004631534684449434,-0.996968686580658
0.639907837,3.238009958295152e-05,-2.412188405287452e-05,-0.004987467546015978,-2.752157115537557e-06,4.993233687855536e-06,1.623536007855364e-07,,,,,,,,,,,,,0.005,0.006094601005315781,-0.004689829424023628,-0.9971811771392822
0.644756496,2.669822242751252e-05,-1.738912942528259e-05,-0.004977861419320107,-1.242991629624157e-06,1.646890041229199e-06,3.833792305840689e-08,,,,,,,,,,,,,0.005,0.005748580675572157,-0.004114403389394283,-0.9964461922645569
0.649582088,2.609795410535298e-05,-2.14186202356359e-05,-0.004972044378519058,1.461185483719873e-08,-2.584245748948888e-06,2.971532012452371e-06,,,,,,,,,,,,,0.005,0.005547155160456896,-0.00424283929169178,-0.9954982995986938
0.654383898,2.683590901142452e-05,-2.37098374782363e-05,-0.004971759859472513,4.294911832403159e-06,3.162503162457142e-06,-2.351943976464099e-06,,,,,,,,,,,,,0.005,0.005468805320560932,-0.004449649713933468,-0.9950713515281677
0.659161627,3.026895137736574e-05,-2.434077578072902e-05,-0.004984010010957718,1.982894673346891e-06,3.105944642811664e-06,-9.173072044177388e-07,,,,,,,,,,,,,0.005,0.005741387605667114,-0.004677074495702982,-0.9958692193031311
0.664018154,2.566916555224452e-05,-2.802207382046618e-05,-0.00498446449637413,2.864451062123408e-06,1.585444010743231e-06,3.601297748900834e-07,,,,,,,,,,,,,0.005,0.00544785475358367,-0.005041954107582569,-0.99635249376297
0.669255912,2.710330227273516e-05,-2.070269511023071e-05,-0.004979278892278671,-9.529027806820523e-07,-7.895905014265736e-07,-2.740060381256626e-06,,,,,,,,,,,,,0.005,0.005435539409518242,-0.00460263155400753,-0.9961199760437012
0.674468100,2.667036824277602e-05,-1.952843376784585e-05,-0.004983811639249325,2.210795628343476e-06,3.831908998108702e-06,-1.866092134150676e-06,,,,,,,,,,,,,0.005,0.005412908736616373,-0.004319473635405302,-0.9964023232460022
0.679655194,2.810921614582185e-05,-2.196711284341291e-05,-0.004984486382454634,7.674220228182094e-07,5.881372899807502e-08,2.19073541529724e-07,,,,,,,,,,,,,0.005,0.005502070765942335,-0.004357151221483946,-0.9966133236885071
0.684816897,2.773098822217435e-05,-2.36712621699553e-05,-0.004981210455298424,3.039712510144454e-06,-1.503049929851841e-06,-6.931155667189159e-07,,,,,,,,,,,,,0.005,0.005526099354028702,-0.004520525690168142,-0.9964430332183838
0.689953566,2.786948971333914e-05,-2.457887057971675e-05,-0.004977064207196236,-3.650464577731327e-06,2.740310037552263e-06,2.306180022060289e-06,,,,,,,,,,,,,0.005,0.005570587236434221,-0.004765856079757214,-0.9959573745727539
0.695069671,2.799173489620443e-05,-2.206047793151811e-05,-0.004979338962584734,1.169567212855327e-06,-1.90907758224057e-06,9.737370874063345e-07,,,,,,,,,,,,,0.005,0.005575358401983976,-0.004573085810989141,-0.9959480166435242
0.700160265,2.668093475222122e-05,-2.305968155269511e-05,-0.004978211130946875,-1.162832177215023e-06,-3.120528390354593e-06,-1.443343194296176e-06,,,,,,,,,,,,,0.005,0.005476669874042273,-0.004615518730133772,-0.9957544803619385
0.705226481,2.925575972767547e-05,-2.098054574162234e-05,-0.004976542666554451,1.664758542574418e-06,5.412755967881822e-07,-8.340208523804904e-07,,,,,,,,,,,,,0.005,0.005661210976541042,-0.00442554010078311,-0.9956306219100952
0.710268140,2.766843681456521e-05,-2.599925028334837e-05,-0.004980452358722687,-5.831734029015934e-07,6.205684258020483e-06,2.004732778004836e-06,,,,,,,,,,,,,0.005,0.005599058698862791,-0.004803638905286789,-0.9957752823829651
0.715285778,2.829128789016977e-05,-2.714530819503125e-05,-0.004979493096470833,5.703425642877846e-08,-3.088139465035056e-06,1.256308337360679e-06,,,,,,,,,,,,,0.005,0.005595584399998188,-0.005057341884821653,-0.9958752393722534
0.720279276,2.872705954359844e-05,-2.566358307376504e-05,-0.004984547849744558,2.546115638324409e-06,1.276456714549568e-06,4.278980370031604e-08,,,,,,,,,,,,,0.005,0.00563100865110755,-0.00510728545486927,-0.9963424801826477
0.725249529,2.92253062070813e-05,-2.625807246658951e-05,-0.004981273785233498,4.024506779387593e-06,-3.448620418566861e-06,-1.324182107964589e-06,,,,,,,,,,,,,0.005,0.005734441336244345,-0.005146817769855261,-0.9963056445121765
0.730194688,2.453456545481458e-05,-2.246205076517072e-05,-0.00497911125421524,5.120837158756331e-06,-1.602161432856519e-06,4.68257695729335e-07,,,,,,,,,,,,,0.005,0.005351412110030651,-0.004853090271353722,-0.9961065053939819
0.735116303,2.778759335342329e-05,-2.269167634949554e-05,-0.004977901931852102,3.455054411460878e-06,3.285538525688025e-07,1.809497348403966e-06,,,,,,,,,,,,,0.005,0.005470904055982828,-0.004738566000014544,-0.9958418607711792
0.740013540,2.763711927400436e-05,-2.71955577773042e-05,-0.004976676777005196,1.688349925643706e-06,2.407936790405074e-06,5.661349291585793e-07,,,,,,,,,,,,,0.005,0.005501361563801765,-0.005045295227319002,-0.9956294298171997
0.744888306,2.877780025301035e-05,-2.417589530523401e-05,-0.004978290759027004,6.094601303630043e-06,3.22956168474775e-07,2.381716512900311e-06,,,,,,,,,,,,,0.005,0.005612228065729141,-0.004926481284201145,-0.9956757426261902
0.749739289,2.418349322397262e-05,-2.408262662356719e-05,-0.004983697086572647,6.173788733576657e-06,-3.351009581820108e-06,1.960167082870612e-06,,,,,,,,,,,,,0.005,0.005302419885993004,-0.004871435929089785,-0.9961633086204529
0.754566371,2.886113907152321e-05,-2.386263440712355e-05,-0.004986549727618694,-3.49403762811562e-07,2.565481622696097e-07,-3.429536548082979e-07,,,,,,,,,,,,,0.005,0.005539826117455959,-0.004774269182235003,-0.9967116117477417
0.759370506,3.051231396966614e-05,-2.358376332267653e-05,-0.004981685429811478,-5.880882554265554e-07,6.261232101678615e-07,-2.879892463170108e-06,,,,,,,,,,,,,0.005,0.005806410685181618,-0.004781114403158426,-0.9964675903320312
0.764150500,2.573390338511672e-05,-2.384259278187528e-05,-0.004975511226803064,2.729657126110396e-06,1.885736423901108e-06,-1.607469471309741e-06,,,,,,,,,,,,,0.005,0.0055000358261168,-0.004766839556396008,-0.9958980679512024
0.769007623,3.029321851499844e-05,-2.172404492739588e-05,-0.004979076329618692,1.170590053334308e-06,4.549110599327832e-06,-2.164192210329929e-06,,,,,,,,,,,,,0.005,0.005757193546742201,-0.00457870913669467,-0.9958404898643494
0.774239004,2.515274900360964e-05,-2.341104118386284e-05,-0.004976395983248949,-6.083287757974176e-07,3.403723212613841e-06,1.449960222998925e-06,,,,,,,,,,,,,0.005,0.005435979925096035,-0.00460381992161274,-0.9955835342407227
0.779445529,2.654113995959051e-05,-2.434580164845102e-05,-0.004981509409844875,1.065094011210022e-06,1.53500263877504e-06,2.8686538371403e-06,,,,,,,,,,,,,0.005,0.005342208780348301,-0.004720283672213554,-0.9959396719932556
0.784626186,2.720655902521685e-05,-2.309838055225555e-05,-0.004978983663022518,7.680740736759617e-07,1.821100795496022e-06,-1.292694037147157e-06,,,,,,,,,,,,,0.005,0.005405059084296227,-0.004705742467194796,-0.9958888292312622
0.789781988,2.770946412056219e-05,-1.976001476577949e-05,-0.004982135724276304,7.637935368620674e-07,3.145926257275278e-07,3.444757567194756e-06,,,,,,,,,,,,,0.005,0.005473535973578691,-0.004355628043413162,-0.9961434602737427
0.794914842,2.693616079341155e-05,-2.202303585363552e-05,-0.004980619996786118,6.621025363529043e-07,-1.116990688387887e-06,-7.16548868240352e-07,,,,,,,,,,,,,0.005,0.005435640923678875,-0.004363526124507189,-0.9960972666740417
0.800023317,2.697039053600747e-05,-2.624988155730534e-05,-0.004978722427040339,-1.217045337398304e-06,-1.872957227533334e-06,7.694848704886681e-07,,,,,,,,,,,,,0.005,0.005437218118458986,-0.004762266762554646,-0.9959480762481689
0.805107474,2.628266884130426e-05,-2.706159466470126e-05,-0.004984387196600437,8.258061825472396e-06,3.21479888043541e-06,4.398920737003209e-06,,,,,,,,,,,,,0.005,0.005355453118681908,-0.005067626014351845,-0.9963405728340149
0.810166538,2.80572239717003e-05,-2.488599420757964e-05,-0.004977473989129066,4.962083949067164e-06,5.860500777998823e-07,1.673152155490243e-06,,,,,,,,,,,,,0.005,0.005472295917570591,-0.005042242351919413,-0.9959343075752258
0.815202057,2.485957338649314e-05,-1.782740218914114e-05,-0.004980528727173805,-1.175272359432711e-06,-1.785782728802587e-06,-3.358917865625699e-06,,,,,,,,,,,,,0.005,0.005215358454734087,-0.004370180424302816,-0.9960803389549255
0.820213735,2.352278897888027e-05,-2.291878263349645e-05,-0.004980318713933229,4.127516604057746e-07,2.472590949764708e-06,8.952169139320176e-08,,,,,,,,,,,,,0.005,0.005001318175345659,-0.004456864669919014,-0.9960365891456604
0.825201154,3.023530916834716e-05,-2.428967854939401e-05,-0.004981866106390953,1.161310251518444e-06,5.74722093915625e-07,8.813919976091711e-07,,,,,,,,,,,,,0.005,0.00551206199452281,-0.004636774770915508,-0.9962401390075684
0.830164969,2.881982436520047e-05,-2.512974970159121e-05,-0.004988353699445724,4.40123494627187e-06,-1.646318992243323e-06,3.993015695868962e-07,,,,,,,,,,,,,0.005,0.005619210656732321,-0.004834117833524942,-0.9968267679214478
0.835104227,2.735132147790864e-05,-2.461320764268748e-05,-0.004976615309715271,-1.9781539322139e-06,-4.667324446927523e-07,1.751410309225321e-06,,,,,,,,,,,,,0.005,0.005549596156924963,-0.00481835100799799,-0.9961391687393188
0.840019941,2.786599725368433e-05,-1.988260919461027e-05,-0.004981805570423603,4.265937150194077e-06,-3.896384896506788e-06,-9.715018904898898e-07,,,,,,,,,,,,,0.005,0.005572133231908083,-0.004411626141518354,-0.9962891340255737
0.844911098,2.75125821644906e-05,-2.167883212678134e-05,-0.004981341771781445,4.489701495913323e-06,3.185855348419864e-06,3.490834160402301e-06,,,,,,,,,,,,,0.005,0.005519502330571413,-0.004395529627799988,-0.9962151646614075
0.849780500,2.714861329877749e-05,-2.079668411170132e-05,-0.004978951532393694,-1.375174178974703e-06,3.149965095872176e-06,4.702892297814287e-09,,,,,,,,,,,,,0.005,0.005494075361639261,-0.004297493491321802,-0.9960436224937439
0.854625523,2.482759737176821e-05,-2.362190753046889e-05,-0.004981264937669039,-2.231777216366027e-06,-4.726081442640861e-06,-1.728155325508851e-06,,,,,,,,,,,,,0.005,0.005255695898085833,-0.004493410233408213,-0.9960957765579224
0.859447837,2.912052150350064e-05,-2.500771915947553e-05,-0.004977179691195488,-1.900081201711146e-06,5.526138124878344e-07,-4.367671408544993e-06,,,,,,,,,,,,,0.005,0.005496075842529535,-0.004696708172559738,-0.9957855939865112
0.864245772,2.535136991355103e-05,-2.647334258654155e-05,-0.004981245845556259,-4.574126705847448e-06,-2.648213239808683e-06,-1.723716309243173e-06,,,,,,,,,,,,,0.005,0.005304933059960604,-0.004984022583812475,-0.9960190653800964
0.869021177,2.889103234338108e-05,-2.399978984612972e-05,-0.004979283083230257,-7.205952101685398e-07,1.497475750511512e-06,4.950627499056282e-07,,,,,,,,,,,,,0.005,0.005509252659976482,-0.004899233113974333,-0.9959070086479187
0.873973012,2.798711284413002e-05,-2.040406252490357e-05,-0.004981715232133865,5.703581678062619e-07,-1.071980136657658e-06,-2.515696451155236e-07,,,,,,,,,,,,,0.005,0.005531138740479946,-0.004539137240499258,-0.9961129426956177
0.879200518,2.703385871427599e-05,-2.438167211948894e-05,-0.004981370642781258,-2.538164096677065e-07,-3.909983206540346e-06,1.915872871904867e-06,,,,,,,,,,,,,0.005,0.005501820705831051,-0.00469518918544054,-0.9961522221565247
0.884403706,2.62241064774571e-05,-2.369982212258037e-05,-0.004978190176188946,-6.04910292167915e-06,-2.136094963134383e-06,8.574934327043593e-06,,,,,,,,,,,,,0.005,0.005373261403292418,-0.004711060784757137,-0.9959433674812317
0.889581084,2.427056278975215e-05,-2.222537477791775e-05,-0.004981208592653275,-2.235801275674021e-06,1.0458135193403e-06,3.551365637122217e-07,,,,,,,,,,,,,0.005,0.005127937532961369,-0.004624258726835251,-0.9960793256759644
0.894733071,2.819163273670711e-05,-2.524796582292765e-05,-0.004975872114300728,1.507492243035813e-06,-3.987584875631001e-07,2.171725554944715e-06,,,,,,,,,,,,,0.005,0.005412009079009295,-0.004783071577548981,-0.9956621527671814
0.899860740,2.907963789766654e-05,-2.070867594738957e-05,-0.004984203726053238,9.724113851916627e-07,2.38536063079664e-06,1.643350771018959e-07,,,,,,,,,,,,,0.005,0.005591532215476036,-0.00449528219178319,-0.9961865544319153
0.904964864,2.780607974273153e-05,-2.183300603064708e-05,-0.004979236517101526,-5.595761720655901e-08,-3.108872306256671e-07,3.461408596194815e-06,,,,,,,,,,,,,0.005,0.005584662780165672,-0.004469287116080523,-0.9960053563117981
0.910044909,2.837147985701449e-05,-2.465906254656147e-05,-0.004980800673365593,1.652515152272827e-06,-3.067471197937266e-06,2.832528252838529e-06,,,,,,,,,,,,,0.005,0.005614268593490124,-0.004611734766513109,-0.9960945248603821
0.915099919,2.671233596629463e-05,-2.424474223516881e-05,-0.004987271968275309,-4.09912991017336e-06,-4.215782610117458e-06,4.184676356544514e-07,,,,,,,,,,,,,0.005,0.005474841222167015,-0.004719206597656012,-0.9966961741447449
0.920131564,2.477292400726583e-05,-2.464817589498125e-05,-0.004975705407559872,-2.925796025010641e-06,-1.820885017878027e-06,2.024867882255421e-07,,,,,,,,,,,,,0.005,0.00528076384216547,-0.004789319820702076,-0.9960166215896606
0.925137937,2.720378324738704e-05,-2.062453495454974e-05,-0.004979856312274933,2.198759148086538e-06,-5.151159498950619e-08,3.259804088884266e-06,,,,,,,,,,,,,0.005,0.00538339139893651,-0.004494690336287022,-0.9960052967071533
0.930120468,2.708298052311875e-05,-2.436798968119547e-05,-0.004977182485163212,2.407535703241592e-06,1.629498569855059e-06,-1.745991198731645e-06,,,,,,,,,,,,,0.005,0.005381111521273851,-0.004678556229919195,-0.9957559108734131
0.935079157,2.432719156786334e-05,-2.678074451978318e-05,-0.004981298930943012,3.492152700346196e-06,3.093809709753259e-06,7.547356517534354e-07,,,,,,,,,,,,,0.005,0.005170901771634817,-0.004965880885720253,-0.9960372447967529
0.940013587,2.80900567304343e-05,-2.66402439592639e-05,-0.00497883278876543,-3.437445002418826e-06,7.850074368320747e-09,1.751989202602999e-06,,,,,,,,,,,,,0.005,0.005383151583373547,-0.005118257366120815,-0.9958557486534119
0.944924176,2.855679485946894e-05,-2.181251511501614e-05,-0.004976715892553329,-4.536541837296681e-06,-3.962095888709882e-06,-2.426059154458926e-06,,,,,,,,,,,,,0.005,0.005542651284486055,-0.004758324008435011,-0.9956403970718384
0.949810445,2.806424527079798e-05,-2.447468614263926e-05,-0.004984460305422544,-3.470114734227536e-06,-1.480836999689927e-06,-1.935496356963995e-06,,,,,,,,,,,,,0.005,0.005543784704059362,-0.004859361331909895,-0.9961416721343994
0.954673171,2.765289173112251e-05,-2.49859549512621e-05,-0.004972385242581367,2.795659838739084e-06,-8.924656071940262e-07,-3.12135284730175e-06,,,,,,,,,,,,,0.005,0.005528751295059919,-0.004901107400655746,-0.9953702092170715
0.959513366,3.002530502271838e-05,-1.957713539013639e-05,-0.004981217905879021,-3.279419843238429e-06,-1.984340315175359e-06,1.535462615720462e-06,,,,,,,,,,,,,0.005,0.005744540598243475,-0.00444392766803503,-0.9958092570304871
0.964329481,2.706077430048026e-05,-2.439241143292747e-05,-0.004978653974831104,4.191065727354726e-06,4.274182174412999e-06,-9.485563623456983e-07,,,,,,,,,,,,,0.005,0.005605524405837059,-0.004644621163606644,-0.995713472366333
0.969122827,2.70702857960714e-05,-2.455287722114008e-05,-0.004981957841664553,-7.1370009209204e-06,-5.343039902072633e-06,2.420854343654355e-06,,,,,,,,,,,,,0.005,0.005530403461307287,-0.004763780627399683,-0.9960467219352722
0.973892331,2.564512033131905e-05,-2.294184741913341e-05,-0.004983785096555948,-8.62651802435721e-07,-2.576940687504248e-06,1.965020601346623e-06,,,,,,,,,,,,,0.005,0.005346646998077631,-0.004732246976345778,-0.9963345527648926
0.978940904,2.877623592212331e-05,-2.258453969261609e-05,-0.004975488409399986,1.756599544933124e-06,-9.017079491968616e-07,-1.942500148288673e-06,,,,,,,,,,,,,0.005,0.005521878134459257,-0.004638175945729017,-0.9957836866378784
0.984167159,2.781163129839115e-05,-2.357169432798401e-05,-0.004984067287296057,7.721100701019168e-07,1.329743213318579e-06,-1.452106403121434e-06,,,,,,,,,,,,,0.005,0.005579144693911076,-0.004678673576563597,-0.9962732791900635
0.989368558,2.614208642626181e-05,-2.333721749891993e-05,-0.004978374112397432,2.164506668123067e-06,-5.292360469866253e-07,1.595155652012181e-07,,,,,,,,,,,,,0.005,0.005393294617533684,-0.004689858295023441,-0.9959454536437988
0.994543612,2.886501351895276e-05,-2.395203227933962e-05,-0.004979328718036413,-1.112715608542203e-06,1.279052185054752e-06,2.175489726141677e-06,,,,,,,,,,,,,0.005,0.005565329920500517,-0.004715473391115665,-0.9959613680839539
0.999694347,2.782752926577814e-05,-2.413495894870721e-05,-0.004979703575372696,-1.104012383734698e-07,9.945480314854649e-07,-1.14303327336529e-06,,,,,,,,,,,,,0.005,0.005551219452172518,-0.004784438293427229,-0.9958977103233337
1.004819512,2.655227763170842e-05,-2.441703691147268e-05,-0.004976177588105202,-5.722145942854695e-06,-2.278289059631788e-07,8.723276323507889e-07,,,,,,,,,,,,,0.005,0.005419866181910038,-0.004798716865479946,-0.9956305623054504
1.009922028,2.65971557382727e-05,-2.173816938011441e-05,-0.004983135964721441,5.605847036349587e-06,6.717601195305178e-07,7.124824463744517e-08,,,,,,,,,,,,,0.005,0.005383354611694813,-0.004622730892151594,-0.9960986375808716
1.014999866,2.582629895186983e-05,-2.520514681236818e-05,-0.004977751057595015,6.859324912511511e-06,-4.707543666881975e-06,3.075415975217766e-07,,,,,,,,,,,,,0.005,0.005277627147734165,-0.004784014541655779,-0.9958397746086121
1.020053506,2.717845200095326e-05,-1.966023046406917e-05,-0.004980438388884068,3.506048415147234e-06,1.702340000520053e-06,5.549031811824534e-07,,,,,,,,,,,,,0.005,0.005352881737053394,-0.004410616122186184,-0.9960046410560608
1.025082588,2.962862163258251e-05,-2.253913226013537e-05,-0.004981998354196548,-1.546000135022041e-06,1.451832304155687e-06,2.643942934810184e-06,,,,,,,,,,,,,0.005,0.005612419452518225,-0.004445370752364397,-0.9961385130882263
1.030087471,2.825715637300164e-05,-2.208657497249078e-05,-0.004980438854545355,-3.256988293287577e-06,-4.863707090407843e-07,-2.423446971988596e-07,,,,,,,,,,,,,0.005,0.005634550470858812,-0.004438486881554127,-0.9961934685707092
1.035068631,2.756641151790973e-05,-2.381194281042553e-05,-0.004985751584172249,8.52017990382592e-07,6.991613190621138e-07,1.674134182394482e-06,,,,,,,,,,,,,0.005,0.005574309732764959,-0.004558646120131016,-0.996593713760376
1.040024877,2.627346293593291e-05,-2.411970490356907e-05,-0.004980510100722313,-7.819009084641948e-08,1.998552534132614e-06,-3.145143409710727e-06,,,,,,,,,,,,,0.005,0.005416837055236101,-0.00465394277125597,-0.9963724613189697
1.044957638,2.762379153864458e-05,-2.251526166219264e-05,-0.004981647245585918,-1.76023331732722e-06,-1.974482529476518e-06,-1.320014121120039e-06,,,,,,,,,,,,,0.005,0.005476657301187515,-0.004589867778122425,-0.9963868856430054
1.049866199,2.816371306835208e-05,-2.625397246447392e-05,-0.004977731499820948,1.222215587404207e-06,-3.300743401268846e-06,-8.459467721877445e-07,,,,,,,,,,,,,0.005,0.005552176386117935,-0.004867374431341887,-0.9959825277328491
1.054751515,2.870583557523787e-05,-2.060283077298664e-05,-0.004978635348379612,4.072442720826075e-07,-2.710927901716786e-06,1.360289729746e-06,,,,,,,,,,,,,0.005,0.005618286319077015,-0.004519026260823011,-0.9959585070610046
1.059612632,2.7677153411787e-05,-2.425957063678652e-05,-0.004981308244168758,2.457338723615976e-06,-2.312091964995489e-06,5.692072591045871e-06,,,,,,,,,,,,,0.005,0.005594096146523952,-0.004716462455689907,-0.9960000514984131
1.064451814,2.731091262830887e-05,-2.585605398053303e-05,-0.00497839692980051,2.131219389411854e-06,2.813580749716493e-06,-1.536898707854562e-06,,,,,,,,,,,,,0.005,0.005509328097105026,-0.004897276405245066,-0.9959031343460083
1.069266677,2.485687218722887e-05,-2.577248778834473e-05,-0.004985087551176548,-2.722899353102548e-06,1.780074626367423e-06,-3.047214249818353e-06,,,,,,,,,,,,,0.005,0.005285972729325294,-0.005014614667743444,-0.9963632225990295
1.074058294,2.767405385384336e-05,-2.06025579245761e-05,-0.004974130541086197,-2.664481598912971e-06,-1.367946765640227e-06,3.06880178868596e-06,,,,,,,,,,,,,0.005,0.00543053587898612,-0.004576065577566624,-0.9956402182579041
1.078826547,2.930567825387698e-05,-2.023675006057601e-05,-0.004982465878129005,6.998951675996068e-07,-1.759861675054708e-06,-3.806620497925906e-06,,,,,,,,,,,,,0.005,0.005575329065322876,-0.004334559664130211,-0.9960857629776001
1.083974123,2.369909452681895e-05,-2.613202013890259e-05,-0.004983066581189632,3.493602889648173e-06,-1.072173063221271e-06,-1.994526655835216e-06,,,,,,,,,,,,,0.005,0.005196558777242899,-0.004741169046610594,-0.9962430000305176
1.089197874,2.528321419958957e-05,-2.574644531705417e-05,-0.004975865129381418,-5.290471563057508e-06,-2.383953415119322e-06,-2.527316382838762e-06,,,,,,,,,,,,,0.005,0.005152900237590075,-0.004892513155937195,-0.9957938194274902
1.094396710,2.872868935810402e-05,-2.219357702415437e-05,-0.004980284254997969,-1.522542333987076e-06,-1.852438458627148e-06,-3.434122163525899e-06,,,,,,,,,,,,,0.005,0.005364605225622654,-0.004698432981967926,-0.9959555864334106
1.099570394,2.820673762471415e-05,-2.45858209382277e-05,-0.004980131518095732,7.224867886179709e-07,-1.836078126871143e-06,1.649179012019886e-06,,,,,,,,,,,,,0.005,0.005471724551171064,-0.004795908462256193,-0.9959400296211243
1.104719400,2.817424683598801e-05,-2.09545723919291e-05,-0.004987447522580624,1.434573619008006e-06,1.553296897327527e-06,-4.41633710579481e-06,,,,,,,,,,,,,0.005,0.005590120330452919,-0.004530233331024647,-0.9966898560523987
1.109843254,2.88892442767974e-05,-2.802140988933388e-05,-0.004979780875146389,-2.348980615352048e-06,9.463594210501469e-07,-1.712685275379044e-06,,,,,,,,,,,,,0.005,0.005696286913007498,-0.005044861696660519,-0.9962638020515442
1.114942670,2.327435140614398e-05,-2.170978041249327e-05,-0.00497783999890089,-3.219279960831045e-06,1.973690359591274e-06,1.350765273855359e-06,,,,,,,,,,,,,0.005,0.005216868128627539,-0.004730683751404285,-0.9960095882415771
1.120017171,2.761887117230799e-05,-2.247409065603279e-05,-0.004984659142792225,3.50080131283903e-06,4.660577701542934e-07,2.782232286335784e-06,,,,,,,,,,,,,0.005,0.005381816998124123,-0.004631825257092714,-0.9963751435279846
1.125066757,2.782148840196896e-05,-2.531163954699878e-05,-0.004977164324373007,-9.679654340288835e-07,-8.104189532787132e-07,-1.666224420660001e-06,,,,,,,,,,,,,0.005,0.005476946476846933,-0.004818940069526434,-0.9959632754325867
1.130097628,2.803697498166002e-05,-2.195219531131443e-05,-0.004982640966773033,2.04632510758529e-06,-2.092971499223495e-06,-9.935746447808924e-07,,,,,,,,,,,,,0.005,0.005536907818168402,-0.004619424697011709,-0.9962226152420044
1.135103703,2.748973565758206e-05,-2.530784877308179e-05,-0.004973491653800011,1.868321533038397e-06,-5.690465627594676e-07,1.362044713459909e-06,,,,,,,,,,,,,0.005,0.005486790556460619,-0.004847088828682899,-0.9955058693885803
1.140086055,2.602237145765685e-05,-2.371496157138608e-05,-0.004985873587429523,-1.273710950044915e-06,-5.079740276414668e-06,2.13375437851937e-06,,,,,,,,,,,,,0.005,0.00534547446295619,-0.004822550807148218,-0.9963094592094421
1.145043731,2.685439540073276e-05,-2.665715146576986e-05,-0.004980327095836401,-4.688527496909956e-06,-3.112048943876289e-06,-2.630376911838539e-06,,,,,,,,,,,,,0.005,0.005371355451643467,-0.005021279212087393,-0.9961356520652771
1.149977803,2.970987043227069e-05,-2.184897857659962e-05,-0.004976761527359486,-3.340868261147989e-06,5.58522003757389e-07,2.681520754777011e-06,,,,,,,,,,,,,0.005,0.005627678707242012,-0.00469668535515666,-0.995840311050415
1.154888153,3.146657400066033e-05,-2.363932071602903e-05,-0.004987273365259171,4.41020711150486e-06,2.503651103324955e-06,2.08892103614744e-08,,,,,,,,,,,,,0.005,0.005940604023635387,-0.004740146454423666,-0.9965248703956604
1.159774184,2.989635504491162e-05,-2.683408274606336e-05,-0.004975915886461735,-7.386539664366865e-07,4.817315584659809e-06,3.183849912602454e-07,,,,,,,,,,,,,0.005,0.005944196134805679,-0.005045495461672544,-0.9959384202957153
1.164637208,2.93763805530034e-05,-2.176917041651905e-05,-0.004982467740774155,3.014486082975054e-06,1.162842480084691e-07,5.418379487309721e-07,,,,,,,,,,,,,0.005,0.005893404129892588,-0.004742894321680069,-0.9962179064750671
1.169476151,2.827727075782605e-05,-2.250595753139351e-05,-0.004977097269147635,2.741285470619914e-06,-1.270845586986979e-06,-4.18949275626801e-06,,,,,,,,,,,,,0.005,0.0057846256531775,-0.004673564340919256,-0.9958046078681946
1.174291968,2.787390440062154e-05,-2.268407297378872e-05,-0.004980951547622681,1.370309661297142e-07,-2.412848061794648e-06,-7.810120905560325e-07,,,,,,,,,,,,,0.005,0.005674603395164013,-0.004577460698783398,-0.9960135817527771
1.179084063,2.762204167083837e-05,-2.417164978396613e-05,-0.004984688945114613,3.279443944848026e-06,2.690617066036793e-06,-3.673561423056526e-06,,,,,,,,,,,,,0.005,0.005640560295432806,-0.00470440462231636,-0.9963722825050354
1.183854580,2.98431477858685e-05,-2.354748357902281e-05,-0.00497850589454174,4.400020316097653e-06,-4.089512913196813e-06,-4.650157165997371e-07,,,,,,,,,,,,,0.005,0.005798297468572855,-0.004705918952822685,-0.9961143732070923
1.189100027,3.007752457051538e-05,-2.057124584098347e-05,-0.004986710846424103,3.78017830371391e-06,2.623840600790572e-06,-8.787797014520038e-07,,,,,,,,,,,,,0.005,0.005906774196773767,-0.004465002100914717,-0.9966900944709778
1.194320083,2.819265864673071e-05,-2.654276613611728e-05,-0.004977918695658445,-2.111102503477014e-06,-1.103843942473759e-06,-2.561318069638219e-06,,,,,,,,,,,,,0.005,0.005795610602945089,-0.00482467282563448,-0.9961695075035095
1.199516416,2.859766573237721e-05,-2.41479356191121e-05,-0.004981005564332008,-3.303516677988227e-06,1.837998752307612e-06,2.39688461078913e-06,,,,,,,,,,,,,0.005,0.005745690315961838,-0.004814603365957737,-0.9962072968482971
1.204687119,2.691107147256844e-05,-2.470664730935823e-05,-0.004983033984899521,4.059178948523368e-08,-1.682944571257394e-06,-6.754626724614354e-07,,,,,,,,,,,,,0.005,0.005591063760221004,-0.004894156940281391,-0.996327817440033
1.209831953,2.755996865744237e-05,-2.414864320599008e-05,-0.004978634417057037,-2.68849407802918e-06,6.263921477511758e-06,2.261076815557317e-06,,,,,,,,,,,,,0.005,0.005558588076382875,-0.004832740407437086,-0.9960616230964661
1.214951992,2.920203951362055e-05,-2.176626730943099e-05,-0.004984726663678885,6.409199500012619e-07,3.375829464857816e-06,-1.54164206378482e-06,,,,,,,,,,,,,0.005,0.005659795831888914,-0.004628357011824846,-0.9964063763618469
1.220047593,2.662202496139798e-05,-2.05639298656024e-05,-0.0049735177308321,2.128079813701333e-06,-2.671436050150078e-06,-1.31086676447012e-06,,,,,,,,,,,,,0.005,0.005480980034917593,-0.00438731350004673,-0.9956586956977844
1.225118756,2.789301288430579e-05,-2.167947968700901e-05,-0.004985290579497814,-5.071003670309437e-07,1.876999590422201e-06,-6.096403808442119e-07,,,,,,,,,,,,,0.005,0.005529987625777721,-0.004349166061729193,-0.9963382482528687
1.230165720,2.44041184487287e-05,-2.485320510459132e-05,-0.0049803894944489,7.217362849587516e-07,5.529573172680102e-07,-3.683873501358903e-06,,,,,,,,,,,,,0.005,0.005250146612524986,-0.004645299632102251,-0.9961658120155334
1.235188484,2.699678952922113e-05,-1.930075268319342e-05,-0.004980315919965506,-2.650995156727731e-06,-2.912915078923106e-06,1.654331526879105e-06,,,,,,,,,,,,,0.005,0.005319013260304928,-0.004288158379495144,-0.9961493015289307
1.240186095,2.52962126978673e-05,-2.287065399286803e-05,-0.004984062630683184,3.182926320732804e-06,-2.51154074248916e-06,1.355612653242133e-06,,,,,,,,,,,,,0.005,0.005173739977180958,-0.004426897969096899,-0.9964367151260376
1.245160222,2.630183007568121e-05,-2.539139495638665e-05,-0.004973346367478371,-1.364246031698713e-06,-1.276444834275026e-07,1.050504693012044e-06,,,,,,,,,,,,,0.005,0.00521794380620122,-0.004717221949249506,-0.995652437210083
1.250109434,2.626372224767692e-05,-2.282894638483413e-05,-0.004985601641237736,-3.657950401247945e-06,-1.245744442712748e-06,-5.368654569792852e-07,,,,,,,,,,,,,0.005,0.005238400306552649,-0.004680402111262083,-0.9963251352310181
1.255040526,2.630216658872087e-05,-2.605700865387917e-05,-0.004972594324499369,1.469949893362354e-06,-5.243055966275278e-06,1.261279294340056e-06,,,,,,,,,,,,,0.005,0.0052652801387012,-0.004927382338792086,-0.9954680800437927
1.259948015,3.002025187015533e-05,-2.728987419686746e-05,-0.004976344294846058,-3.31374963025155e-08,3.386738399058231e-06,3.096721457040985e-06,,,,,,,,,,,,,0.005,0.005628878250718117,-0.005141918547451496,-0.9954324960708618
1.264832258,2.745537858572789e-05,-2.47492607741151e-05,-0.00498215900734067,-7.207145245047286e-07,5.894473815715173e-07,1.021015123114921e-06,,,,,,,,,,,,,0.005,0.005537951830774546,-0.005082925781607628,-0.9958198666572571
1.269692183,2.597514685476199e-05,-2.316686914127786e-05,-0.004975094925612211,-4.036703558085719e-07,-3.070473212574143e-06,-8.084275577857625e-07,,,,,,,,,,,,,0.005,0.005409810226410627,-0.004839010536670685,-0.9955006837844849
1.274528742,2.74037302006036e-05,-2.025561479968019e-05,-0.004985645413398743,-2.231313942502311e-07,-1.985866759923738e-07,2.590156100268359e-06,,,,,,,,,,,,,0.005,0.005452033597975969,-0.004500194452702999,-0.9962053894996643
1.279342055,2.724255136854481e-05,-2.393399699940346e-05,-0.004975911229848862,-2.424814340429293e-07,-1.791879071788571e-07,-1.068716301233508e-06,,,,,,,,,,,,,0.005,0.005436827428638935,-0.004650612827390432,-0.9957348704338074
1.284132361,2.677358861546963e-05,-2.273188329127152e-05,-0.004981490783393383,1.266383151232731e-06,5.277418040350312e-07,5.633679052152729e-07,,,,,,,,,,,,,0.005,0.005403494462370872,-0.004556222818791866,-0.9960166215896606
1.288898826,2.711461092985701e-05,-2.543054324632976e-05,-0.004979880526661873,3.836536961898673e-06,3.399869683562429e-06,-1.613607651052007e-06,,,,,,,,,,,,,0.005,0.005406320095062256,-0.004821035079658031,-0.9959465265274048
1.294142008,2.62830471911002e-05,-2.410265369690023e-05,-0.004976815544068813,-1.055002212524414e-05,1.28330657389597e-06,2.754697788986959e-06,,,,,,,,,,,,,0.005,0.005352705251425505,-0.004820529837161303,-0.9957396984100342
1.299360991,2.860052700270899e-05,-2.089030749630183e-05,-0.004980528727173805,-1.26663985966502e-08,-5.452214281831402e-06,3.646763843789813e-06,,,,,,,,,,,,,0.005,0.005521456710994244,-0.004539864603430033,-0.9958704113960266
1.304555058,3.052278771065176e-05,-2.153506648028269e-05,-0.004976649768650532,3.106324868440424e-07,-1.78980087639502e-06,4.849977699450392e-07,,,,,,,,,,,,,0.005,0.005793779157102108,-0.004462615121155977,-0.9956408739089966
1.309723616,3.014088179043029e-05,-2.156869049940724e-05,-0.004985890351235867,-5.796013056169613e-07,4.966390406480059e-06,1.664047772464983e-06,,,,,,,,,,,,,0.005,0.005887183360755444,-0.004377687815576792,-0.9963656663894653
1.314866662,2.898965976783074e-05,-2.549382043071091e-05,-0.004978071432560682,-5.808103651361307e-06,1.461748070141766e-06,1.34245669869415e-06,,,,,,,,,,,,,0.005,0.00581853836774826,-0.004707581363618374,-0.9960044622421265
1.319985151,2.637500256241765e-05,-2.520236012060195e-05,-0.004977965261787176,-1.056251790032547e-06,2.772610059764702e-06,1.703741304481809e-06,,,,,,,,,,,,,0.005,0.005609922576695681,-0.004830447491258383,-0.9959114193916321
1.325078249,2.639583181007765e-05,-2.468543971190229e-05,-0.004981901962310076,7.256032290570147e-07,-1.833727651501249e-06,-2.598893388494616e-06,,,,,,,,,,,,,0.005,0.005470520816743374,-0.00488161901012063,-0.9960978627204895
1.330145836,2.708517422433943e-05,-2.516904714866541e-05,-0.004976599477231503,2.034709723375272e-06,-5.373494218474661e-07,-1.938350351338158e-06,,,,,,,,,,,,,0.005,0.005444472655653954,-0.004933173302561045,-0.9957824945449829
1.335189462,2.761339419521391e-05,-2.107256477756891e-05,-0.004982321988791227,-5.224160872785433e-07,-1.502059376434772e-06,-1.592528406035854e-06,,,,,,,,,,,,,0.005,0.005471800919622183,-0.0046091522090137,-0.9960643649101257
1.340208411,2.611548734421376e-05,-2.251319892820902e-05,-0.004977804608643055,5.210155904933345e-06,2.821287807819317e-06,-1.03817160379549e-06,,,,,,,,,,,,,0.005,0.005379281006753445,-0.004542775452136993,-0.9958289861679077
1.345203161,2.820444933604449e-05,-2.27736309170723e-05,-0.004984129220247269,-5.70330769278371e-07,-1.917070221679751e-06,-3.960451522289077e-06,,,,,,,,,,,,,0.005,0.005494666285812855,-0.004561769310384989,-0.9963177442550659
1.350175023,2.595241494418588e-05,-2.455074354656972e-05,-0.004980538971722126,1.5195921605482e-06,1.617820430510619e-06,2.589314590295544e-06,,,,,,,,,,,,,0.005,0.00536755146458745,-0.004731394350528717,-0.9961289167404175
1.355122447,2.762406256806571e-05,-2.374645919189788e-05,-0.004976628348231316,-1.831797021623061e-06,1.475646058679558e-06,-1.999664647200916e-07,,,,,,,,,,,,,0.005,0.00545042147859931,-0.004728065803647041,-0.9958191514015198
1.360045314,2.86877948383335e-05,-2.535503699618857e-05,-0.00498404074460268,2.904208713516709e-06,-1.848613351285167e-07,4.411227564560249e-06,,,,,,,,,,,,,0.005,0.005570349283516407,-0.004904004745185375,-0.9962491989135742
1.364943862,2.714522815949749e-05,-2.563383714004885e-05,-0.00497723650187254,2.667284661583835e-06,1.023233267005708e-06,-5.512552888831124e-06,,,,,,,,,,,,,0.005,0.005517174024134874,-0.00502032320946455,-0.9958902597427368
1.369819164,3.139809268759564e-05,-2.247556039947085e-05,-0.004982791841030121,-3.480198984107119e-06,-1.209271545121737e-06,9.932984994520666e-07,,,,,,,,,,,,,0.005,0.005850236862897873,-0.004770797677338123,-0.9961984753608704
1.374670029,2.750669955275953e-05,-2.450698593747802e-05,-0.004979416728019714,1.752092430251651e-06,2.32091383622901e-06,-1.564162175782258e-06,,,,,,,,,,,,,0.005,0.005695220548659563,-0.004830110352486372,-0.9960430860519409
1.379497766,3.041958370886277e-05,-2.12063478102209e-05,-0.004980018362402916,3.086604010604788e-06,1.929579269699389e-07,4.749335289488954e-07,,,,,,,,,,,,,0.005,0.005858811549842358,-0.004538377281278372,-0.9960420727729797
1.384301782,2.959396260848735e-05,-2.128791675204411e-05,-0.004982190206646919,-1.247660520675709e-06,3.588614617910935e-06,-1.286139763578831e-06,,,,,,,,,,,,,0.005,0.005868745502084494,-0.00446804566308856,-0.9961844086647034
1.389082670,3.077472501900047e-05,-2.375732947257347e-05,-0.004976628348231316,-1.230351244885242e-06,4.065417726906162e-07,-1.739129743327794e-06,,,,,,,,,,,,,0.005,0.00602141534909606,-0.004573146346956491,-0.9958877563476562
1.393941522,2.553161721152719e-05,-2.017971746681724e-05,-0.004985644482076168,3.777617862965599e-08,2.226288643214502e-06,-1.500414015254137e-07,,,,,,,,,,,,,0.005,0.005609123036265373,-0.004402234219014645,-0.9963822364807129
1.399183154,2.685611980268732e-05,-2.492876228643581e-05,-0.004976170603185892,-2.747423195614829e-06,6.502690666820854e-06,8.884506428330496e-07,,,,,,,,,,,,,0.005,0.005528179928660393,-0.004663200117647648,-0.9958471059799194
1.404398799,2.684654828044586e-05,-2.314923040103167e-05,-0.00498235784471035,5.015993338020053e-06,-2.680420266187866e-06,2.804608357109828e-06,,,,,,,,,,,,,0.005,0.005458724219352007,-0.004616118967533112,-0.9961751103401184
1.409589529,2.803336246870458e-05,-2.326222056581173e-05,-0.004980401135981083,9.232542197423754e-08,1.657162556512048e-06,8.347943207809294e-07,,,,,,,,,,,,,0.005,0.005531173665076494,-0.004655772354453802,-0.9961032867431641
1.414755583,2.734887675615028e-05,-2.433054760331288e-05,-0.004984399303793907,-1.285912389903388e-06,-2.778245971057913e-06,-1.155162408394972e-06,,,,,,,,,,,,,0.005,0.005501581355929375,-0.004719629883766174,-0.9965012669563293
1.419899702,2.654717900441028e-05,-2.420269811409526e-05,-0.004985349252820015,-2.927902642113622e-06,-3.85294561056071e-06,3.543638968039886e-06,,,,,,,,,,,,,0.005,0.005397793371230364,-0.00480408500880003,-0.9966831207275391
1.425018311,2.514024163247086e-05,-2.387581116636284e-05,-0.00497050816193223,5.743201541008602e-07,2.343139158256236e-06,-1.670863753133744e-06,,,,,,,,,,,,,0.005,0.005237276665866375,-0.004780245944857597,-0.995514988899231
1.430112720,2.798010245896876e-05,-2.26424108404899e-05,-0.004980565048754215,-1.093397514750905e-07,2.150352884200402e-06,-1.388996917484064e-08,,,,,,,,,,,,,0.005,0.005389296915382147,-0.004675387870520353,-0.9958323836326599
1.435182333,2.749243867583573e-05,-2.467118792992551e-05,-0.004976782947778702,2.057574874925194e-07,9.556684972267249e-07,-1.208372623295872e-06,,,,,,,,,,,,,0.005,0.005450814962387085,-0.004800235852599144,-0.9955675005912781
1.440226793,2.909906470449641e-05,-2.461261647113133e-05,-0.004978571087121964,-1.754334903125709e-06,4.12674899052945e-06,1.631569148230483e-06,,,,,,,,,,,,,0.005,0.005605087149888277,-0.004853551276028156,-0.9956827163696289
1.445247173,3.109815952484496e-05,-2.267715899506584e-05,-0.004983115009963512,-2.666002274054335e-06,-4.270496560820902e-07,2.000918129851925e-06,,,,,,,,,,,,,0.005,0.00594101008027792,-0.004675040952861309,-0.9961357116699219
1.450244308,2.552493242546916e-05,-2.755005698418245e-05,-0.004985703621059656,1.65739947988186e-06,-8.822170229905169e-07,1.96225892068469e-06,,,,,,,,,,,,,0.005,0.005550028290599585,-0.005038594361394644,-0.996562659740448
1.455216408,2.817652057274245e-05,-2.271855737490114e-05,-0.004990439396351576,7.481091870431555e-07,-3.874709364026785e-06,2.385875632171519e-06,,,,,,,,,,,,,0.005,0.005616086535155773,-0.004817964509129524,-0.9972793459892273
1.460164905,2.241666697955225e-05,-2.531896461732686e-05,-0.004978596698492765,4.129985427425709e-06,-1.231055222206123e-07,-1.333801492364728e-06,,,,,,,,,,,,,0.005,0.005127412267029285,-0.004918978083878756,-0.9965215921401978
1.465088725,2.716327435337007e-05,-2.436106478853617e-05,-0.00497919600456953,6.62702575482399e-07,-3.002303401444806e-06,-1.190991838484479e-06,,,,,,,,,,,,,0.005,0.005295958369970322,-0.004862066823989153,-0.9962217807769775
1.469989657,2.561905967013445e-05,-2.46933450398501e-05,-0.004978126846253872,-3.390107849554624e-06,-1.877042677733698e-06,2.458360086166067e-06,,,,,,,,,,,,,0.005,0.005219249986112118,-0.004907610826194286,-0.9959297776222229
1.474866986,2.740877789619844e-05,-2.486049197614193e-05,-0.00497718807309866,-8.291395943160751e-07,1.959132760021021e-06,-1.072156464942964e-06,,,,,,,,,,,,,0.005,0.005343395285308361,-0.004947603680193424,-0.9957346320152283
1.479720473,2.675703944987617e-05,-2.243995550088584e-05,-0.004981887526810169,6.543530162161915e-07,-6.100597147451481e-07,-1.542322820569098e-06,,,,,,,,,,,,,0.005,0.005336683709174395,-0.004728819243609905,-0.9960203170776367
1.484550714,2.640134880493861e-05,-2.443662015139125e-05,-0.004978031851351261,2.137768433385645e-06,2.450490455885301e-06,-1.926645609273692e-06,,,,,,,,,,,,,0.005,0.00533245736733079,-0.004815580323338509,-0.9958263039588928
1.489357591,2.639553349581547e-05,-2.28545832214877e-05,-0.004980769008398056,3.521016878949013e-06,-2.34863819059683e-06,-9.394980224897154e-07,,,,,,,,,,,,,0.005,0.005251622293144464,-0.004674937110394239,-0.9960190057754517
1.494140625,2.441706419631373e-05,-2.367941124248318e-05,-0.004977997858077288,1.72876661963528e-06,-2.476185272826115e-06,-1.335844558525423e-06,,,,,,,,,,,,,0.005,0.005087911151349545,-0.004735338967293501,-0.9957613945007324
1.499001145,2.737246722972486e-05,-2.611680065456312e-05,-0.004977445583790541,-3.286193987150909e-06,-3.407058670745755e-07,-1.033976559483563e-06,,,,,,,,,,,,,0.005,0.00526121910661459,-0.004898247309029102,-0.9956908822059631
1.504240394,2.51488818321377e-05,-2.277731618960388e-05,-0.004985495936125517,-6.718986469422816e-07,2.126109620803618e-06,-3.490423594598724e-08,,,,,,,,,,,,,0.005,0.005162715446203947,-0.004771336913108826,-0.9963027834892273
1.509454370,2.87134935206268e-05,-2.794628016999923e-05,-0.004981257487088442,-8.618960691819666e-07,-4.076531695318408e-06,1.654905190662248e-06,,,,,,,,,,,,,0.005,0.005440316628664732,-0.005131186451762915,-0.9962789416313171
1.514644504,2.865408714569639e-05,-2.430098174954765e-05,-0.004984291270375252,-9.110578389481816e-07,1.381424226565287e-06,-1.206790102514788e-06,,,,,,,,,,,,,0.005,0.00554627925157547,-0.004990747198462486,-0.9965157508850098
1.519809842,2.602072345325723e-05,-2.566347393440083e-05,-0.004973367787897587,-1.601400981598999e-06,1.143503027378756e-06,3.44070315350109e-07,,,,,,,,,,,,,0.005,0.005389188881963491,-0.005061334930360317,-0.9956430196762085
1.524948955,2.794823922158685e-05,-1.997603430936579e-05,-0.004976944532245398,-2.090627504003351e-06,1.669648668212176e-06,-8.438649388153863e-07,,,,,,,,,,,,,0.005,0.005478961858898401,-0.004581212066113949,-0.9955710768699646
1.530063868,2.649914677022025e-05,-2.697069976420607e-05,-0.004981076810508966,-1.783974425961787e-06,-2.886048150685383e-06,3.582674253266305e-06,,,,,,,,,,,,,0.005,0.005405571311712265,-0.004992121830582619,-0.9957991242408752
1.535154462,2.982106525450945e-05,-2.497770583431702e-05,-0.004973926581442356,2.944315383501817e-06,-1.172686324935057e-06,1.165824059512488e-07,,,,,,,,,,,,,0.005,0.005659689661115408,-0.004957519471645355,-0.995380699634552
1.540221691,2.734447298280429e-05,-2.179006696678698e-05,-0.004986220505088568,-3.396446800252306e-06,3.640660679593566e-06,-1.380653088745021e-06,,,,,,,,,,,,,0.005,0.0055473861284554,-0.004698216449469328,-0.9962367415428162
1.545266151,2.479365139151923e-05,-2.353487798245624e-05,-0.004978775978088379,2.581792841738206e-06,-3.840817441869149e-07,9.55743786335006e-08,,,,,,,,,,,,,0.005,0.005256496835500002,-0.004700876772403717,-0.9959685802459717
1.550288916,2.97459373541642e-05,-2.081433376588393e-05,-0.004983146674931049,2.825568344633211e-06,2.710089574975427e-06,-1.254314156540204e-06,,,,,,,,,,,,,0.005,0.005563352722674608,-0.004446835722774267,-0.9962568879127502
1.555287242,2.643740117491689e-05,-2.454404602758586e-05,-0.004980062134563923,3.144702077406691e-06,3.25455312122358e-06,-8.478336326334102e-07,,,,,,,,,,,,,0.005,0.005431924015283585,-0.004656694829463959,-0.9961329102516174
1.560261369,2.639515150804073e-05,-2.443426456011366e-05,-0.004980515688657761,-3.582677436497761e-06,1.488410703132104e-06,1.697599572025865e-07,,,,,,,,,,,,,0.005,0.005377833265811205,-0.004770845174789429,-0.9961585998535156
1.565212131,2.814555227814708e-05,-2.165534897358157e-05,-0.004986276384443045,3.496807721603545e-06,-9.912707810144639e-07,1.227427333105879e-06,,,,,,,,,,,,,0.005,0.005471342708915472,-0.004570032004266977,-0.9966244101524353
1.570138574,2.859675441868603e-05,-2.267821037094109e-05,-0.004975358955562115,-3.492012638162123e-06,-2.63652577814355e-06,-1.285341795664863e-06,,,,,,,,,,,,,0.005,0.005588027648627758,-0.004565142095088959,-0.995980978012085
1.575042009,2.62774065049598e-05,-2.274966391269118e-05,-0.004984983243048191,-2.452780790918041e-06,3.345357299622265e-06,-3.996004238615569e-07,,,,,,,,,,,,,0.005,0.005442957393825054,-0.004530495032668114,-0.9964320659637451
1.579921365,2.73745881713694e-05,-2.516931635909714e-05,-0.004980521276593208,-2.544897370171384e-06,1.635448398928929e-07,-1.134384106649122e-07,,,,,,,,,,,,,0.005,0.005443633068352938,-0.004769236780703068,-0.9962946772575378
1.584777713,2.848189978976734e-05,-2.164486431865953e-05,-0.004982731305062771,-5.644171324092895e-06,-8.851305892676464e-07,9.749184215479545e-08,,,,,,,,,,,,,0.005,0.005565551109611988,-0.004546002484858036,-0.9964234828948975
1.589610219,2.845143535523675e-05,-1.928524216054939e-05,-0.004978938493877649,-3.040003775822697e-06,4.972909209755016e-06,-9.4600898137287e-07,,,,,,,,,,,,,0.005,0.005643320269882679,-0.00426833750680089,-0.9960883259773254
1.594419718,2.958324694191106e-05,-2.667763874342199e-05,-0.004972474649548531,1.709340949673788e-06,2.016171038121684e-06,-2.239407649540226e-06,,,,,,,,,,,,,0.005,0.005756997037678957,-0.004733311012387276,-0.9954429268836975
1.599206686,2.970350760733709e-05,-2.158101233362686e-05,-0.004980986937880516,-1.140404833677167e-06,-2.46353835109403e-07,-5.180596872378374e-06,,,,,,,,,,,,,0.005,0.005836791824549437,-0.004572903737425804,-0.9958065748214722
1.604070902,3.032386484846938e-05,-2.570614378782921e-05,-0.004975360818207264,3.901378420323454e-08,-1.171727717519389e-06,9.527540214548935e-07,,,,,,,,,,,,,0.005,0.00591565016657114,-0.004813996143639088,-0.9954735636711121
1.609306931,2.583388413768262e-05,-2.424239573883824e-05,-0.004983119200915098,-3.218922756786924e-06,-2.646005214046454e-06,2.187145355492248e-06,,,,,,,,,,,,,0.005,0.005582784302532673,-0.004844246432185173,-0.9960397481918335
1.614517808,2.660394056874793e-05,-2.515591404517181e-05,-0.004981466569006443,2.776764858936076e-06,-1.25436224607256e-06,7.380203896900639e-07,,,,,,,,,,,,,0.005,0.005500925239175558,-0.004949450958520174,-0.9960772395133972
1.619703054,2.606021735118702e-05,-2.377356759097893e-05,-0.004979906138032675,-2.64228151536372e-06,-3.673898447686952e-07,1.02038097793411e-06,,,,,,,,,,,,,0.005,0.005362670868635178,-0.004863687790930271,-0.9960771203041077
1.624862671,2.558422602305654e-05,-2.297857645316981e-05,-0.00498589314520359,-4.121084657526808e-06,1.444829081265198e-06,-1.207929472002434e-06,,,,,,,,,,,,,0.005,0.005241164937615395,-0.004713395144790411,-0.9965325593948364
1.629998088,2.500885784684215e-05,-2.477961606928147e-05,-0.004977334756404161,4.921761046716711e-06,-4.798891950485995e-07,-4.352929408923956e-06,,,,,,,,,,,,,0.005,0.005123231559991837,-0.00484670652076602,-0.9960992336273193
1.635111690,2.499905349395704e-05,-2.605067857075483e-05,-0.004983427468687296,-2.036729483734234e-06,-9.639556708407326e-08,1.630902033866732e-06,,,,,,,,,,,,,0.005,0.005076776724308729,-0.005025777965784073,-0.9963425993919373
1.640200973,2.791632505250163e-05,-2.445183781674132e-05,-0.00497322715818882,1.011289896268863e-06,-4.376466222311137e-06,-2.413209585938603e-06,,,,,,,,,,,,,0.005,0.005290679167956114,-0.004958390723913908,-0.9955825805664062
1.645264864,2.792448140098713e-05,-2.341741310374346e-05,-0.004981810692697763,-3.041555146410246e-06,-1.671375002842979e-06,-2.757331685643294e-06,,,,,,,,,,,,,0.005,0.005423173308372498,-0.004809152334928513,-0.9959507584571838
1.650305033,2.748196311586071e-05,-2.59957250818843e-05,-0.004981437232345343,-5.14236717208405e-07,-4.819062723981915e-06,9.715360960171893e-08,,,,,,,,,,,,,0.005,0.005439066328108311,-0.00498405983671546,-0.9960672855377197
1.655320048,2.905615838244557e-05,-2.423115074634552e-05,-0.004978565033525229,-1.867166361080308e-06,-2.9801519758621e-06,5.141818064657855e-07,,,,,,,,,,,,,0.005,0.005611353553831577,-0.004934634547680616,-0.9959275722503662
1.660310984,2.552785372245125e-05,-2.453895649523474e-05,-0.004986783489584923,2.291259079356678e-06,5.785070698038908e-07,3.467112605903822e-07,,,,,,,,,,,,,0.005,0.005364225246012211,-0.004906132351607084,-0.9965806603431702
1.665278435,2.555307582952082e-05,-2.249043427582365e-05,-0.004979357589036226,-1.854205834206368e-06,1.72708655554743e-06,2.178216931270072e-07,,,,,,,,,,,,,0.005,0.005251022521406412,-0.004743847995996475,-0.9962195754051208
1.670221090,2.62633493548492e-05,-2.294361911481246e-05,-0.004984499420970678,-2.125884293491254e-06,1.198179006678401e-06,-1.687573899289418e-06,,,,,,,,,,,,,0.005,0.005249913781881332,-0.004676570184528828,-0.9965676069259644
1.675139785,2.762429539870936e-05,-2.322405634913594e-05,-0.00497728306800127,3.810525186054292e-06,4.456407623365521e-06,3.346912080814946e-06,,,,,,,,,,,,,0.005,0.005393260158598423,-0.004684984683990479,-0.9960120916366577
1.680034518,2.873341691156384e-05,-2.631657480378635e-05,-0.004975680727511644,-1.458789370190061e-06,-2.746583959378768e-06,1.209430479320872e-06,,,,,,,,,,,,,0.005,0.005552784539759159,-0.004918168764561415,-0.995671808719635
1.684906244,2.759212657110766e-05,-2.19623907469213e-05,-0.004984290339052677,5.878432602912653e-06,-1.260431758964842e-06,-2.638172134084016e-07,,,,,,,,,,,,,0.005,0.005496814846992493,-0.004704150836914778,-0.9961793422698975
1.689754844,2.735905945883133e-05,-2.55492705036886e-05,-0.00497862696647644,3.093581426583114e-06,-6.147649401100352e-06,-4.722695905456931e-07,,,,,,,,,,,,,0.005,0.00545323034748435,-0.004869518801569939,-0.9959709644317627
1.694579482,2.702249366848264e-05,-2.460709583829157e-05,-0.004984532482922077,1.428450786988833e-06,-4.812858605873771e-06,2.250405032100389e-06,,,,,,,,,,,,,0.005,0.00544474134221673,-0.004835029132664204,-0.9964016079902649
1.699381232,2.693473652470857e-05,-2.180796946049668e-05,-0.004980676807463169,2.269457581860479e-06,-5.080399887447129e-07,-8.314265187436831e-08,,,,,,,,,,,,,0.005,0.005408650729805231,-0.00461367703974247,-0.9962720274925232
1.704159021,2.768468402791768e-05,-2.234808926004916e-05,-0.004981749691069126,2.782095407383167e-06,6.919681254657917e-07,8.765241545916069e-07,,,,,,,,,,,,,0.005,0.005469101015478373,-0.004518722184002399,-0.9963604211807251
1.709013462,2.420469900243916e-05,-2.101344580296427e-05,-0.004983683582395315,5.980123773952073e-07,-3.838885618279164e-07,-1.185155952043715e-06,,,,,,,,,,,,,0.005,0.005217524245381355,-0.004379271995276213,-0.9964938759803772
1.714243531,2.51725286943838e-05,-2.230003337899689e-05,-0.004974778741598129,-1.909999582494493e-06,9.307545383308025e-07,-2.36547180065827e-06,,,,,,,,,,,,,0.005,0.005131020210683346,-0.004399206023663282,-0.995842456817627
1.719449401,2.789284189930186e-05,-2.355516335228458e-05,-0.004981928505003452,-1.537658022243704e-06,-2.748567567323335e-06,-3.537201109793386e-06,,,,,,,,,,,,,0.005,0.005341191310435534,-0.004541901405900717,-0.9961006641387939
1.724629283,2.566714647400659e-05,-2.508356919861399e-05,-0.00497935526072979,-7.860892310418421e-07,-2.313587174285203e-06,-2.613614469737513e-06,,,,,,,,,,,,,0.005,0.005195940379053354,-0.00477569317445159,-0.9960114359855652
1.729783773,2.801379378070123e-05,-2.555065839260351e-05,-0.004981159698218107,-1.002544195216615e-06,8.879550819074211e-07,-5.948778181164016e-08,,,,,,,,,,,,,0.005,0.005404783878475428,-0.004885213449597359,-0.9961111545562744
1.734915376,2.599199615360703e-05,-2.451405089232139e-05,-0.004982693120837212,-4.337781263075158e-07,-1.043602424033452e-06,2.381015747232595e-06,,,,,,,,,,,,,0.005,0.005298797506839037,-0.004899154882878065,-0.996242344379425
1.740022063,2.835317900462542e-05,-2.339434286113828e-05,-0.004981752950698137,1.513392930974078e-06,1.424120455340017e-06,-1.559478505441803e-06,,,,,,,,,,,,,0.005,0.00547241885215044,-0.004801748786121607,-0.9962916374206543
1.745103836,2.872363620554097e-05,-2.106186184391845e-05,-0.004983644001185894,2.020900922161672e-07,1.658438804952311e-06,-2.087627990476904e-07,,,,,,,,,,,,,0.005,0.00555729353800416,-0.004520786926150322,-0.9964604377746582
1.750161648,2.668603156052995e-05,-2.404709084657952e-05,-0.004979754332453012,-5.970516212983057e-06,-1.293602849727904e-06,2.400915491307387e-06,,,,,,,,,,,,,0.005,0.005446169059723616,-0.004666424356400967,-0.9962459206581116
1.755195856,2.829727236530744e-05,-2.593372119008563e-05,-0.004986021667718887,-1.534179546069936e-06,-2.683548245840939e-07,2.185617631766945e-06,,,,,,,,,,,,,0.005,0.005546247120946646,-0.004894816782325506,-0.9966532588005066
1.760206580,2.690063047339208e-05,-2.584076355560683e-05,-0.004977393429726362,-4.657160843635211e-06,-9.471586395193299e-07,-5.192613116378197e-06,,,,,,,,,,,,,0.005,0.005476545542478561,-0.005035389680415392,-0.9961094260215759
1.765193224,2.964569648611359e-05,-2.285823575221002e-05,-0.004976075142621994,-3.457166712905746e-06,3.236870043110684e-06,-1.566853256917966e-06,,,,,,,,,,,,,0.005,0.005673267878592014,-0.004838927648961544,-0.9957460165023804
1.770155787,2.737943214015104e-05,-2.197344110754784e-05,-0.004980128258466721,-1.428272071279935e-06,2.560909479143447e-06,-2.303823066540645e-06,,,,,,,,,,,,,0.005,0.005563616752624512,-0.004650669172406197,-0.9958418607711792
1.775094986,2.765371755231172e-05,-2.29087563639041e-05,-0.004976529162377119,-1.764293074302259e-06,-8.494599228470179e-07,-2.04162915906636e-07,,,,,,,,,,,,,0.005,0.00558959785848856,-0.00460862135514617,-0.9956312775611877
1.780009747,2.999265961989295e-05,-2.291178861923981e-05,-0.004980351775884628,1.076484679174428e-07,4.725980943476316e-06,-2.871150002192735e-07,,,,,,,,,,,,,0.005,0.005765453912317753,-0.004567676689475775,-0.9958763122558594
1.784901381,2.808123099384829e-05,-2.049945760518312e-05,-0.004981574602425098,-6.776677423658839e-07,1.347868419543374e-06,-5.703008696400502e-07,,,,,,,,,,,,,0.005,0.005715234205126762,-0.004335487261414528,-0.9960418343544006
1.789770961,2.458853487041779e-05,-2.358060737606138e-05,-0.004983967635780573,-4.798447207576828e-06,3.705708195411717e-06,-3.119812390650623e-06,,,,,,,,,,,,,0.005,0.005379028618335724,-0.004517295863479376,-0.9964343309402466
1.794617057,2.840362139977515e-05,-2.393062277405988e-05,-0.004985998384654522,1.616589770492283e-06,3.481552312223357e-06,-2.175809186155675e-06,,,,,,,,,,,,,0.005,0.005540210288017988,-0.00466600339859724,-0.9967572093009949
1.799441695,2.613292781461496e-05,-2.494107684469782e-05,-0.00497580086812377,-4.371907834865851e-06,-8.020858217605564e-07,-3.004684458574047e-06,,,,,,,,,,,,,0.005,0.005390739999711514,-0.004777864087373018,-0.9960421323776245
1.804250598,2.683924685698003e-05,-2.178707654820755e-05,-0.004981528967618942,3.981341706094099e-06,-1.013365704238822e-06,-8.105091069410264e-07,,,,,,,,,,,,,0.005,0.005382727831602097,-0.004610578063875437,-0.9961611032485962
1.809036255,2.79682226391742e-05,-2.267273157485761e-05,-0.004974259063601494,8.510466500410985e-07,-4.047277798235882e-06,-3.35128589767919e-07,,,,,,,,,,,,,0.005,0.005473448894917965,-0.004536607302725315,-0.9955978989601135
1.813995242,2.655811840668321e-05,-2.380947444180492e-05,-0.004980294033885002,6.430509529309347e-07,3.769403065234656e-06,1.015623411149136e-06,,,,,,,,,,,,,0.005,0.005402475129812956,-0.004644045140594244,-0.9958315491676331
1.819223285,2.523956936784089e-05,-2.306959504494444e-05,-0.004980980418622494,1.814173700154242e-08,6.217495410965057e-06,2.348947191421757e-06,,,,,,,,,,,,,0.005,0.005250556394457817,-0.004650583025068045,-0.9959682822227478
1.824427485,2.573908932390623e-05,-2.239487184851896e-05,-0.004979023709893227,5.312199391482864e-06,2.254366108900285e-06,4.12544466144027e-07,,,,,,,,,,,,,0.005,0.005187719129025936,-0.004580467008054256,-0.995941698551178
1.829606652,2.572550511104055e-05,-2.306825808773283e-05,-0.004984227474778891,1.633961346669821e-06,-9.522906907477591e-07,-2.037470267168828e-06,,,,,,,,,,,,,0.005,0.005176200531423092,-0.004604572895914316,-0.9963240027427673
1.834760666,2.630815288284793e-05,-2.434580164845102e-05,-0.004976966418325901,-3.224825150027755e-06,-2.470231038387283e-06,2.334300290840474e-07,,,,,,,,,,,,,0.005,0.005212664138525724,-0.004720594733953476,-0.995927631855011
1.839889646,2.837469583027996e-05,-2.46794443228282e-05,-0.004986063577234745,-2.116632686011144e-06,9.696373126644175e-07,-5.188130813849057e-08,,,,,,,,,,,,,0.005,0.005403048824518919,-0.004813364241272211,-0.9964821338653564
1.844994307,2.674078677955549e-05,-2.474004577379674e-05,-0.004983554594218731,1.937090019055177e-06,-2.123280864907429e-06,2.579488636911265e-06,,,,,,,,,,,,,0.005,0.00534710893407464,-0.004863541573286057,-0.9965854287147522
1.850073814,2.724320074776188e-05,-2.44494676735485e-05,-0.00498393177986145,-5.29822364114807e-06,-1.628839186196274e-06,-4.558323212222604e-07,,,,,,,,,,,,,0.005,0.005407816730439663,-0.004862749483436346,-0.9967224597930908
1.855129123,2.766568104561884e-05,-2.044672874035314e-05,-0.00498221255838871,3.147863026242703e-06,-2.756420371952117e-06,-2.240628646177356e-06,,,,,,,,,,,,,0.005,0.005453502293676138,-0.004468592349439859,-0.9965704083442688
1.860160708,2.787600169540383e-05,-2.272431265737396e-05,-0.004975576885044575,2.316570544280694e-06,-7.434675808326574e-07,-4.643164785989029e-08,,,,,,,,,,,,,0.005,0.005532186944037676,-0.004527777899056673,-0.9959100484848022
1.865166903,2.965931525977794e-05,-2.274550934089348e-05,-0.004981817677617073,-3.160454525641399e-06,-8.719882771401899e-07,1.113152279685892e-06,,,,,,,,,,,,,0.005,0.005717865657061338,-0.004532173275947571,-0.9960880279541016
1.870149612,2.696438423299696e-05,-2.635475721035618e-05,-0.004973664414137602,1.162006924460002e-06,-4.167107363173272e-06,-1.115618601943424e-06,,,,,,,,,,,,,0.005,0.005570594687014818,-0.004866677802056074,-0.9954499006271362
1.875107288,2.26864740398014e-05,-2.393640352238435e-05,-0.004982600919902325,1.539334220979072e-06,7.560428912256612e-06,-2.941465311323554e-07,,,,,,,,,,,,,0.005,0.005129153840243816,-0.004809130914509296,-0.9959396719932556
1.880050898,2.353220770601183e-05,-2.124129969161004e-05,-0.004978606011718512,3.848664618999464e-06,-6.696690206808853e-07,1.418003535036405e-06,,,,,,,,,,,,,0.005,0.004918543621897697,-0.004590651020407677,-0.9958282113075256
1.884970784,2.643933839863166e-05,-2.395613046246581e-05,-0.00497955409809947,-7.16222587016091e-07,4.035426570681011e-07,-7.661452059437579e-07,,,,,,,,,,,,,0.005,0.005120475310832262,-0.004628528375178576,-0.9959264397621155
1.889866471,2.395983210590202e-05,-2.310014679096639e-05,-0.0049838712438941,2.048517671937589e-06,2.259398797832546e-06,1.544126121189038e-06,,,,,,,,,,,,,0.005,0.005009457468986511,-0.004612630233168602,-0.9963002800941467
1.894738436,2.681900878087617e-05,-2.488835343683604e-05,-0.004981157369911671,-1.794472268557001e-07,3.852956524497131e-06,-1.518161411695473e-06,,,,,,,,,,,,,0.005,0.005135687068104744,-0.004754971247166395,-0.9962506294250488
1.899587631,2.816619235090911e-05,-1.87218829523772e-05,-0.004985001869499683,1.436421257494658e-06,-2.418413259874796e-06,1.362108491775871e-06,,,,,,,,,,,,,0.005,0.005359814036637545,-0.004278979729861021,-0.9965702295303345
1.904413223,2.83466542896349e-05,-2.355638207518496e-05,-0.00498003838583827,7.833810400370567e-07,-1.82437770490651e-06,-2.019629846472526e-06,,,,,,,,,,,,,0.005,0.005506430752575397,-0.004525093827396631,-0.9962766170501709
1.909215212,2.85300502582686e-05,-2.483676507836208e-05,-0.004978687036782503,3.60022909262625e-06,-6.201921223691897e-06,-5.663102911057649e-07,,,,,,,,,,,,,0.005,0.00559435086324811,-0.004694176372140646,-0.9960856437683105
1.913993955,2.784865682770032e-05,-2.214958658441901e-05,-0.004983615130186081,-2.681323394426727e-06,4.51173809778993e-06,-1.200416818392114e-06,,,,,,,,,,,,,0.005,0.005606975872069597,-0.004592349752783775,-0.9963263273239136
1.919045687,2.852120451279916e-05,-2.473211497999728e-05,-0.004978158976882696,-2.621688736326178e-06,2.26974592010265e-07,1.718226144475921e-06,,,,,,,,,,,,,0.005,0.005656540859490633,-0.004741737153381109,-0.9960732460021973
1.924270391,2.982966725539882e-05,-2.060127008007839e-05,-0.004985162988305092,8.476605017904149e-08,-9.676846275397111e-07,1.710991114123317e-06,,,,,,,,,,,,,0.005,0.005805704742670059,-0.00445450795814395,-0.9964866638183594
1.929469228,2.595816113171168e-05,-2.183158358093351e-05,-0.004978593438863754,7.359157621067425e-07,5.934171440458158e-06,-2.106495003317832e-06,,,,,,,,,,,,,0.005,0.005474090110510588,-0.004386565648019314,-0.9961125254631042
1.934642911,3.475931589491665e-05,-2.356436016270891e-05,-0.004967226646840572,-9.524153028905857e-06,8.660862249598722e-07,-1.352583467451041e-06,,,,,,,,,,,,,0.005,0.006177781149744987,-0.004353238269686699,-0.9957308769226074
1.939792395,2.470484832883812e-05,-2.803021925501525e-05,-0.004995365161448717,7.629620995430741e-06,3.509785884148187e-08,-3.092703309448552e-06,,,,,,,,,,,,,0.005,0.005688856821507215,-0.005092793144285679,-0.9969134926795959
1.944918752,4.435795563040301e-05,-4.086330227437429e-05,-0.004923033528029919,-1.15109360194765e-05,1.437712285223824e-06,-1.073119960892654e-06,,,,,,,,,,,,,0.005,0.007316263392567635,-0.006422304082661867,-0.9905756711959839
1.950020313,9.478093488723971e-06,-1.578270166646689e-05,-0.005071045830845833,1.579697891429532e-05,1.411203129464411e-06,3.972926606365945e-06,,,,,,,,,,,,,0.005,0.005078446585685015,-0.005405492149293423,-1.000086069107056
1.955096841,1.904149758047424e-05,-3.874788671964779e-05,-0.004961298778653145,-1.149338231698493e-06,-3.619977405833197e-06,-9.528958457849512e-07,,,,,,,,,,,,,0.005,0.004349820781499147,-0.006460112053900957,-0.9965183138847351
1.960149050,2.459862844261806e-05,-1.689582131803036e-05,-0.004947829991579056,-1.558333678985946e-05,-1.217453814206237e-06,-1.667533865656878e-06,,,,,,,,,,,,,0.005,0.004484984092414379,-0.004930196329951286,-0.9933689832687378
1.965176344,3.415743776713498e-05,-1.096301457437221e-05,-0.004980088211596012,1.162554144684691e-05,2.931042786258331e-07,-2.357595292323822e-07,,,,,,,,,,,,,0.005,0.005320533644407988,-0.003943342249840498,-0.9942344427108765
1.970180631,2.973030859720893e-05,-3.378779365448281e-05,-0.004985133185982704,1.13981286631315e-06,8.631748187326593e-07,4.54626206192188e-06,,,,,,,,,,,,,0.005,0.005580955184996128,-0.005132998805493116,-0.9957447052001953
1.975160599,2.472422238497529e-05,-2.254004721180536e-05,-0.00498869875445962,4.747792445414234e-06,3.225581394872279e-06,9.722965614855639e-07,,,,,,,,,,,,,0.005,0.005236146040260792,-0.004860960878431797,-0.9963976144790649
1.980116725,2.702436722756829e-05,-1.967531716218218e-05,-0.004958778619766235,3.513058345561149e-06,4.821424681722419e-06,-2.869224317691987e-06,,,,,,,,,,,,,0.005,0.005256955977529287,-0.004387273453176022,-0.9944561123847961
1.985048294,2.56203711614944e-05,-2.643650623213034e-05,-0.004984091967344284,4.054614237247733e-06,1.654899506320362e-06,-1.388523145351428e-07,,,,,,,,,,,,,0.005,0.005260693840682507,-0.004809442441910505,-0.9953981041908264
1.989956379,2.908976239268668e-05,-1.94423791981535e-05,-0.005019131116569042,-4.098219505976886e-06,3.184999059158145e-06,-3.163333531119861e-06,,,,,,,,,,,,,0.005,0.005458671599626541,-0.004420083947479725,-0.9990730285644531
1.994840622,2.868364390451461e-05,-2.515388223400805e-05,-0.004969121422618628,-1.166509719041642e-06,-7.162057045206893e-07,-8.599060379310686e-07,,,,,,,,,,,,,0.005,0.005465972702950239,-0.004580915439873934,-0.9968330860137939
1.999702215,2.177543501602486e-05,-2.099978155456483e-05,-0.00496091740205884,-3.188469918313785e-06,5.569139602812356e-07,5.014330213271023e-07,,,,,,,,,,,,,0.005,0.004964818246662617,-0.004410598892718554,-0.9947599768638611
2.004540443,2.758821210591123e-05,-2.291016789968126e-05,-0.004973173141479492,9.56219764702837e-07,-1.750109731801786e-06,-2.866811882995535e-06,,,,,,,,,,,,,0.005,0.005214001517742872,-0.004490555729717016,-0.9948378205299377
2.009355068,3.018850293301512e-05,-2.67216055362951e-05,-0.005003208760172129,9.589978162694024e-07,-3.16127079713624e-06,-1.585491872901912e-06,,,,,,,,,,,,,0.005,0.005595736671239138,-0.004891315475106239,-0.9973942637443542
2.014145851,2.76306254818337e-05,-2.590302210592199e-05,-0.004975371528416872,-2.266611772938631e-06,9.982904884964228e-07,-2.451398813718697e-06,,,,,,,,,,,,,0.005,0.005557601805776358,-0.005002130288630724,-0.9961280226707458
2.018913746,2.769790626189206e-05,-1.842025449150242e-05,-0.004964300896972418,-4.851835910812952e-06,2.578790827101329e-06,-1.772061324345486e-07,,,,,,,,,,,,,0.005,0.005587606225162745,-0.004402122460305691,-0.9946959614753723
2.024060726,2.887643495341763e-05,-1.875404268503189e-05,-0.004982372280210257,4.321447704569437e-06,5.910013101129152e-07,-1.326516553490364e-06,,,,,,,,,,,,,0.005,0.005681418813765049,-0.004164809826761484,-0.9955503344535828
2.029283047,3.008334533660673e-05,-2.879407293221448e-05,-0.004990444518625736,2.137110186595237e-06,-1.802604970180255e-06,-1.054086510521302e-06,,,,,,,,,,,,,0.005,0.005817627999931574,-0.004826577845960855,-0.9967169165611267
2.034479856,2.698764546948951e-05,-2.388711254752707e-05,-0.004988044966012239,-3.737422730409889e-06,-1.524727508694923e-06,1.857492293311225e-06,,,,,,,,,,,,,0.005,0.005619028117507696,-0.004833004903048277,-0.9970836043357849
2.039652109,2.704117832763586e-05,-2.37823769566603e-05,-0.004975715652108192,-2.58645263784274e-06,1.89959746421664e-06,-3.488003130769357e-07,,,,,,,,,,,,,0.005,0.005519940052181482,-0.004760389216244221,-0.9962540864944458
2.044799089,2.652439070516266e-05,-2.370756192249246e-05,-0.004982816986739635,3.647342055046465e-07,1.379105356136279e-06,1.04868911421363e-06,,,,,,,,,,,,,0.005,0.005419011693447828,-0.004793382249772549,-0.9964331984519958
2.049922705,2.755191235337406e-05,-2.370912625337951e-05,-0.00498109357431531,-1.427482175131445e-06,-1.295956508329255e-06,-7.053716331029136e-07,,,,,,,,,,,,,0.005,0.005451495293527842,-0.004728836007416248,-0.9962961673736572
2.055021763,2.642714389367029e-05,-2.311898606421892e-05,-0.004973173141479492,8.984561077340913e-07,3.978391021064454e-07,2.728485469560837e-06,,,,,,,,,,,,,0.005,0.005360952112823725,-0.004671179223805666,-0.9955946207046509
2.060095787,2.840484012267552e-05,-2.144665631931275e-05,-0.004971552640199661,-2.434374891890911e-06,-6.191474312799983e-06,-2.224698391728452e-06,,,,,,,,,,,,,0.005,0.005511950701475143,-0.004532113205641508,-0.9950109124183655
2.065145254,2.576772385509685e-05,-2.549228520365432e-05,-0.004982255399227142,4.629477643902646e-06,2.084888848230548e-07,-4.071253201232139e-08,,,,,,,,,,,,,0.005,0.005306973122060299,-0.004810594953596592,-0.9957178831100464
2.070169687,2.838684486050624e-05,-2.62379580817651e-05,-0.004990439396351576,-1.988533085750532e-06,-2.26434599426284e-06,-4.066887413500808e-07,,,,,,,,,,,,,0.005,0.005467075388878584,-0.004999349825084209,-0.9967683553695679
2.075170517,2.440794014546555e-05,-2.258298263768665e-05,-0.004976574331521988,-3.746824859263143e-06,1.506194735156896e-06,3.197177193214884e-06,,,,,,,,,,,,,0.005,0.005191884469240904,-0.004752668086439371,-0.9960601925849915
2.080147505,2.548372685851064e-05,-1.743591928971e-05,-0.004982945043593645,-5.49050264453399e-06,4.472149157663807e-06,4.731485660158796e-06,,,,,,,,,,,,,0.005,0.005148303229361773,-0.004184614401310682,-0.9963262677192688
2.085099697,2.803450661303941e-05,-2.074056283163372e-05,-0.004981720354408026,6.306581326498417e-06,-5.174857051315485e-06,-6.796383189566768e-08,,,,,,,,,,,,,0.005,0.005346586462110281,-0.004205592907965183,-0.9963095784187317
2.090027809,2.640781895024702e-05,-2.135692193405703e-05,-0.00498257065191865,7.42871520742483e-07,2.246423719043378e-06,1.08742392512795e-06,,,,,,,,,,,,,0.005,0.005323029588907957,-0.004222294315695763,-0.9964163303375244
2.094932079,2.933625728473999e-05,-2.613649121485651e-05,-0.0049793915823102,-7.69720145399333e-07,2.882982926166733e-06,-1.314722794631962e-06,,,,,,,,,,,,,0.005,0.005526080261915922,-0.00472286669537425,-0.9961422085762024
2.099811792,2.567701631051023e-05,-2.384811159572564e-05,-0.00497751496732235,-3.669459829325206e-06,-1.606831006029097e-06,2.042240794253303e-06,,,,,,,,,,,,,0.005,0.00537006976082921,-0.004708222113549709,-0.9958705306053162
2.104669809,2.615961420815438e-05,-2.464411591063254e-05,-0.004987338092178106,3.171427067627519e-07,-7.33165506972e-06,1.872767938948527e-06,,,,,,,,,,,,,0.005,0.005325245205312967,-0.004811197053641081,-0.9966201186180115
2.109503508,2.755881723714992e-05,-2.503938958398066e-05,-0.004979946184903383,-4.180423729849281e-06,-5.538017376238713e-06,-1.024271568894619e-06,,,,,,,,,,,,,0.005,0.005375211592763662,-0.004896159283816814,-0.9962612986564636
2.114314079,2.418729127384722e-05,-2.017396400333382e-05,-0.004979962948709726,-5.738529011978244e-07,-2.168563014492975e-06,-1.030132239066006e-06,,,,,,,,,,,,,0.005,0.005131472367793322,-0.004496400244534016,-0.9961825609207153
2.119100571,2.426256105536595e-05,-2.434096313663758e-05,-0.004979100544005632,4.600458396453178e-06,1.85380804396118e-06,5.712215170206036e-06,,,,,,,,,,,,,0.005,0.005040566902607679,-0.004649732261896133,-0.9960228800773621
2.123864889,2.816190317389555e-05,-2.206593308073934e-05,-0.004984021186828613,6.483516244770726e-06,-1.388373789268371e-06,-1.615403107280144e-06,,,,,,,,,,,,,0.005,0.0053058504126966,-0.004549045581370592,-0.9963592886924744
2.129109859,3.033682332898024e-05,-2.096755815728102e-05,-0.004983723163604736,-1.066678578354185e-06,9.00131851722108e-07,5.203602313486044e-07,,,,,,,,,,,,,0.005,0.005690938327461481,-0.004384490195661783,-0.996563732624054
2.134329319,2.550829594838433e-05,-2.420143209747039e-05,-0.004977595061063766,3.583463694667444e-06,-1.533107820250734e-06,2.1957002900308e-06,,,,,,,,,,,,,0.005,0.005432487931102514,-0.004595939069986343,-0.9960525631904602
2.139524937,2.377003693254665e-05,-2.466270598233677e-05,-0.004978576209396124,5.050563231634442e-06,1.725092033666442e-06,6.711067271680804e-06,,,,,,,,,,,,,0.005,0.00513164047151804,-0.004777796100825071,-0.9959328174591064
2.144694805,2.513577419449575e-05,-2.302070424775593e-05,-0.004981547128409147,6.76728006965277e-07,1.212858137478179e-06,-1.761206476658117e-06,,,,,,,,,,,,,0.005,0.005107195116579533,-0.004663461819291115,-0.9960871934890747
2.149839401,2.870199932658579e-05,-2.142099219781812e-05,-0.004984564613550901,3.248696202717838e-06,3.728831416083267e-06,-3.531226866471115e-07,,,,,,,,,,,,,0.005,0.005385937169194221,-0.004494243301451206,-0.9964688420295715
2.154958963,2.568555646575987e-05,-2.203373151132837e-05,-0.004981736186891794,6.639018010901054e-07,-1.898666823763051e-06,4.014022579212906e-06,,,,,,,,,,,,,0.005,0.005233300384134054,-0.004432488698512316,-0.9964093565940857
2.160053492,2.603446046123281e-05,-2.317050893907435e-05,-0.004981271922588348,3.968007717958244e-07,3.486241894279374e-06,1.399941993440734e-06,,,,,,,,,,,,,0.005,0.005254045128822327,-0.004533285275101662,-0.9963573813438416
2.165124893,3.230222864658572e-05,-2.455690992064774e-05,-0.004984240978956223,3.729668378582573e-06,1.523348032606009e-06,-1.321062200076994e-06,,,,,,,,,,,,,0.005,0.005807033739984035,-0.004685998894274235,-0.9965611100196838
2.170176268,2.920658698712941e-05,-2.113122900482267e-05,-0.004981208592653275,-4.936510322295362e-06,-6.10476217843825e-06,2.906245981648681e-07,,,,,,,,,,,,,0.005,0.00578760914504528,-0.004501080606132746,-0.9964045286178589
2.175206661,2.508902980480343e-05,-2.271711127832532e-05,-0.004973442293703556,1.584910819474317e-06,-2.448985014780192e-06,-3.586821549106389e-06,,,,,,,,,,,,,0.005,0.005456500221043825,-0.004515450913459063,-0.9956260919570923
2.180212021,2.855913953681011e-05,-2.209953345300164e-05,-0.00498246680945158,-8.751881068747025e-07,4.724071004602592e-06,1.786967345651647e-06,,,,,,,,,,,,,0.005,0.005593244917690754,-0.004522321745753288,-0.9960113167762756
2.185193777,2.683731145225465e-05,-2.856429819075856e-05,-0.004981447476893663,-2.058338623101008e-06,1.69900795299327e-06,7.851297567640358e-08,,,,,,,,,,,,,0.005,0.005498448386788368,-0.005054388660937548,-0.9961357712745667
2.190150976,2.608941940707155e-05,-2.636217686813325e-05,-0.004982405342161655,4.327305305196205e-06,1.861430746430415e-06,3.409111968721845e-06,,,,,,,,,,,,,0.005,0.005382477771490812,-0.005135542713105679,-0.9962956309318542
2.195084572,2.772630796243902e-05,-2.292422686878126e-05,-0.004981736652553082,2.471245181823178e-07,1.562641728014569e-06,-6.246484076655179e-07,,,,,,,,,,,,,0.005,0.005444938316941261,-0.004913093522191048,-0.9963226318359375
2.199994564,2.615709126985166e-05,-2.767030309769325e-05,-0.00497637502849102,2.210691008031063e-07,1.318130102845316e-06,-2.69422184828727e-06,,,,,,,,,,,,,0.005,0.005362608470022678,-0.005132856778800488,-0.9958392977714539
2.204880238,2.815143852785695e-05,-2.434296766296029e-05,-0.00498020788654685,5.794554454041645e-07,-1.216285681948648e-06,-5.97507721522561e-07,,,,,,,,,,,,,0.005,0.005490229465067387,-0.005003210622817278,-0.9958821535110474
2.209742546,2.68698058789596e-05,-2.341757863177918e-05,-0.004978949204087257,5.264560513751348e-06,3.250862846471136e-06,-1.845872247940861e-06,,,,,,,,,,,,,0.005,0.005461523309350014,-0.004830112215131521,-0.9958568215370178
2.214580774,2.595142359496094e-05,-2.397404205112252e-05,-0.004982491955161095,1.348076125395892e-06,1.145492888099398e-06,-8.827911983644299e-07,,,,,,,,,,,,,0.005,0.005312171299010515,-0.00478870514780283,-0.9961397051811218
2.219396114,3.191153155057691e-05,-2.147023042198271e-05,-0.004983063787221909,2.196225523221074e-06,4.480269581108587e-06,1.573385361552937e-06,,,,,,,,,,,,,0.005,0.005782830994576216,-0.004583877976983786,-0.9963405132293701
2.224188566,2.802999188133981e-05,-1.995156344491988e-05,-0.004983461927622557,-2.856402829820581e-07,1.812308141779795e-06,2.739019919317798e-06,,,,,,,,,,,,,0.005,0.005681006703525782,-0.004302334971725941,-0.9964816570281982
2.228958607,2.5898307285388e-05,-2.249399403808638e-05,-0.004978314507752657,-5.935891067565535e-07,9.688166073829052e-07,-5.96483914705459e-07,,,,,,,,,,,,,0.005,0.005473672412335873,-0.00437717093154788,-0.9961106181144714
2.234200239,2.746281825238839e-05,-2.78269981208723e-05,-0.004981531295925379,-4.871669148087676e-07,1.951238118635956e-06,3.316162917599286e-07,,,,,,,,,,,,,0.005,0.005477406550198793,-0.004868990741670132,-0.9961711168289185
2.239416599,2.614865843497682e-05,-2.147905979654752e-05,-0.00497862696647644,4.6004442992853e-06,2.196839204771095e-06,3.822094924998964e-07,,,,,,,,,,,,,0.005,0.005349522922188044,-0.004610626492649317,-0.9959853291511536
2.244606972,2.736980241024867e-05,-2.354634671064559e-05,-0.004980895668268204,2.19247090171848e-06,4.323496796132531e-07,-7.393106216113665e-07,,,,,,,,,,,,,0.005,0.005408708937466145,-0.004671350121498108,-0.9960619807243347
2.249773026,2.890565156121738e-05,-2.332759686396457e-05,-0.004982069600373507,-3.276379175076727e-06,2.158808229069109e-06,-1.008477397590468e-06,,,,,,,,,,,,,0.005,0.005569444969296455,-0.004677511285990477,-0.9962075352668762
2.254914284,2.612935168144759e-05,-2.284317088196985e-05,-0.004980431403964758,-3.615724040173518e-07,-1.973551434275578e-06,-2.55083841693704e-06,,,,,,,,,,,,,0.005,0.005397527944296598,-0.004606022033840418,-0.996147096157074
2.260030508,2.636812678247225e-05,-2.141345976269804e-05,-0.004981406964361668,2.402787458777311e-06,3.985277999163372e-06,-3.641195689851884e-06,,,,,,,,,,,,,0.005,0.005340302363038063,-0.004439307376742363,-0.9961879849433899
2.265121460,2.896869045798667e-05,-2.196643436036538e-05,-0.004980683326721191,3.202431571480702e-06,2.787943458315567e-06,1.766434479577583e-06,,,,,,,,,,,,,0.005,0.005566081497818232,-0.004426270723342896,-0.996188223361969
2.270188093,2.456450238241814e-05,-2.159486757591367e-05,-0.004982133395969868,4.03359138090309e-07,-4.273460945114493e-06,1.444826693841605e-06,,,,,,,,,,,,,0.005,0.005259828176349401,-0.004367438610643148,-0.9963026642799377
2.275230169,2.706263694562949e-05,-2.217665314674377e-05,-0.004979389719665051,6.374019108079665e-07,4.531530919393845e-07,9.663245919000474e-07,,,,,,,,,,,,,0.005,0.005330897402018309,-0.004413191229104996,-0.9960459470748901
2.280248880,2.619520637381356e-05,-2.253940510854591e-05,-0.004982471000403166,2.849634256563149e-06,1.919755050039385e-06,-8.97396091659175e-07,,,,,,,,,,,,,0.005,0.005289050284773111,-0.004482753574848175,-0.9962269067764282
2.285245657,2.834927727235481e-05,-2.368011155340355e-05,-0.004979079589247704,1.379816694679903e-06,-1.14082479285571e-06,-1.249990873475326e-06,,,,,,,,,,,,,0.005,0.005458242259919643,-0.004576756618916988,-0.9960827231407166
2.290219545,2.608676732052118e-05,-2.239675450255163e-05,-0.004980276338756084,3.881357770296745e-06,-1.807857756830344e-07,1.321239096796489e-06,,,,,,,,,,,,,0.005,0.005326062440872192,-0.004540435504168272,-0.9960591793060303
2.295169353,2.450103784212843e-05,-2.178307477151975e-05,-0.004972439259290695,-5.257411430648062e-06,-2.124101229128428e-06,2.93970515485853e-07,,,,,,,,,,,,,0.005,0.00513726007193327,-0.004474625922739506,-0.9953497052192688
2.300096035,2.653635419846978e-05,-2.237699300167151e-05,-0.004976038821041584,1.888091219370835e-06,-3.607212192946463e-06,-2.64198263266735e-07,,,,,,,,,,,,,0.005,0.005223365966230631,-0.004473786801099777,-0.9952937960624695
2.304999352,2.592248529253993e-05,-2.619748556753621e-05,-0.004984699189662933,-6.655376694197912e-08,-2.060402493953006e-06,-8.784983265286428e-07,,,,,,,,,,,,,0.005,0.00523032434284687,-0.004834001883864403,-0.9960717558860779
2.309878826,2.926068555098027e-05,-2.522938302718103e-05,-0.004986097104847431,-2.744332277870853e-06,3.940127442092489e-07,-3.899284820363391e-06,,,,,,,,,,,,,0.005,0.005490926560014486,-0.004925374872982502,-0.9965518712997437
2.314735413,2.603790562716313e-05,-2.151760418200865e-05,-0.004984872881323099,-6.146079613245092e-06,-2.833174335137301e-07,3.122511543551809e-06,,,,,,,,,,,,,0.005,0.005361897870898247,-0.004646179731935263,-0.9967230558395386
2.319568396,2.743930781434756e-05,-2.403981852694415e-05,-0.004980065859854221,-2.707482508412795e-06,-8.46336149606941e-07,-5.547098567149078e-07,,,,,,,,,,,,,0.005,0.005455272737890482,-0.004705159459263086,-0.9963608980178833
2.324378252,2.857377330656163e-05,-1.92884290299844e-05,-0.004979097284376621,1.928347472812675e-07,-1.105992055272509e-06,1.354175651613332e-06,,,,,,,,,,,,,0.005,0.005567818880081177,-0.004331749398261309,-0.9961439967155457
2.329164505,2.706334635149688e-05,-2.315211349923629e-05,-0.004977020435035229,2.79730016927715e-07,-2.93276980301016e-06,-1.5224393337121e-06,,,,,,,,,,,,,0.005,0.005504388362169266,-0.00445485208183527,-0.9958130717277527
2.334028244,2.925677108578384e-05,-2.397513526375405e-05,-0.004972421564161777,8.386349463762599e-07,2.091753458444146e-06,-3.503952029859647e-06,,,,,,,,,,,,,0.005,0.005649382714182138,-0.004646671004593372,-0.9951947331428528
2.339268684,3.029002255061641e-05,-2.448056147841271e-05,-0.004976450465619564,3.774380502363783e-06,-1.491291413913132e-06,-1.213728850757434e-08,,,,,,,,,,,,,0.005,0.005821764934808016,-0.004792706109583378,-0.9952552318572998
2.344483376,3.043124888790771e-05,-2.378845783823635e-05,-0.004980234429240227,2.311918024133774e-06,-1.734502575345687e-06,1.940230276886723e-06,,,,,,,,,,,,,0.005,0.005935113411396742,-0.004756604786962271,-0.9956099987030029
2.349672794,2.671342190296855e-05,-2.362216036999598e-05,-0.004982913378626108,1.559184056532104e-06,-4.158545380050782e-06,-1.311698952122242e-06,,,,,,,,,,,,,0.005,0.00566985784098506,-0.004729149397462606,-0.9960206151008606
2.354837418,2.811108424793929e-05,-2.334080272703432e-05,-0.004978259094059467,9.905849083224894e-07,-3.681392172438791e-06,-8.459487617074046e-07,,,,,,,,,,,,,0.005,0.005628032609820366,-0.004670464899390936,-0.9958192706108093
2.359976768,2.269152173539624e-05,-2.246606709377375e-05,-0.004979046992957592,1.740825155138737e-06,1.188136707241938e-06,4.447897481441032e-06,,,,,,,,,,,,,0.005,0.00512236962094903,-0.004586294293403625,-0.9958293437957764
2.365091562,2.65467278950382e-05,-2.534276245569345e-05,-0.004981618374586105,7.821309736755211e-06,-2.468442289682571e-06,-3.784931550399051e-07,,,,,,,,,,,,,0.005,0.005216812714934349,-0.004838398192077875,-0.9960083961486816
2.370182037,2.439145646349061e-05,-2.516857603040989e-05,-0.004981174599379301,-3.895459940395085e-06,4.737742983706994e-06,-8.759604384067643e-07,,,,,,,,,,,,,0.005,0.005061037372797728,-0.004915851168334484,-0.996107816696167
2.375247002,3.051908424822614e-05,-2.430919448670465e-05,-0.004979070741683245,-2.98787270480716e-08,3.308721829853312e-08,-2.198682068410562e-06,,,,,,,,,,,,,0.005,0.005551304668188095,-0.004893430974334478,-0.9959791898727417
2.380287647,2.795095497276634e-05,-2.559054337325506e-05,-0.004979084711521864,3.101392280768778e-07,1.397460209773271e-06,-1.099193696063594e-07,,,,,,,,,,,,,0.005,0.005520355887711048,-0.004972925875335932,-0.995933473110199
2.385303020,2.423911973892245e-05,-2.221101385657676e-05,-0.004977549891918898,-2.940309286714182e-06,2.404914312137407e-06,-9.226970405507018e-07,,,,,,,,,,,,,0.005,0.005203293170779943,-0.004727815743535757,-0.9957611560821533
2.390294790,2.468865750415716e-05,-2.551872057665605e-05,-0.00497895572334528,1.441979861738218e-06,9.059581884685031e-07,4.163929133937927e-06,,,,,,,,,,,,,0.005,0.00510344235226512,-0.004873227328062057,-0.9957475066184998
2.395262718,2.507641329430044e-05,-2.175042936869431e-05,-0.004981098230928183,-5.053885161032667e-06,-1.094721255867626e-07,-1.531955717837263e-06,,,,,,,,,,,,,0.005,0.005069136153906584,-0.00462688272818923,-0.9959784746170044
2.400206089,2.927117020590231e-05,-2.324597517144866e-05,-0.004984904546290636,3.380440602995805e-06,2.353638706154015e-07,1.234121924653664e-07,,,,,,,,,,,,,0.005,0.005443909671157598,-0.004642270039767027,-0.9964014291763306
2.405126095,2.89529070869321e-05,-2.756319008767605e-05,-0.004977432545274496,2.237550688732881e-06,1.54526969708968e-06,-4.276544586900854e-06,,,,,,,,,,,,,0.005,0.005610853433609009,-0.005039931740611792,-0.9959980845451355
2.410021544,2.458307426422834e-05,-2.167796264984645e-05,-0.004981085658073425,1.40386919156299e-06,3.86016381526133e-06,3.977189408033155e-06,,,,,,,,,,,,,0.005,0.005290262401103973,-0.004723510704934597,-0.9960941076278687
2.414893866,2.648323970788624e-05,-2.263029455207288e-05,-0.004982062615454197,-6.68863080477422e-08,-6.795274316573341e-07,3.170133368257666e-06,,,,,,,,,,,,,0.005,0.005312091205269098,-0.004668821580708027,-0.9962151646614075
2.419742107,2.585133734100964e-05,-2.207784200436436e-05,-0.004978140350431204,-1.738861783451284e-06,1.384714778396301e-06,1.140018184742075e-06,,,,,,,,,,,,,0.005,0.005241834092885256,-0.004560521803796291,-0.9959831237792969
2.424567223,2.620632221805863e-05,-2.60954984696582e-05,-0.004979287274181843,-2.221192517026793e-06,-6.638372724410146e-06,8.049307211877021e-07,,,,,,,,,,,,,0.005,0.005273477174341679,-0.004865224007517099,-0.9958763718605042
2.429368973,2.580384534667246e-05,-2.340145329071674e-05,-0.004979868419468403,3.214933940398623e-06,5.240742666501319e-07,7.041476806080027e-07,,,,,,,,,,,,,0.005,0.005229050293564796,-0.004784815944731236,-0.9959343075752258
2.434147358,2.692728594411165e-05,-2.307243812538218e-05,-0.004983693361282349,5.075945409771521e-06,8.116917342704255e-07,4.672035061048518e-07,,,,,,,,,,,,,0.005,0.005306129809468985,-0.004718679003417492,-0.9963372349739075
2.439004183,2.676235817489214e-05,-2.427145591354929e-05,-0.004979412537068129,1.172883116851153e-06,-1.242149778590829e-06,-1.073866314982297e-06,,,,,,,,,,,,,0.005,0.005322777200490236,-0.004749812185764313,-0.9960886836051941
2.444241762,2.918070276791696e-05,-2.271375524287578e-05,-0.004977277480065823,-4.20774495069054e-06,-3.681280986711499e-06,2.406213980066241e-06,,,,,,,,,,,,,0.005,0.005563509650528431,-0.004664525389671326,-0.9958305358886719
2.449453831,2.744235280260909e-05,-2.394624971202575e-05,-0.004983490332961082,7.118607072698069e-07,3.857535830320558e-06,-3.697403826663503e-06,,,,,,,,,,,,,0.005,0.005530905444175005,-0.004711313173174858,-0.996224045753479
2.454640627,2.76568389381282e-05,-2.276329723827075e-05,-0.004981348756700754,-3.382873501323047e-06,2.235676902273553e-06,-2.187679456255864e-06,,,,,,,,,,,,,0.005,0.005492762196809053,-0.004631467629224062,-0.9962583780288696
2.459802866,2.446131293254439e-05,-2.064757791231386e-05,-0.004982120357453823,4.550419362203684e-06,-5.19617469763034e-06,9.006184313875565e-07,,,,,,,,,,,,,0.005,0.005224540829658508,-0.004405851475894451,-0.9962949156761169
2.464939594,2.751744614215568e-05,-2.29197339649545e-05,-0.004971961956471205,2.175488361899625e-06,-1.083223992282001e-06,-3.647198354883585e-06,,,,,,,,,,,,,0.005,0.005332044791430235,-0.004463457502424717,-0.9953969717025757
2.470051765,2.646771099534817e-05,-2.355873220949434e-05,-0.004980765748769045,2.046252944865046e-07,3.036049292859389e-06,8.422142627750873e-07,,,,,,,,,,,,,0.005,0.005304389633238316,-0.004584926180541515,-0.9957711100578308
2.475141525,2.608400245662779e-05,-2.365569162066095e-05,-0.004981404170393944,1.479759248468326e-06,-1.550369688629871e-06,-9.59625253926788e-07,,,,,,,,,,,,,0.005,0.005284949671477079,-0.004636866506189108,-0.9959962368011475
2.480206490,2.815757034113631e-05,-2.046467852778733e-05,-0.004982762970030308,-1.460673615838459e-06,-2.041883107040121e-07,-6.062837769604812e-07,,,,,,,,,,,,,0.005,0.005419973284006119,-0.004365625325590372,-0.9962671399116516
2.485246658,2.600004518171772e-05,-2.359379323024768e-05,-0.004983716644346714,-1.353331185782736e-06,2.191498424508609e-06,3.620784809754696e-06,,,,,,,,,,,,,0.005,0.005317189265042543,-0.004560496658086777,-0.9964526295661926
2.490262032,2.70954697043635e-05,-2.558428059273865e-05,-0.004977456294000149,6.960128189348325e-07,-8.898803116608178e-07,-8.173454375537403e-07,,,,,,,,,,,,,0.005,0.005359827075153589,-0.004756002221256495,-0.9960212707519531
2.495254040,2.492294333933387e-05,-2.251305159006733e-05,-0.004983025137335062,-4.392711161926854e-06,-2.07201355806319e-06,2.121725401593721e-06,,,,,,,,,,,,,0.005,0.005205736961215734,-0.004669636487960815,-0.9962772130966187
2.500221252,2.845531344064511e-05,-2.440149910398759e-05,-0.004977473057806492,-1.643245582272357e-06,-6.62777722482133e-07,-2.083764456983772e-06,,,,,,,,,,,,,0.005,0.005458642262965441,-0.004765830002725124,-0.9959359169006348
2.505164623,2.954632327600848e-05,-2.145877078874037e-05,-0.00497780367732048,-3.639367378127645e-06,-9.922302268705607e-08,-2.907952421082882e-06,,,,,,,,,,,,,0.005,0.005632768385112286,-0.004531323444098234,-0.9958124756813049
2.510084629,2.769729871943127e-05,-2.262272028019652e-05,-0.004978101700544357,3.282990590491863e-08,3.273576567153214e-06,-2.734649342528428e-06,,,,,,,,,,,,,0.005,0.00557701475918293,-0.004551155958324671,-0.9957086443901062
2.514980078,2.940322519862093e-05,-2.374475661781617e-05,-0.00498122675344348,-3.379926056368276e-06,-1.167182858807791e-06,5.412097834778251e-06,,,,,,,,,,,,,0.005,0.00569869065657258,-0.004642116837203503,-0.9959583282470703
2.519852400,2.60653359873686e-05,-2.54326641879743e-05,-0.004984030500054359,-1.93067444342887e-06,-3.432494111166307e-07,-1.272910026273166e-07,,,,,,,,,,,,,0.005,0.005497557111084461,-0.004857427440583706,-0.9963709712028503
2.524700403,2.823276190611068e-05,-2.553533340687864e-05,-0.004979812540113926,1.65618246228405e-06,5.187545184526243e-07,-7.277673148564645e-07,,,,,,,,,,,,,0.005,0.005564001854509115,-0.004931619390845299,-0.9961355328559875
2.529525995,2.859178493963555e-05,-2.086430504277814e-05,-0.004984657745808363,-3.978214408562053e-06,9.36529158934718e-06,-2.028922523322763e-07,,,,,,,,,,,,,0.005,0.005630531813949347,-0.00456996588036418,-0.9965241551399231
2.534327984,2.82825312751811e-05,-2.360687540203799e-05,-0.004982857033610344,-3.672112825370277e-06,-1.724338574149442e-07,7.145628728721931e-07,,,,,,,,,,,,,0.005,0.005640811286866665,-0.004647684283554554,-0.9964897632598877
2.539106369,2.989510539919138e-05,-2.316908467037138e-05,-0.004981372505426407,1.218411284753529e-06,-1.12178520339512e-06,2.529964831410325e-06,,,,,,,,,,,,,0.005,0.005789055023342371,-0.004635543096810579,-0.9964133501052856
2.543962955,2.637295983731747e-05,-2.370226684433874e-05,-0.004982537589967251,-1.944722953339806e-06,-1.744476321619004e-06,-7.04923877492547e-07,,,,,,,,,,,,,0.005,0.005594882648438215,-0.004695222713053226,-0.9964473247528076
2.549197912,2.562856570875738e-05,-2.588844108686317e-05,-0.004974637646228075,-1.396188622493355e-06,3.54057851836842e-06,-1.367497475257551e-06,,,,,,,,,,,,,0.005,0.005375255830585957,-0.004907157272100449,-0.9957623481750488
2.554407597,2.59307271335274e-05,-2.145002326869871e-05,-0.004984988830983639,1.904831492538506e-06,-1.234578235198569e-06,9.275405545849935e-07,,,,,,,,,,,,,0.005,0.005283496808260679,-0.004632561001926661,-0.9963484406471252
2.559592962,2.72436245722929e-05,-2.079292971757241e-05,-0.004980391822755337,-2.342421652201665e-07,-1.984521077247337e-06,1.667207129685266e-06,,,,,,,,,,,,,0.005,0.005382880568504333,-0.004451921209692955,-0.9961960911750793
2.564752579,3.01466370729031e-05,-2.367217894061469e-05,-0.004977819509804249,-4.546792297333013e-06,-7.404760538065602e-08,-2.676331178008695e-06,,,,,,,,,,,,,0.005,0.005665132775902748,-0.004573224578052759,-0.9959186911582947
2.569887400,2.938127545348834e-05,-2.344079257454723e-05,-0.004980172496289015,-3.926033400603046e-07,1.913315145429806e-06,1.18257446501957e-07,,,,,,,,,,,,,0.005,0.005772212520241737,-0.004657884128391743,-0.9959716796875
2.574997187,3.008920430147555e-05,-2.332543408556376e-05,-0.004977292381227016,1.470935302450016e-07,3.354818090883782e-06,3.169663841617876e-06,,,,,,,,,,,,,0.005,0.005895898211747408,-0.00464499881491065,-0.99571692943573
2.580081463,2.783654417726211e-05,-1.871264612418599e-05,-0.0049849315546453,8.586910666963377e-07,1.627321353225852e-07,-1.786043753781996e-06,,,,,,,,,,,,,0.005,0.005769315641373396,-0.004272682592272758,-0.9963017106056213
2.585142612,2.693920214369427e-05,-2.085727464873344e-05,-0.004978414159268141,5.292374225973617e-06,-8.003460152394837e-07,1.064924163074465e-06,,,,,,,,,,,,,0.005,0.00557781895622611,-0.004260650835931301,-0.9959870576858521
2.590178967,2.318153019587044e-05,-2.384467552474234e-05,-0.004981165751814842,1.191282080981182e-06,8.367240411644161e-08,-4.612454063135374e-07,,,,,,,,,,,,,0.005,0.005150053184479475,-0.004479247145354748,-0.9961181879043579
