FILE_INFO
ListSeparator=,
DecimalSeparator=.

SESSION_INFO
TimeZone,UTC
TimeZoneOffset,0
DateTimeFormat,MM/DD/YY h:mm:ss.nnnnnnnnn
StartTime,01/01/70 00:00:00.000000000
TimeFormat,Relative

DEVICE_INFO
Address,*

CHANNEL_INFO
Channel,Type,SampleRate,Equation,Coefficients,Unit,UnitSymbol,WhereApplied,WhenApplied
inertial-6286.188861:scaledAccelX,Timeseries,200Hz,,,,,,
inertial-6286.188861:scaledAccelY,Timeseries,200Hz,,,,,,
inertial-6286.188861:scaledAccelZ,Timeseries,200Hz,,,,,,
inertial-6286.188861:deltaThetaX,Timeseries,200Hz,,,,,,
inertial-6286.188861:deltaThetaY,Timeseries,200Hz,,,,,,
inertial-6286.188861:deltaThetaZ,Timeseries,200Hz,,,,,,
inertial-6286.188861:deltaVelX,Timeseries,200Hz,,,,,,
inertial-6286.188861:deltaVelY,Timeseries,200Hz,,,,,,
inertial-6286.188861:deltaVelZ,Timeseries,200Hz,,,,,,
inertial-6286.188861:timeInfo_deltaTime_ahrsImu,Timeseries,200Hz,,,,,,
inertial-6286.188861:scaledMagX,Timeseries,200Hz,,,,,,
inertial-6286.188861:scaledMagY,Timeseries,200Hz,,,,,,
inertial-6286.188861:scaledMagZ,Timeseries,200Hz,,,,,,

DATA_START
Time,inertial-6286.188861:scaledAccelX,inertial-6286.188861:scaledAccelY,inertial-6286.188861:scaledAccelZ,inertial-6286.188861:deltaThetaX,inertial-6286.188861:deltaThetaY,inertial-6286.188861:deltaThetaZ,inertial-6286.188861:deltaVelX,inertial-6286.188861:deltaVelY,inertial-6286.188861:deltaVelZ,inertial-6286.188861:timeInfo_deltaTime_ahrsImu,inertial-6286.188861:scaledMagX,inertial-6286.188861:scaledMagY,inertial-6286.188861:scaledMagZ
0.000000000,0.003451872849836946,-0.005921470932662487,-0.9955559372901917,1.317271312473167e-06,-5.863821570528671e-07,-1.11600252239441e-06,1.728315874061082e-05,-3.117552842013538e-05,-0.004975663498044014,0.005,-0.001605425379239023,-0.3754863440990448,0.4946932196617126
0.005141760,0.003643502248451114,-0.00586546678096056,-0.9959280490875244,8.12992402643431e-06,7.3205328021686e-08,-1.80633008994846e-07,1.93011510418728e-05,-2.862960900529288e-05,-0.00498218135908246,0.005,-0.001221493585035205,-0.3757140934467316,0.4955658614635468
0.010259200,0.003840833669528365,-0.005941706243902445,-0.99582439661026,2.465219267833163e-06,3.965078121836996e-06,1.039159769788967e-06,1.998954758164473e-05,-2.99705243378412e-05,-0.004979089833796024,0.005,-0.001263767597265542,-0.3755278885364532,0.4961977899074554
0.015351296,0.003820179728791118,-0.006014548242092133,-0.9964969158172607,8.43382338189258e-07,-5.130558520249906e-07,1.091047124646138e-06,1.879828050732613e-05,-3.024211946467403e-05,-0.004985801875591278,0.005,-0.001298576476983726,-0.3755876421928406,0.4954032599925995
0.020422911,0.003644520882517099,-0.006218471098691225,-0.996239960193634,4.042815817228984e-06,-3.950024620280601e-06,3.022528005658387e-08,1.777915167622268e-05,-3.211537841707468e-05,-0.004980653990060091,0.005,-0.00121141888666898,-0.3760106563568115,0.4956026077270508
0.025469951,0.003452572273090482,-0.006441838108003139,-0.9958595037460327,-7.402811093015771e-07,2.33775745073217e-06,7.542284379269404e-07,1.607323065400124e-05,-3.372911305632442e-05,-0.004976118914783001,0.005,-0.001178246922791004,-0.3753138184547424,0.495696485042572
0.030492673,0.003719893749803305,-0.005923361517488956,-0.9961794018745422,5.567993071053934e-07,3.786767592828255e-07,-3.116206670483734e-08,2.027490154432599e-05,-2.634904012666084e-05,-0.004983159247785807,0.005,-0.001204181578941643,-0.3753661215305328,0.4956041276454926
0.035492353,0.003581492230296135,-0.006105985026806593,-0.9957555532455444,2.916919811468688e-06,-3.780808128794888e-07,3.02393146967006e-07,1.71592637343565e-05,-3.188358459738083e-05,-0.004976281896233559,0.005,-0.00112404057290405,-0.3756051063537598,0.4949855804443359
0.040467456,0.003623762866482139,-0.006121537648141384,-0.9963496327400208,-5.443467330223939e-07,2.871864126063883e-06,1.091855438062339e-06,1.820973557187244e-05,-3.094813655479811e-05,-0.004984954372048378,0.005,-0.001226405962370336,-0.3754100501537323,0.495329886674881
0.045419522,0.003624075558036566,-0.00631176121532917,-0.9962496161460876,3.780516863116645e-06,-1.753445417307375e-06,-2.186213805543957e-06,1.826124753279146e-05,-3.234068572055548e-05,-0.004981617908924818,0.005,-0.0008343157242052257,-0.3754484951496124,0.4954381883144379
0.050347775,0.00354051822796464,-0.006358727812767029,-0.9961419105529785,-3.854919668810908e-06,2.247690190415597e-06,3.002038511112914e-06,1.737470665830187e-05,-3.237984492443502e-05,-0.004979144781827927,0.005,-0.0007642117561772466,-0.3757286369800568,0.4948968887329102
0.055251714,0.003485064720734954,-0.006061241496354342,-0.9960289001464844,3.421208475629101e-06,-4.477320999285439e-06,-1.367676986774313e-06,1.735150181048084e-05,-2.824347939167637e-05,-0.004979635588824749,0.005,-0.001064000534825027,-0.3758445978164673,0.4953514933586121
0.060132608,0.003289796877652407,-0.006443308666348457,-0.9957382082939148,8.713357146916678e-07,4.224632448313059e-06,-5.114238774694968e-07,1.473039446864277e-05,-3.502795880194753e-05,-0.004976890049874783,0.005,-0.001202376559376717,-0.3756549656391144,0.4941111207008362
0.064990208,0.003491747425869107,-0.005979371257126331,-0.9963648915290833,3.172833885400905e-06,-5.599481482931878e-07,9.662088586992468e-07,1.878369221230969e-05,-2.698651769605931e-05,-0.004985331557691097,0.005,-0.001628330443054438,-0.375510185956955,0.4940064251422882
0.069824770,0.003717344719916582,-0.006305630318820477,-0.9959039092063904,-4.091874075129454e-07,-1.348803266409959e-06,1.444283952878322e-06,1.993306977965403e-05,-3.319713505334221e-05,-0.004977404605597258,0.005,-0.0014881492825225,-0.3757084906101227,0.4941346645355225
0.074636802,0.00372567237354815,-0.006273544393479824,-0.9960001111030579,-3.184127876920684e-07,1.065179958459339e-06,-3.705203198478557e-06,1.891932151920628e-05,-3.144894799333997e-05,-0.004979782272130251,0.005,-0.001746312482282519,-0.3755553066730499,0.4948943853378296
0.079761922,0.003456757636740804,-0.006228439975529909,-0.996647834777832,-1.218280317516474e-06,1.340701487606566e-06,-2.109419483531383e-06,1.548995896882843e-05,-2.992931513290387e-05,-0.004987694323062897,0.005,-0.001365530421026051,-0.3754225969314575,0.4935356378555298
0.084946685,0.003408380085602403,-0.006488892249763012,-0.9961510300636292,-3.809542704402702e-06,-7.978601956892817e-07,-3.205312395948567e-06,1.659116605878808e-05,-3.436515544308349e-05,-0.004977949894964695,0.005,-0.001293020555749536,-0.3759806752204895,0.4944156408309937
0.090106621,0.003533375216647983,-0.006032595410943031,-0.996319055557251,1.869676452770364e-06,-8.84541464074573e-07,3.89566878311598e-07,1.864612931967713e-05,-2.691323425096925e-05,-0.00498286122456193,0.005,-0.001338505884632468,-0.375850647687912,0.4942225515842438
0.095241986,0.003521932987496257,-0.006348034832626581,-0.9957618713378906,4.635062964553072e-07,-3.840943918476114e-07,-7.200854952316149e-07,1.769109076121822e-05,-3.382820432307199e-05,-0.004975555464625359,0.005,-0.001582419266924262,-0.3754234313964844,0.4950517416000366
0.100353025,0.003475174540653825,-0.006368554662913084,-0.9964817762374878,-2.529951416363474e-06,-8.375160405194038e-07,2.222006742158555e-06,1.694710408628453e-05,-3.191892756149173e-05,-0.004986052867025137,0.005,-0.001288593979552388,-0.3759822845458984,0.4939123690128326
0.105438463,0.003274028189480305,-0.006213830783963203,-0.9964882731437683,2.35691027228313e-06,-5.103560852148803e-06,2.983804279210744e-06,1.553599577164277e-05,-2.938020770670846e-05,-0.004983727354556322,0.005,-0.0008349663112312555,-0.3761248588562012,0.4949397146701813
0.110502653,0.003016773378476501,-0.006576292682439089,-0.9959354996681213,-3.799972091655945e-06,1.686614723439561e-06,1.691982902229938e-06,1.321583567914786e-05,-3.577521056286059e-05,-0.004975966177880764,0.005,-0.0008410557638853788,-0.3754300773143768,0.4943678379058838
0.115543038,0.003104621544480324,-0.006284893490374088,-0.9964624047279358,-1.945257963598124e-06,-9.930082569553633e-07,1.821930368350877e-06,1.633118154131807e-05,-2.955732998088934e-05,-0.004985409788787365,0.005,-0.001303120981901884,-0.3754978775978088,0.4953167140483856
0.120558590,0.003199101658537984,-0.006264062132686377,-0.9963559508323669,2.522273234717431e-06,3.69041777048551e-06,1.299421342082496e-06,1.654706829867791e-05,-3.097493026871234e-05,-0.004981513135135174,0.005,-0.000863602152094245,-0.3758429288864136,0.4949285387992859
0.125550598,0.003460975829511881,-0.005892495159059763,-0.9968665838241577,-2.953611783595989e-06,-2.395274805166991e-06,1.188809051200224e-06,1.905159479065333e-05,-2.732509346969891e-05,-0.004987469874322414,0.005,-0.001108687021769583,-0.3755446970462799,0.4960804283618927
0.130518779,0.003082267474383116,-0.005969882477074862,-0.9962955117225647,2.826791615007096e-06,-5.867922482138965e-06,3.466831685727811e-06,1.349886770185549e-05,-2.994073838635813e-05,-0.004978444427251816,0.005,-0.0009321877150796354,-0.3754428625106812,0.4950730800628662
0.135462657,0.003388477955013514,-0.005971631966531277,-0.9958343505859375,-4.826138592761708e-06,-9.667339639918282e-08,1.06809443423117e-06,1.865712692961097e-05,-2.992121335410047e-05,-0.004976160824298859,0.005,-0.001612634165212512,-0.3758814930915833,0.4958348870277405
0.140382975,0.003913018852472305,-0.005937025882303715,-0.9959453940391541,-4.68909860273925e-07,-2.64266373051214e-06,-9.26344625895581e-07,2.324955858057365e-05,-2.875559039239306e-05,-0.004980451427400112,0.005,-0.00108340778388083,-0.3761309087276459,0.4950791001319885
0.145279750,0.003772462718188763,-0.006311653181910515,-0.9953671097755432,1.459476948184601e-06,-3.388336381249246e-06,-1.794208515093487e-06,1.776781755324919e-05,-3.406898758839816e-05,-0.004973334260284901,0.005,-0.001394720864482224,-0.3756754994392395,0.4956660270690918
0.150152698,0.003918004222214222,-0.006195525638759136,-0.9961284399032593,6.373715564222948e-07,-2.602220092740026e-06,-2.210574763239492e-07,2.065321496047545e-05,-3.033352913917042e-05,-0.004984877072274685,0.005,-0.0006628187256865203,-0.3757985830307007,0.4946208000183105
0.155002117,0.003811900038272142,-0.006015627179294825,-0.9958532452583313,1.692025080046733e-07,3.756996420634096e-06,-2.822479927999666e-06,1.862048520706594e-05,-2.854812737496104e-05,-0.004977652337402105,0.005,-0.0008538614492863417,-0.3759631812572479,0.4959129095077515
0.159828484,0.003798434045165777,-0.005944838747382164,-0.9960755705833435,3.874049809837743e-07,6.705183295707684e-06,-4.874904675489233e-07,1.854732363426592e-05,-2.959595076390542e-05,-0.004981469828635454,0.005,-0.0003111152909696102,-0.3759185075759888,0.4944604337215424
0.164632067,0.003789697773754597,-0.005663629621267319,-0.9960792064666748,-2.185445509894635e-06,-1.362516513836454e-06,8.562930702282756e-07,1.895834247989114e-05,-2.581786066002678e-05,-0.004980845842510462,0.005,-0.0009014412644319236,-0.3754865229129791,0.4954068660736084
0.169833988,0.003518735989928246,-0.006039727013558149,-0.995675802230835,-6.470629614341306e-06,1.435891761047969e-07,3.032847416761797e-06,1.618573514861055e-05,-3.318305607535876e-05,-0.004975860007107258,0.005,-0.0008833809988573194,-0.3760227859020233,0.4941125214099884
0.175010815,0.003452637232840061,-0.005875216796994209,-0.9961814880371094,-6.495914561810423e-08,-6.904551241859735e-07,-3.310436511583248e-07,1.694154161668848e-05,-2.842731555574574e-05,-0.004983766004443169,0.005,-0.001092030783183873,-0.3753741383552551,0.4959598183631897
0.180164099,0.003536686301231384,-0.006200958508998156,-0.9955085515975952,1.704169108052156e-06,-8.354822398359829e-07,-8.500764465679822e-07,1.807779699447565e-05,-3.264710903749801e-05,-0.004973969422280788,0.005,-0.001220541074872017,-0.3754710853099823,0.494696170091629
0.185293049,0.003869284177199006,-0.005898050963878632,-0.9959393739700317,-1.401262125000358e-06,-6.033516086745294e-08,2.56418911703804e-06,2.111942558258306e-05,-2.805535405059345e-05,-0.004982227459549904,0.005,-0.000785502721555531,-0.3753948509693146,0.4942596554756165
0.190396935,0.00362299382686615,-0.005849979817867279,-0.995794951915741,2.669145260369987e-06,-4.078007805219386e-06,1.292541469410935e-06,1.668293771217577e-05,-2.826046329573728e-05,-0.004978431854397058,0.005,-0.0005454098572954535,-0.3753276169300079,0.495176762342453
0.195475966,0.003964903298765421,-0.006042423192411661,-0.9956286549568176,-2.022111630139989e-06,-3.220224471078836e-06,6.488764938694658e-07,2.159811992896721e-05,-3.157389437546954e-05,-0.004976994823664427,0.005,-0.001004839548841119,-0.3748614192008972,0.4951568245887756
0.200530425,0.003718189895153046,-0.006055516190826893,-0.9963723421096802,-1.485823304392397e-06,7.418838663397764e-07,9.305554726779519e-07,1.704190981399734e-05,-3.00209503620863e-05,-0.0049867182970047,0.005,-0.0006292572943493724,-0.3752696514129639,0.4939129650592804
0.205561340,0.003520496655255556,-0.006292187143117189,-0.9960596561431885,1.518968133495946e-06,-3.340564262543921e-06,-3.263001644882024e-06,1.646814052946866e-05,-3.305761492811143e-05,-0.004978119395673275,0.005,-0.000922796840313822,-0.3755298852920532,0.4948906302452087
0.210572541,0.003635312896221876,-0.006093790289014578,-0.9968051910400391,7.636759278284444e-07,5.212418585642808e-08,6.611103913201077e-07,1.832146335800644e-05,-2.977740405185614e-05,-0.004988700151443481,0.005,-0.0005596209084615111,-0.3749568164348602,0.4942241013050079
0.215559423,0.003417665604501963,-0.006403778679668903,-0.9962809085845947,6.20794526184909e-06,3.340015155117726e-06,-1.29410852878209e-06,1.596798756509088e-05,-3.353708598297089e-05,-0.00497906468808651,0.005,-0.0009436819818802178,-0.3754471242427826,0.4938131868839264
0.220523268,0.003496151883155107,-0.006153167225420475,-0.9961237907409668,2.114803692165879e-06,-1.123735387409397e-06,-2.256087100249715e-06,1.777275792846922e-05,-2.956383286800701e-05,-0.00497914757579565,0.005,-0.0007768694777041674,-0.3761774003505707,0.494005560874939
0.225462779,0.003715518163517118,-0.006136439274996519,-0.9961999654769897,-7.598766842420446e-07,-2.566384409874445e-06,7.010118565631274e-07,1.99262285605073e-05,-3.052122337976471e-05,-0.00498200161382556,0.005,-0.001022018492221832,-0.3759997189044952,0.4950741231441498
0.230378240,0.003869220614433289,-0.006193394772708416,-0.9956454038619995,3.81035761165549e-06,4.129581565592844e-09,3.522212637108169e-06,2.041018888121471e-05,-3.120885594398715e-05,-0.004974567797034979,0.005,-0.0009947975631803274,-0.3759475350379944,0.4950611591339111
0.235270143,0.003677814733237028,-0.00582077307626605,-0.9961839914321899,2.021030923060607e-06,4.135566086915787e-06,1.663541524976608e-06,1.752974094415549e-05,-2.73928017122671e-05,-0.004983822349458933,0.005,-0.001163329812698066,-0.3760986924171448,0.4949212074279785
0.240138754,0.003813889576122165,-0.006326363421976566,-0.995637834072113,5.819058060296811e-06,-9.687054216556135e-07,9.884728342512972e-07,1.977882311621215e-05,-3.421548899495974e-05,-0.00497541856020689,0.005,-0.0005487386952154338,-0.37589430809021,0.4950936138629913
0.244983554,0.003943903371691704,-0.005675363354384899,-0.9961729645729065,3.783025874781742e-07,2.66245979219093e-06,-3.291132088634185e-06,2.046062945737503e-05,-2.467030753905419e-05,-0.004983776248991489,0.005,-0.0008524534641765058,-0.3755059838294983,0.4956691861152649
0.249804795,0.003795288503170013,-0.006054538767784834,-0.9964312314987183,2.520014731999254e-06,1.363622104122442e-08,-9.905794939868429e-08,1.820355464587919e-05,-3.239908983232453e-05,-0.004984534345567226,0.005,-0.001090243807993829,-0.3757973313331604,0.4955769181251526
0.254686981,0.003814765485003591,-0.00643721129745245,-0.995938241481781,1.221229126713297e-06,8.604808954260079e-07,-4.603652996593155e-06,1.904072269098833e-05,-3.420544817345217e-05,-0.004976148251444101,0.005,-0.001529164263047278,-0.3756887912750244,0.4957959949970245
0.259881467,0.003895354690030217,-0.006062808912247419,-0.9962277412414551,-2.064389263978228e-06,-2.219332372987992e-06,-4.445724499646531e-08,1.983728725463152e-05,-2.829612094501499e-05,-0.004982988350093365,0.005,-0.001505856984294951,-0.3755384683609009,0.4954739809036255
0.265050113,0.004033859819173813,-0.00656895712018013,-0.9956191182136536,5.517781573871616e-06,-4.86302315039211e-06,-1.249359797839134e-06,2.084043626382481e-05,-3.643559466581792e-05,-0.004974404349923134,0.005,-0.001326803583651781,-0.3754865527153015,0.4953322410583496
0.270194441,0.003705596784129739,-0.006434597540646791,-0.9958832859992981,-2.595245121028711e-07,1.370222889818251e-06,-1.012214511320053e-06,1.698619962553494e-05,-3.118650784017518e-05,-0.004980317782610655,0.005,-0.0009048777283169329,-0.3758215010166168,0.4950501918792725
0.275314420,0.003591598011553288,-0.006262199021875858,-0.9954997897148132,2.342180323466891e-06,-5.420978936854226e-07,-1.576789543378254e-07,1.759003680490423e-05,-3.010246291523799e-05,-0.004975622519850731,0.005,-0.001271481858566403,-0.3757384121417999,0.4958130717277527
0.280411392,0.003472351236268878,-0.00618007080629468,-0.9956323504447937,1.019218984765757e-06,-2.499172978787101e-06,2.734076360866311e-06,1.633949250390287e-05,-3.033959728782065e-05,-0.004978191573172808,0.005,-0.001033227541483939,-0.3757838904857635,0.4959740936756134
0.285484046,0.003347732126712799,-0.005638360977172852,-0.9960781931877136,6.591763849428389e-06,-4.804259788215859e-06,8.396097541663039e-07,1.610308027011342e-05,-2.472252162988298e-05,-0.004983527585864067,0.005,-0.0008842860697768629,-0.376378059387207,0.4953005611896515
0.290532857,0.00310983695089817,-0.005898570641875267,-0.9959745407104492,-1.033783519233111e-06,3.486895820969949e-06,-7.415206368932559e-07,1.405226976203267e-05,-3.108046075794846e-05,-0.0049787862226367,0.005,-0.001335072331130505,-0.3762986660003662,0.4958090484142303
0.295556873,0.003359212540090084,-0.006004372145980597,-0.99643474817276,1.426335956011826e-07,-2.517199618523591e-06,2.165483465432771e-06,1.830195833463222e-05,-3.119297252851538e-05,-0.00498510617762804,0.005,-0.001943110022693872,-0.3757254481315613,0.4959326684474945
0.300556540,0.003618329530581832,-0.006140131503343582,-0.9960146546363831,3.080388751186547e-06,-4.290527158445911e-06,2.774134372884873e-06,2.020500505750533e-05,-3.11591211357154e-05,-0.004977955482900143,0.005,-0.002102083526551723,-0.3758552968502045,0.495119720697403
0.305533171,0.003570463508367538,-0.006137281656265259,-0.9961844682693481,-4.83206440549111e-06,1.846458644649829e-06,2.90735374619544e-06,1.726625487208366e-05,-3.121864938293584e-05,-0.004981156904250383,0.005,-0.001631987281143665,-0.3764379322528839,0.4950125217437744
0.310485750,0.003788706380873919,-0.005930949933826923,-0.9964966773986816,4.924375502923795e-07,-3.385750005691079e-06,-5.32495050720172e-07,1.994106423808262e-05,-2.791843326122034e-05,-0.004984850063920021,0.005,-0.001282267854548991,-0.3757917582988739,0.4947967827320099
0.315414280,0.003699661465361714,-0.006336657796055079,-0.9963966608047485,8.351719884558406e-07,-3.703957190737128e-06,-4.88300429424271e-07,1.823652746679727e-05,-3.401720823603682e-05,-0.004980784375220537,0.005,-0.0009053332032635808,-0.3758875727653503,0.4942305982112885
0.320319235,0.003710739547386765,-0.005783581174910069,-0.9970079660415649,-3.268874479545048e-06,3.765839892366785e-06,1.287208192479738e-06,1.870277810667176e-05,-2.618196594994515e-05,-0.004989155102521181,0.005,-0.0007463232614099979,-0.3760744035243988,0.4943422675132751
0.325200140,0.003387771314010024,-0.006496307905763388,-0.9962891936302185,1.256868358723295e-06,-2.326120466022985e-06,2.629827804412344e-06,1.481374874856556e-05,-3.703735637827776e-05,-0.004977739881724119,0.005,-0.0008446948486380279,-0.3759433329105377,0.4938927888870239
0.330058247,0.003566162427887321,-0.005638506263494492,-0.9961909055709839,-4.518840796663426e-06,-6.469228424066387e-07,1.985583367059007e-06,1.872077336884104e-05,-2.308012699359097e-05,-0.004979949910193682,0.005,-0.001409635646268725,-0.3756963312625885,0.4947292804718018
0.334893316,0.003701490350067616,-0.005945572629570961,-0.9959543943405151,-1.543163762107724e-06,-2.375875965299201e-06,5.785593657492427e-07,1.903719021356665e-05,-3.149412077618763e-05,-0.004978913813829422,0.005,-0.0005323390942066908,-0.3759613335132599,0.4942263662815094
0.339704573,0.003724436042830348,-0.006096003577113152,-0.9958427548408508,-4.965037533111172e-06,-1.071566657628864e-06,-1.375621081933787e-06,1.826638799684588e-05,-3.139041291433387e-05,-0.004978095181286335,0.005,-0.0005522695137187839,-0.3759492933750153,0.4952125549316406
0.344662517,0.003849511733278632,-0.005979503504931927,-0.9958456754684448,-9.896810979626025e-07,-1.107865841731837e-06,2.941298816949711e-06,2.000105814659037e-05,-2.9427268600557e-05,-0.004979610443115234,0.005,-0.0008192178793251514,-0.3757548034191132,0.4947342574596405
0.349850357,0.003749736584722996,-0.0063033327460289,-0.9958773255348206,-6.440410516006523e-07,-4.135986728215357e-06,-3.484227875105717e-07,1.818156306399032e-05,-3.341692354297265e-05,-0.00497938459739089,0.005,-0.001284536789171398,-0.3757070004940033,0.4946747422218323
0.355013132,0.003864600323140621,-0.006018844898790121,-0.9962092041969299,-1.428823452442884e-06,5.481595621859014e-07,-6.794354590056173e-07,1.994614103750791e-05,-2.860210042854305e-05,-0.004982706159353256,0.005,-0.001717436593025923,-0.375295102596283,0.4938287734985352
0.360151291,0.003796117845922709,-0.006367252208292484,-0.9961540699005127,2.47661660068843e-06,2.810668604524835e-07,3.926782881080726e-07,1.868590516096447e-05,-3.361151539138518e-05,-0.004981318488717079,0.005,-0.001629712409339845,-0.3750158846378326,0.494940310716629
0.365264893,0.00342292757704854,-0.006327230483293533,-0.996239960193634,-1.623957928131858e-07,-2.079194700854714e-06,-4.99932752973109e-07,1.498548317613313e-05,-3.21757142955903e-05,-0.004981117323040962,0.005,-0.001830480061471462,-0.3753075301647186,0.4945199489593506
0.370354176,0.003608750179409981,-0.005923511926084757,-0.9965460300445557,9.432673095943755e-07,-3.961518359574256e-06,1.803560621738143e-06,1.924612479342613e-05,-2.668139677552972e-05,-0.004985053092241287,0.005,-0.002210213802754879,-0.375294953584671,0.4951927363872528
0.375419140,0.003731949022039771,-0.006317474879324436,-0.9959365725517273,-2.092373051709728e-06,-2.151697572116973e-06,8.135074835990963e-07,1.911260187625885e-05,-3.421034489292651e-05,-0.004975596442818642,0.005,-0.001663551549427211,-0.3751965761184692,0.4956936836242676
0.380459011,0.003449359675869346,-0.005949030630290508,-0.9962278604507446,-9.791306183615234e-06,-2.022425405812101e-06,-3.608554379752604e-07,1.543304642837029e-05,-2.713442154345103e-05,-0.004982678219676018,0.005,-0.001630769111216068,-0.3752260804176331,0.4956122934818268
0.385475069,0.003322298638522625,-0.006170235574245453,-0.9958789348602295,-4.252719463693211e-06,-6.007980459799001e-07,1.35478251195309e-06,1.588690429343842e-05,-3.205173197784461e-05,-0.004977692384272814,0.005,-0.001178000122308731,-0.3755910694599152,0.4946988224983215
0.390467077,0.003408149816095829,-0.00619565462693572,-0.9962437152862549,1.289143028770923e-06,-1.928051915456308e-06,1.376961563437362e-06,1.73563021235168e-05,-3.107075463049114e-05,-0.004982519894838333,0.005,-0.001545695122331381,-0.375469297170639,0.4960590302944183
0.395435274,0.003630434861406684,-0.006219618022441864,-0.9960877895355225,2.113824166372069e-06,-9.587040494807297e-07,-1.833342139434535e-06,1.952297316165641e-05,-3.045644189114682e-05,-0.004980162251740694,0.005,-0.001372277503833175,-0.3749727606773376,0.4955268204212189
0.400384247,0.0033431735355407,-0.006290747784078121,-0.9958845376968384,-3.953164650738472e-06,1.316933662565134e-06,-1.540306584502105e-07,1.51706080941949e-05,-3.239919533370994e-05,-0.00497754942625761,0.005,-0.001680966117419302,-0.3752912282943726,0.4956769645214081
0.405317366,0.003694352926686406,-0.006017122883349657,-0.9963381886482239,-1.922130195453065e-06,-4.624037501343992e-06,-2.354611751798075e-06,2.081513412122149e-05,-2.81186294159852e-05,-0.004984349012374878,0.005,-0.001055827946402133,-0.3756921291351318,0.4946796298027039
0.410226941,0.00359067227691412,-0.006123635452240705,-0.995801568031311,-2.138343688784516e-06,-1.342730001852033e-06,1.283166056964546e-06,1.744284782034811e-05,-3.160872438456863e-05,-0.004975888412445784,0.005,-0.001279726042412221,-0.3756889402866364,0.4952768087387085
0.415112972,0.003772426629438996,-0.005809751804918051,-0.9965372681617737,-4.00956696466892e-06,-1.890198859655357e-06,1.860656993812881e-06,2.000094355025794e-05,-2.744048288150225e-05,-0.004986957181245089,0.005,-0.001280651078559458,-0.3752052783966064,0.4953643679618835
0.419974923,0.003849938744679093,-0.005902715958654881,-0.9961274862289429,-3.550881899627711e-07,-1.88770229669899e-06,2.935233169409912e-06,1.990231248782948e-05,-2.946492531918921e-05,-0.004978937096893787,0.005,-0.001478863647207618,-0.3757869899272919,0.495686411857605
0.424814075,0.003782415296882391,-0.006103752180933952,-0.996023416519165,2.022760327236028e-06,3.045562607439933e-06,1.320454316555697e-06,1.829005850595422e-05,-3.202877996955067e-05,-0.004978595767170191,0.005,-0.001006721751764417,-0.3756841719150543,0.4949389696121216
0.429630220,0.003760863561183214,-0.005670728161931038,-0.9966722726821899,3.618935807025991e-06,-3.170618128933711e-06,1.453389245398284e-06,1.859979602159001e-05,-2.557580955908634e-05,-0.004988161846995354,0.005,-0.001104801543988287,-0.3755452036857605,0.4943459033966064
0.434834957,0.003650612663477659,-0.006474634632468224,-0.9958997368812561,3.723520649145939e-06,-2.858751031453721e-06,-7.312880256904464e-07,1.739064464345574e-05,-3.708097210619599e-05,-0.004974242765456438,0.005,-0.001070154714398086,-0.3760057389736176,0.4938856065273285
0.440015107,0.003822732716798782,-0.006227853707969189,-0.9966849684715271,-4.355351393314777e-06,7.966773409862071e-07,-2.490638507879339e-06,2.028846938628703e-05,-2.975535971927457e-05,-0.004987753462046385,0.005,-0.0008879055385477841,-0.3756093084812164,0.4959062337875366
0.445171446,0.003665365977212787,-0.006486893631517887,-0.9962859749794006,-4.129547050979454e-07,3.815258153849754e-08,1.593726892679115e-06,1.754671211529057e-05,-3.37735764333047e-05,-0.004980065394192934,0.005,-0.001153873512521386,-0.3750485181808472,0.4952682852745056
0.450302988,0.003611096413806081,-0.006419184152036905,-0.9962860941886902,5.859362772753229e-07,3.045337280127569e-06,9.568950645189034e-07,1.779551712388638e-05,-3.24468819599133e-05,-0.004980656784027815,0.005,-0.001246742554940283,-0.3754675090312958,0.4947439134120941
0.455410182,0.003612922504544258,-0.006149195600301027,-0.9965135455131531,5.846310159540735e-06,4.009557869721903e-06,1.002380372483458e-06,1.816167605284136e-05,-2.851929639291484e-05,-0.0049847811460495,0.005,-0.001324224518612027,-0.3755546510219574,0.4939303696155548
0.460493058,0.003287338186055422,-0.006406293250620365,-0.9958513975143433,3.810895577771589e-06,4.127493866690202e-06,-7.892751341387338e-07,1.487737154093338e-05,-3.381866554263979e-05,-0.004974507726728916,0.005,-0.001133647398091853,-0.3751649558544159,0.4954109489917755
0.465550601,0.003250184468924999,-0.006113806739449501,-0.9964955449104309,-3.351267423568061e-06,5.48875323147513e-06,6.954719538043719e-07,1.623248317628168e-05,-2.869251875381451e-05,-0.004986490122973919,0.005,-0.0009960159659385681,-0.3752772510051727,0.4945604801177979
0.470584571,0.003422253299504519,-0.00650741346180439,-0.9958212971687317,-8.462433243039413e-07,-5.867833863248961e-08,-9.203934610013675e-07,1.78792961378349e-05,-3.4686137951212e-05,-0.004975732881575823,0.005,-0.001333020394667983,-0.3756699562072754,0.4947865009307861
0.475598067,0.003392476588487625,-0.00628720922395587,-0.9963292479515076,-6.154865332064219e-06,7.620692485943437e-07,-9.975816510632285e-07,1.696112667559646e-05,-3.070706225116737e-05,-0.004984343890100718,0.005,-0.0009604842634871602,-0.3755092620849609,0.4951820373535156
0.480587780,0.00351805635727942,-0.006216007750481367,-0.9958428740501404,-5.371298357204068e-07,-8.64171397552127e-07,1.813195126487699e-06,1.860946758824866e-05,-2.977167241624556e-05,-0.004976940806955099,0.005,-0.001491623697802424,-0.3752986788749695,0.4962274134159088
0.485553652,0.00359715917147696,-0.006106124259531498,-0.9957064390182495,-3.484190074232174e-06,3.617854247295327e-07,-9.063578545465134e-07,1.82423373189522e-05,-3.090087921009399e-05,-0.004977216012775898,0.005,-0.001907116849906743,-0.3759905099868774,0.4945510029792786
0.490495741,0.0033780662342906,-0.006030604708939791,-0.9964345097541809,-1.184406528409454e-06,1.449862224944809e-06,2.771182835203945e-06,1.622698255232535e-05,-2.934282019850798e-05,-0.004987020045518875,0.005,-0.001398718333803117,-0.3757888972759247,0.4961037635803223
0.495413512,0.003599185030907393,-0.006551785860210657,-0.9957722425460815,-1.494798766543681e-06,-3.539664476193138e-06,1.374648149976565e-06,1.929222889884841e-05,-3.590742198866792e-05,-0.00497550331056118,0.005,-0.00118122692219913,-0.3758083283901215,0.4956597983837128
0.500307977,0.003622423158958554,-0.0062385736964643,-0.9963678121566772,1.777981083250779e-06,4.096092197869439e-06,8.932470336731058e-07,1.79535272764042e-05,-2.978196243930142e-05,-0.004985376261174679,0.005,-0.001432960038073361,-0.3757305145263672,0.495762050151825
0.505179107,0.003415055805817246,-0.006244913209229708,-0.9960212707519531,5.820637852593791e-06,-1.915859002110665e-06,-8.677107530274952e-07,1.633908323128708e-05,-3.100145841017365e-05,-0.00497858040034771,0.005,-0.001729408977553248,-0.3759936094284058,0.4950237274169922
0.510025978,0.003425958566367626,-0.006044952664524317,-0.9959173202514648,-1.347742568214017e-06,-1.216855253005633e-06,1.406753312949149e-06,1.649722980801016e-05,-2.94012606900651e-05,-0.004978284239768982,0.005,-0.001797239645384252,-0.3754766881465912,0.4945952296257019
0.514850020,0.003294432070106268,-0.005981565918773413,-0.9962616562843323,1.546436692478892e-06,2.30722935157246e-06,-8.400165825150907e-07,1.557096766191535e-05,-2.920268889283761e-05,-0.004983668215572834,0.005,-0.001212521805427969,-0.3755519390106201,0.4944514036178589
0.519734502,0.003086307784542441,-0.006248569581657648,-0.9954736232757568,6.352126547426451e-06,3.68227892977302e-06,2.793231715259026e-06,1.392718331771903e-05,-3.320013274787925e-05,-0.004972275346517563,0.005,-0.001154273631982505,-0.376099705696106,0.4950283467769623
0.524932623,0.003428758820518851,-0.00582420127466321,-0.9962382912635803,2.916402479513636e-07,-5.918197075516218e-06,-6.245391546144674e-07,1.893207445391454e-05,-2.653120827744715e-05,-0.004985798615962267,0.005,-0.00113991426769644,-0.3756903111934662,0.4957063496112823
0.530105591,0.003460666630417109,-0.006077541969716549,-0.9956179261207581,1.436269371879462e-06,-6.542644541696063e-07,7.803729999977804e-07,1.771427378116641e-05,-3.143113281112164e-05,-0.004975081421434879,0.005,-0.0008224964840337634,-0.3754558861255646,0.4952767193317413
0.535253763,0.003570935456082225,-0.005953455343842506,-0.9962202906608582,-9.958986083802301e-06,3.275043354733498e-06,1.272471763513749e-06,1.849815635068808e-05,-2.929480979219079e-05,-0.00498413760215044,0.005,-0.001139598432928324,-0.3760978579521179,0.4945542216300964
0.540377617,0.0035818200558424,-0.00593313854187727,-0.9963074326515198,-2.046584086201619e-06,1.869528091447137e-06,1.341564598078548e-06,1.843253812694456e-05,-2.888236303988378e-05,-0.004982669837772846,0.005,-0.001265155617147684,-0.3761158585548401,0.4951600432395935
0.545476615,0.003529161680489779,-0.006438866257667542,-0.9959068298339844,-9.905774049911997e-07,-1.690727458480978e-06,-3.125933062619879e-06,1.730496478558052e-05,-3.550664041540585e-05,-0.004976578988134861,0.005,-0.000802519905846566,-0.3757832944393158,0.4958636164665222
0.550551295,0.003540191799402237,-0.006123799830675125,-0.9963766932487488,-2.792105533444555e-06,-3.591738732211525e-06,-6.790652378185769e-07,1.781384526111651e-05,-2.875572499760892e-05,-0.004984856117516756,0.005,-0.0005325702950358391,-0.3759108483791351,0.4943996965885162
0.555601656,0.003450506599619985,-0.006392932962626219,-0.9957351088523865,5.292970399750629e-06,2.447090764690074e-06,-1.127391556110524e-06,1.701062137726694e-05,-3.303968696855009e-05,-0.004974433220922947,0.005,-0.001239859033375978,-0.3763079941272736,0.4951183199882507
0.560627699,0.003531502559781075,-0.005833471193909645,-0.9963692426681519,-3.274829850852257e-06,-6.948887971702788e-07,-5.43376359019021e-07,1.775121381797362e-05,-2.646176471898798e-05,-0.004985458217561245,0.005,-0.001307202968746424,-0.3757591545581818,0.4951622188091278
0.565629959,0.003466587513685226,-0.006060757208615541,-0.9957016706466675,4.683245606429409e-06,-3.149042640870903e-06,-1.905499061649607e-06,1.68562910403125e-05,-3.076366920140572e-05,-0.004975373391062021,0.005,-0.001362923416309059,-0.375883549451828,0.4954167604446411
0.570608139,0.003316819434985518,-0.006337515078485012,-0.9955174922943115,-1.696020717645297e-06,-1.033628677760134e-06,-4.530047590378672e-06,1.539882578072138e-05,-3.39973958034534e-05,-0.00497609144076705,0.005,-0.00160088250413537,-0.3761943280696869,0.4953728914260864
0.575563252,0.003537790616974235,-0.00598105089738965,-0.9961262345314026,3.372602805029601e-06,-2.274493681397871e-06,-1.802230940484151e-06,1.876031092251651e-05,-2.758664413704537e-05,-0.0049847811460495,0.005,-0.001731287455186248,-0.3756464421749115,0.4958183169364929
0.580503821,0.003533951472491026,-0.006184694357216358,-0.9952976107597351,-3.936751909350278e-06,-2.073664973067935e-06,-8.065545671342988e-07,1.777181932993699e-05,-3.206633482477628e-05,-0.00497110653668642,0.005,-0.001340234302915633,-0.3754713535308838,0.4947531223297119
0.585421085,0.003516590455546975,-0.005896128714084625,-0.9961446523666382,-4.106618234800408e-06,-1.46894865338254e-06,1.175659804175666e-06,1.745247936923988e-05,-2.809352372423746e-05,-0.004985891282558441,0.005,-0.001064521493390203,-0.3753435909748077,0.4945807754993439
0.590314746,0.003329810919240117,-0.006202981807291508,-0.9956251978874207,4.768230155605124e-06,-3.714170134117012e-06,1.483144615122001e-06,1.578685441927519e-05,-3.237300916225649e-05,-0.004975454416126013,0.005,-0.001148166134953499,-0.3755437135696411,0.4940427541732788
0.595185161,0.003348792670294642,-0.006023202557116747,-0.9959374666213989,2.876925918826601e-06,3.38598897542397e-06,-4.322983784277312e-07,1.648976467549801e-05,-2.993080124724656e-05,-0.004980635363608599,0.005,-0.001186396926641464,-0.3751726746559143,0.4952162206172943
0.600031734,0.003417361294850707,-0.00588398240506649,-0.9960824251174927,4.558367891149828e-06,-2.346534841990433e-07,9.369643407808326e-07,1.742643325997051e-05,-2.806810516631231e-05,-0.004982294049113989,0.005,-0.001598211121745408,-0.3755367696285248,0.4947290420532227
0.604855835,0.003524808445945382,-0.006215279921889305,-0.995637834072113,-2.44811985794513e-06,-1.578370302013354e-06,2.691519057407277e-06,1.82831754500512e-05,-3.314789864816703e-05,-0.00497491005808115,0.005,-0.001630466897040606,-0.3758867084980011,0.4960910975933075
0.609739244,0.003805277403444052,-0.00561207253485918,-0.9963088035583496,1.561143676553911e-06,2.501999460946536e-06,4.200238663543132e-07,2.049156864813995e-05,-2.430176937195938e-05,-0.004985333885997534,0.005,-0.001755980891175568,-0.3757160007953644,0.4957240223884583
0.614930153,0.003629721701145172,-0.006105737760663033,-0.9956826567649841,-2.632908945088275e-06,4.662517767428653e-06,4.778058155352483e-06,1.714906647976022e-05,-3.29998874804005e-05,-0.004974761046469212,0.005,-0.001500225276686251,-0.3752890527248383,0.4952102303504944
0.620095491,0.003695816267281771,-0.005755010992288589,-0.9963107705116272,-2.297155106134596e-06,3.674002300613211e-06,-1.273506086363341e-06,1.839260221458972e-05,-2.709867840167135e-05,-0.004985152743756771,0.005,-0.001023184275254607,-0.3754492998123169,0.4946356415748596
0.625235975,0.003692142199724913,-0.005924820434302092,-0.9960471987724304,6.273202870943351e-06,-5.878586648577766e-07,-4.575471166390344e-07,1.847179373726249e-05,-3.012870729435235e-05,-0.004979267250746489,0.005,-0.001203219755552709,-0.375265508890152,0.4954815208911896
0.630352139,0.003910018131136894,-0.006433708127588034,-0.9955174326896667,1.424851120646053e-06,1.914027052407619e-07,-9.758690566741279e-07,2.073091127385851e-05,-3.538971941452473e-05,-0.004973583854734898,0.005,-0.001327040721662343,-0.3750821948051453,0.4952545166015625
0.635445237,0.003814900293946266,-0.006056537386029959,-0.996346652507782,3.443543761250112e-08,-3.566457507986343e-06,-5.497515189745172e-07,1.877488466561772e-05,-2.770020910247695e-05,-0.004987446125596762,0.005,-0.001763332751579583,-0.3753480911254883,0.4956946074962616
0.640514553,0.003608382306993008,-0.006620675791054964,-0.9957395792007446,-7.151323870857595e-07,-3.555248213160667e-06,1.335809969305046e-07,1.708034687908366e-05,-3.641466537374072e-05,-0.004974536132067442,0.005,-0.001658018562011421,-0.3756888508796692,0.4962243139743805
0.645559549,0.003654994536191225,-0.005874709226191044,-0.9962083697319031,-2.861790562747046e-06,-1.262469936591515e-06,4.162040568189695e-06,1.836352203099523e-05,-2.537956243031658e-05,-0.004983398132026196,0.005,-0.001286977785639465,-0.375095933675766,0.4961041212081909
0.650580764,0.003763732500374317,-0.00631341990083456,-0.9960169196128845,-1.443308519810671e-06,-6.568049570887524e-07,1.901051746244775e-06,1.950638761627488e-05,-3.403770460863598e-05,-0.00497971847653389,0.005,-0.001235490432009101,-0.3755679428577423,0.4956740140914917
0.655577064,0.003642113646492362,-0.005999930668622255,-0.995874285697937,-5.877724106539972e-06,3.2259515592159e-06,4.198730493953917e-06,1.764617263688706e-05,-2.843736547220033e-05,-0.004977553617209196,0.005,-0.00111265282612294,-0.3757505714893341,0.4962373077869415
0.660550117,0.003568352200090885,-0.005645885597914457,-0.9961316585540771,2.083392928398098e-06,2.702978235902265e-06,2.901027301049908e-06,1.742691529216245e-05,-2.591914017102681e-05,-0.004983209073543549,0.005,-0.001302797114476562,-0.3754414618015289,0.495060920715332
0.665499389,0.003607983700931072,-0.006469003856182098,-0.9954778552055359,5.251324182609096e-06,1.861741566244746e-06,-3.367309318491607e-06,1.825602885219269e-05,-3.7349273043219e-05,-0.004972825292497873,0.005,-0.0008195209666155279,-0.3754404485225677,0.494927853345871
0.670424819,0.00344692706130445,-0.005781289655715227,-0.9963639378547668,-4.155229817115469e-06,1.089644342755491e-06,3.123215492450981e-06,1.651894672249909e-05,-2.462154225213453e-05,-0.004987181164324284,0.005,-0.0005355329485610127,-0.3757582008838654,0.4945905208587646
0.675325930,0.003276842413470149,-0.006299947388470173,-0.9961346983909607,-1.041340965457493e-06,1.960783038157388e-06,1.063821400748566e-06,1.512334438302787e-05,-3.423853559070267e-05,-0.004979923367500305,0.005,-0.0006755181238986552,-0.3755127489566803,0.4947823882102966
0.680204034,0.003389160148799419,-0.006125027779489756,-0.9962315559387207,-2.245451184990088e-07,3.344321839904296e-06,-1.608644765838108e-06,1.772365976648871e-05,-3.026593185495585e-05,-0.004980882164090872,0.005,-0.0005390827427618206,-0.3750951290130615,0.4942654073238373
0.685058832,0.003151767421513796,-0.005974802188575268,-0.9963552951812744,3.811147735177656e-06,-1.649722321417357e-06,1.258990664609883e-06,1.498112487752223e-05,-2.875721474993043e-05,-0.004983271472156048,0.005,-0.0006430991925299168,-0.3756635189056396,0.494530975818634
0.689891100,0.003129390999674797,-0.006556896958500147,-0.9960201978683472,-1.020501258608419e-06,-2.890065218252857e-07,-3.436908627918456e-06,1.537943171570078e-05,-3.643536547315307e-05,-0.004976902157068253,0.005,-0.00122916093096137,-0.3758753538131714,0.4941226243972778
0.694700301,0.003369658952578902,-0.005735068116337061,-0.9967297315597534,-4.672127488447586e-06,2.509920250304276e-06,-6.220491854946886e-07,1.838686512201093e-05,-2.400461562501732e-05,-0.004988485481590033,0.005,-0.0009742255788296461,-0.3755928575992584,0.4944792985916138
0.699823856,0.003277710638940334,-0.006324740592390299,-0.9958858489990234,4.620695563062327e-06,-1.020877789414953e-06,1.591284672031179e-06,1.60677736857906e-05,-3.477223435766064e-05,-0.004974721930921078,0.005,-0.0005221417522989213,-0.3758636116981506,0.4940478801727295
0.705007851,0.00355695141479373,-0.00598044553771615,-0.9963693618774414,7.589135861962859e-07,-1.070054281626653e-06,1.411063749401364e-06,1.898500340757892e-05,-2.772137668216601e-05,-0.004984669387340546,0.005,-0.000382047233870253,-0.3758977055549622,0.4950867891311646
0.710167527,0.003399491542950273,-0.00599439162760973,-0.9960241913795471,-9.690046454124968e-07,-1.824001856221003e-06,-6.193062063175603e-07,1.613128915778361e-05,-2.944496191048529e-05,-0.004978964570909739,0.005,-0.0008640648447908461,-0.3756786584854126,0.4941486120223999
0.715301871,0.00380266597494483,-0.006259035784751177,-0.995985746383667,-1.221643856297305e-06,3.212070851077442e-06,3.354917055276019e-07,2.128797314071562e-05,-3.336788358865306e-05,-0.004978453274816275,0.005,-0.0008518957765772939,-0.3755608797073364,0.4951091706752777
0.720411122,0.004044984001666307,-0.005789682269096375,-0.9963220357894897,1.879365072454675e-06,6.114020834502298e-06,-1.105043907045911e-06,2.178044451284222e-05,-2.571248114691116e-05,-0.004984745290130377,0.005,-0.000924708612728864,-0.375894159078598,0.494873583316803
0.725496590,0.003836393356323242,-0.006268509663641453,-0.9957008957862854,1.948913450178225e-06,-9.731542149893357e-07,-2.166276090065367e-06,1.82184849109035e-05,-3.477041173027828e-05,-0.004974637180566788,0.005,-0.001487904693931341,-0.375566303730011,0.4958963990211487
0.730558217,0.003707075957208872,-0.005951558705419302,-0.9962766766548157,2.173748953282484e-06,4.149906089878641e-06,2.738168518590101e-07,1.746024827298243e-05,-2.78958377748495e-05,-0.004984033294022083,0.005,-0.001786294160410762,-0.3754575252532959,0.4944542646408081
0.735598862,0.003611494088545442,-0.006225801073014736,-0.9960547089576721,4.184630597592331e-06,2.730022288233158e-07,-4.71443684091355e-07,1.788219378795475e-05,-3.218950223526917e-05,-0.004979838151484728,0.005,-0.001610226230695844,-0.3762290775775909,0.4951176941394806
0.740615189,0.003541772020980716,-0.005984518211334944,-0.996449887752533,9.263250717594929e-07,4.345075922174146e-06,-1.2235841495567e-06,1.703934321994893e-05,-2.906449662987143e-05,-0.004983832128345966,0.005,-0.001042297924868762,-0.3759604096412659,0.4954993426799774
0.745607197,0.00355368317104876,-0.005821775645017624,-0.9962531328201294,6.117372777225683e-07,5.020347657591628e-07,-2.377885039095418e-06,1.799966412363574e-05,-2.743546610872727e-05,-0.004980901256203651,0.005,-0.0009430645150132477,-0.375475138425827,0.4962959289550781
0.750575125,0.003854850539937615,-0.006474404130131006,-0.9960959553718567,-1.477097839597263e-07,-2.531654217818868e-06,-2.062652811218868e-06,2.084536572510842e-05,-3.687453499878757e-05,-0.004978537559509277,0.005,-0.0005366807454265654,-0.3758620917797089,0.4950534403324127
0.755519748,0.004059115424752235,-0.006004648748785257,-0.996536910533905,-1.572436417518475e-06,7.355018169619143e-06,3.490443759801565e-06,2.16270491364412e-05,-2.666585169208702e-05,-0.004985681734979153,0.005,-0.0008884838316589594,-0.3759280741214752,0.4962852895259857
0.760441065,0.003717222483828664,-0.00653418293222785,-0.9958332777023315,-1.545491954857425e-06,-6.170304914121516e-06,-1.609606329111557e-06,1.636360684642568e-05,-3.571373599697836e-05,-0.00497493939474225,0.005,-0.001084151561371982,-0.3754259943962097,0.4951027035713196
0.765337884,0.003817425575107336,-0.006174940150231123,-0.9961470365524292,5.471742170470861e-09,3.072783783863997e-06,3.396298779989593e-07,1.93912819668185e-05,-2.901552579714917e-05,-0.004982166923582554,0.005,-0.001401897054165602,-0.3753129541873932,0.4955598711967468
0.770211339,0.003500881139189005,-0.005955655127763748,-0.9957812428474426,2.147787427020376e-06,4.186076409951056e-07,2.10429311664484e-06,1.60741856234381e-05,-2.762548137980048e-05,-0.004977259319275618,0.005,-0.001274799578823149,-0.3757157921791077,0.4949332177639008
0.775061011,0.003435403807088733,-0.006267588585615158,-0.9957945346832275,-1.333722252638836e-06,-2.181401441703201e-06,5.445325768960174e-06,1.624767719476949e-05,-3.412939258851111e-05,-0.004977850243449211,0.005,-0.001338526839390397,-0.3752683401107788,0.4964265823364258
0.779887378,0.003769871545955539,-0.005721187684684992,-0.9960996508598328,-7.134925112950441e-07,1.412325190131014e-07,4.348970250589446e-08,2.120272256433964e-05,-2.468076127115637e-05,-0.004983256105333567,0.005,-0.001151584670878947,-0.3751132488250732,0.4953927397727966
0.784691453,0.003652638057246804,-0.006142642349004745,-0.9955323934555054,-2.330140659978497e-06,-7.263641691679368e-06,-3.628882268458256e-06,1.73511234606849e-05,-3.310770262032747e-05,-0.004974208306521177,0.005,-0.001414807862602174,-0.3754101097583771,0.4947904348373413
0.789892614,0.004110995214432478,-0.0060490514151752,-0.9965238571166992,-3.103715471297619e-06,-7.229432412714232e-07,-1.064444290932443e-06,2.29765719268471e-05,-2.957971446448937e-05,-0.004987514577805996,0.005,-0.001440551248379052,-0.3755540549755096,0.4953737258911133
0.795069695,0.003959984052926302,-0.006038282532244921,-0.9958932995796204,3.916550213034498e-06,2.703980953810969e-06,1.431990540368133e-06,1.937960223585833e-05,-2.981377656396944e-05,-0.004976953379809856,0.005,-0.001392631558701396,-0.3752828240394592,0.4959278404712677
0.800221980,0.003751021577045321,-0.00658472953364253,-0.9961302280426025,2.071963763228268e-06,-4.793088010046631e-06,-1.193385287479032e-06,1.737355341902003e-05,-3.653447492979467e-05,-0.004980992060154676,0.005,-0.001508663408458233,-0.3756210803985596,0.4954463541507721
0.805349648,0.003811336122453213,-0.006440438330173492,-0.9964751005172729,2.462163593008881e-06,2.66531992565433e-06,-1.533025852040737e-06,1.961175439646468e-05,-3.064837801503018e-05,-0.004984878469258547,0.005,-0.001268127583898604,-0.3759695589542389,0.4957603514194489
0.810452998,0.003543237922713161,-0.006638940889388323,-0.9956563711166382,-1.21864923130488e-06,3.263279950260767e-06,2.539376509957947e-06,1.599512506800238e-05,-3.488134461804293e-05,-0.004972748458385468,0.005,-0.001615750137716532,-0.3756977915763855,0.4961389303207397
0.815532029,0.003689944976940751,-0.006206998601555824,-0.9961649775505066,-4.170725333096925e-06,9.7400027243566e-07,-1.288687940359523e-06,1.920697832247242e-05,-2.847128052962944e-05,-0.004983538761734962,0.005,-0.001354089588858187,-0.3753631114959717,0.4949941039085388
0.820587754,0.003628225531429052,-0.006425096653401852,-0.9954988956451416,5.181418600841425e-06,-2.013424591496005e-06,-8.263015160991927e-07,1.763021828082856e-05,-3.285552156739868e-05,-0.004974078852683306,0.005,-0.001031911699101329,-0.3758174180984497,0.4950369596481323
0.825620711,0.003571727080270648,-0.006088246591389179,-0.9957138299942017,-5.872219844604842e-06,3.064483962589293e-06,-1.654275820328621e-06,1.738769424264319e-05,-2.881842010538094e-05,-0.004979541525244713,0.005,-0.0003000163706019521,-0.3755881488323212,0.494629830121994
0.830630660,0.003401103662326932,-0.006171758286654949,-0.9957626461982727,1.495849801358418e-06,1.464772481085674e-06,3.629017555795144e-06,1.584895653650165e-05,-3.118614040431567e-05,-0.004979804158210754,0.005,-0.0009527181391604245,-0.3754862844944,0.4944961667060852
0.835616231,0.003326613688841462,-0.006083878688514233,-0.9956210851669312,-2.192523197663832e-06,4.185452780802734e-06,6.210398737493961e-07,1.614641951164231e-05,-3.041529089387041e-05,-0.004976722411811352,0.005,-0.001015156274661422,-0.3753781020641327,0.4938333928585052
0.840577543,0.003391465870663524,-0.005735026672482491,-0.9962368607521057,2.471369043632876e-06,9.802242857404053e-07,1.929149533452801e-07,1.744410292303655e-05,-2.660402242327109e-05,-0.00498476717621088,0.005,-0.0008099075639620423,-0.3753166198730469,0.4946012496948242
0.845515251,0.003398397006094456,-0.006174148991703987,-0.9954215288162231,4.733515652333153e-06,-4.555526800231746e-07,-5.995224228172447e-07,1.690001408860553e-05,-3.290026870672591e-05,-0.004972308874130249,0.005,-0.0009648635168559849,-0.3750247955322266,0.4958760440349579
0.850429177,0.003574838628992438,-0.00593050429597497,-0.9962570667266846,7.177119982770819e-07,-1.781846890480665e-06,3.451562179179746e-06,1.86500619747676e-05,-2.872555705835111e-05,-0.004985591862350702,0.005,-0.001751092961058021,-0.3756392896175385,0.4950027465820312
0.855320036,0.00357548613101244,-0.00632699066773057,-0.9962379932403564,5.435188995761564e-06,-3.336826637223567e-07,-9.811280961002922e-07,1.823409547796473e-05,-3.346741141285747e-05,-0.004981480538845062,0.005,-0.001933781080879271,-0.3756478130817413,0.4951690435409546
0.860186875,0.003286929568275809,-0.006176132243126631,-0.995836615562439,-2.972773472720291e-06,2.614480763440952e-06,-2.39569999394007e-07,1.444789268134627e-05,-3.110620309598744e-05,-0.004975768271833658,0.005,-0.001808583387173712,-0.3753039240837097,0.4954890310764313
0.865030408,0.003428859636187553,-0.005786271765828133,-0.9962385892868042,1.927317271110951e-06,-3.376054564796505e-06,2.052612899205997e-06,1.823284037527628e-05,-2.580374712124467e-05,-0.004984142258763313,0.005,-0.001443699933588505,-0.3753369152545929,0.4956763386726379
0.869851112,0.003478306578472257,-0.005929996259510517,-0.9955900311470032,9.361363026982872e-07,5.80160030949628e-06,1.659037991430523e-07,1.766147215676028e-05,-3.043555989279412e-05,-0.004973861388862133,0.005,-0.001581389456987381,-0.3754743933677673,0.4959022998809814
0.874733806,0.003336725756525993,-0.005563066806644201,-0.9963653683662415,-6.559249868587358e-06,-2.855603327134304e-07,2.108580929416348e-06,1.573188637848943e-05,-2.596145895950031e-05,-0.004986354615539312,0.005,-0.001715058460831642,-0.3755161166191101,0.4960477352142334
0.879927814,0.003165563102811575,-0.005989023018628359,-0.9958539605140686,-2.462216741605516e-07,-1.68860719895747e-06,-6.530765404022532e-07,1.47327682498144e-05,-3.172124343109317e-05,-0.004977111238986254,0.005,-0.001961583038792014,-0.3755882382392883,0.4954760372638702
0.885096431,0.003375674365088344,-0.005842307116836309,-0.9961990714073181,-4.795947916136356e-06,-1.001747591544699e-06,-1.503420776316489e-06,1.784537744242698e-05,-2.943940489785746e-05,-0.004982501734048128,0.005,-0.001877851085737348,-0.3761284053325653,0.4950296878814697
0.890239716,0.003563575213775039,-0.005928342230618,-0.9964079856872559,-1.941215941769769e-06,-1.004359660328191e-06,-2.740521040323074e-06,1.943251663760748e-05,-2.966168904094957e-05,-0.004983918741345406,0.005,-0.001456005382351577,-0.376153290271759,0.4952523708343506
0.895359993,0.003484104527160525,-0.00635130237787962,-0.9960455894470215,-4.100973910681205e-06,1.925359356391709e-06,7.833418749214616e-07,1.697804691502824e-05,-3.444227331783623e-05,-0.004977640695869923,0.005,-0.0009427975164726377,-0.3758400976657867,0.4953943192958832
0.900455654,0.003621283452957869,-0.006010273937135935,-0.9966856241226196,-1.994685135287e-06,3.250247118558036e-06,1.089652755581483e-06,1.892690852400847e-05,-2.795776345010381e-05,-0.004987197462469339,0.005,-0.0008809881401248276,-0.3757993578910828,0.4947008192539215
0.905527055,0.003535623196512461,-0.006626030430197716,-0.9953407645225525,6.71140378472046e-06,-3.532053824528703e-06,2.821731470703526e-07,1.766967579897027e-05,-3.633904998423532e-05,-0.004969129804521799,0.005,-0.000502952141687274,-0.3758203089237213,0.4948018789291382
0.910574853,0.00336091429926455,-0.006117932498455048,-0.99522864818573,-6.543038580275606e-06,-1.250501668437209e-06,5.018569027015474e-07,1.534736475150567e-05,-2.861206667148508e-05,-0.004974885378032923,0.005,-0.000542462570592761,-0.3755027949810028,0.495576798915863
0.915598571,0.003499509068205953,-0.006161006633192301,-0.9957901835441589,1.878850753200823e-06,-1.125254698308709e-06,-3.927819761884166e-06,1.835611146816518e-05,-2.987327388837002e-05,-0.004982788115739822,0.005,-0.00140031601767987,-0.3756003379821777,0.4946121573448181
0.920597732,0.003622061107307673,-0.006255206186324358,-0.9960558414459229,-2.615822950247093e-06,-1.399715756633668e-06,7.721325232523668e-07,1.848950523708481e-05,-3.26117078657262e-05,-0.004981221165508032,0.005,-0.001505226129665971,-0.3760373294353485,0.4954038262367249
0.925573349,0.00338258221745491,-0.005814543459564447,-0.9971075654029846,2.703277687032823e-06,-1.249502929567825e-06,-7.880835823925736e-07,1.604146564204711e-05,-2.601441883598454e-05,-0.004992892034351826,0.005,-0.0005606128252111375,-0.3756982088088989,0.4955308437347412
0.930524647,0.003299047239124775,-0.006030814256519079,-0.9958838224411011,1.963348722711089e-06,-3.302361619716976e-06,2.347741201447207e-06,1.598329254193231e-05,-3.119881876045838e-05,-0.004971977323293686,0.005,-0.0008057337254285812,-0.3752144873142242,0.4953375458717346
0.935452700,0.003353590378537774,-0.005526787135750055,-0.9964235424995422,-6.490144187409896e-06,5.120514742884552e-06,-1.973513008124428e-06,1.701960172795225e-05,-2.4896435206756e-05,-0.00498535530641675,0.005,-0.001004480407573283,-0.3756369650363922,0.494451493024826
0.940356374,0.003289338434115052,-0.005848051514476538,-0.9959096312522888,1.009912239169353e-06,-1.067786683961458e-06,-9.398329439136432e-07,1.661124770180322e-05,-3.087910226895474e-05,-0.004976865835487843,0.005,-0.001121225417591631,-0.3756254911422729,0.4950916767120361
0.945236981,0.003389512654393911,-0.005834962241351604,-0.9958716630935669,-4.770689884026069e-06,2.672630216693506e-06,-1.22007929803658e-06,1.718082239676733e-05,-2.947390385088511e-05,-0.004978248383849859,0.005,-0.0008202003082260489,-0.3752189874649048,0.494821161031723
0.950095594,0.003578685224056244,-0.00577099435031414,-0.9959039092063904,-2.278614630313314e-07,1.939985594390237e-07,6.287296514528862e-07,1.931460064952262e-05,-2.809889156196732e-05,-0.00498065073043108,0.005,-0.0006128106033429503,-0.3753436803817749,0.4952835142612457
0.954936326,0.003628781531006098,-0.006370804272592068,-0.9953653216362,4.479782546695787e-06,7.00997304647899e-08,3.743218485396937e-06,1.861635610111989e-05,-3.503682819427922e-05,-0.004972419701516628,0.005,-0.0007447247044183314,-0.3759640157222748,0.4941611886024475
0.959753990,0.004009637515991926,-0.005803695879876614,-0.9967660307884216,-6.953193405934144e-06,2.091754140565172e-06,8.725459110792144e-08,2.213605694123544e-05,-2.617425525386352e-05,-0.004992065951228142,0.005,-0.0005292331334203482,-0.3753212988376617,0.4955571889877319
0.964715004,0.003701063105836511,-0.006434472743421793,-0.9962308406829834,-2.240356934635201e-06,-4.352491941972403e-06,1.478210151617532e-06,1.724417961668223e-05,-3.548216773197055e-05,-0.004979005083441734,0.005,-0.0005747151444666088,-0.3754674196243286,0.4946108758449554
0.969901800,0.003552236594259739,-0.005915100686252117,-0.9964902400970459,7.622552971042751e-07,1.114893052545085e-06,-5.115131898492109e-06,1.627733581699431e-05,-2.704625148908235e-05,-0.004983582068234682,0.005,-0.001161838183179498,-0.3760131895542145,0.495747298002243
0.975065351,0.003582321340218186,-0.005948899779468775,-0.9964449405670166,3.734704478119966e-06,-7.469570277862658e-07,-6.834513897047145e-07,1.791124850569759e-05,-2.977053554786835e-05,-0.004982632119208574,0.005,-0.0009592969436198473,-0.375575989484787,0.4950652420520782
0.980203748,0.003571293782442808,-0.006123443134129047,-0.9963237643241882,4.302949037082726e-06,7.076913789205719e-06,-3.169441924910643e-06,1.748925205902196e-05,-3.171724893036298e-05,-0.004979644436389208,0.005,-0.0006666404660791159,-0.3749151229858398,0.4957750141620636
0.985317349,0.003848927794024348,-0.005641013383865356,-0.9968761205673218,4.210931365378201e-06,-2.008583805945818e-06,-2.030763539551117e-07,2.10401904041646e-05,-2.497234163456596e-05,-0.004988465458154678,0.005,-0.001122898887842894,-0.3751803934574127,0.4952494204044342
0.990406632,0.003668155521154404,-0.006104193162173033,-0.9958934187889099,1.516616094932033e-07,1.125806306845334e-06,8.424994462075119e-07,1.719556348689366e-05,-3.306178041384555e-05,-0.004973576869815588,0.005,-0.000576050893869251,-0.3751753568649292,0.4951364994049072
0.995471120,0.003458388149738312,-0.005759612191468477,-0.995943009853363,3.271791797487822e-07,3.460727384663187e-06,2.022620492425631e-06,1.572130713611841e-05,-2.726270395214669e-05,-0.004979583900421858,0.005,-0.0002598350401967764,-0.3749634027481079,0.4959608018398285
1.000514865,0.003236979246139526,-0.006127120461314917,-0.9957413077354431,3.158986373819062e-06,-5.238989615463652e-07,-1.2351135865174e-06,1.482918105466524e-05,-3.26519257214386e-05,-0.0049779680557549,0.005,-0.001053282292559743,-0.3754330277442932,0.4955596327781677
1.005535722,0.003269817912951112,-0.006035021971911192,-0.9958634972572327,-2.271356294158977e-07,6.48472905595554e-06,7.61164528739755e-07,1.678177977737505e-05,-3.014733738382347e-05,-0.004979168530553579,0.005,-0.0009557864395901561,-0.3756799697875977,0.4955298006534576
1.010531783,0.003641008166596293,-0.005822590086609125,-0.9966379404067993,1.696012873253494e-06,1.559201336931437e-06,-1.154552577986578e-07,2.087894426949788e-05,-2.743507866398431e-05,-0.004988917149603367,0.005,-0.0009540116880089045,-0.3755060434341431,0.4964256882667542
1.015504360,0.003483829321339726,-0.006185902282595634,-0.9958703517913818,-2.788712890833267e-06,-3.853890575555852e-07,-9.878239097815822e-07,1.610995968803763e-05,-3.347250094520859e-05,-0.004974300041794777,0.005,-0.0009057990973815322,-0.3753030896186829,0.4950788021087646
1.020452857,0.00376100093126297,-0.005497744772583246,-0.9965164661407471,-3.765183691939455e-06,-2.177930355173885e-06,1.098558414014406e-06,2.057882011285983e-05,-2.303834298800211e-05,-0.004986547864973545,0.005,-0.001431709039025009,-0.3758240342140198,0.4949706196784973
1.025377989,0.003251893911510706,-0.005796775687485933,-0.995908260345459,4.587773673847551e-06,6.866935677862784e-07,4.999049565412861e-07,1.349322155874688e-05,-3.073792322538793e-05,-0.004976211115717888,0.005,-0.001154960249550641,-0.3759845495223999,0.4943718612194061
1.030279994,0.003212358336895704,-0.005676682107150555,-0.9960079789161682,-1.389989847666584e-07,-2.466403202561196e-06,-6.019670308887726e-07,1.571425491420086e-05,-2.810548539855517e-05,-0.004979767836630344,0.005,-0.001373650506138802,-0.3755644559860229,0.4944232404232025
1.035157204,0.003328882390633225,-0.005814291536808014,-0.9961791038513184,4.842192424803216e-07,-1.364542413284653e-06,1.521300987405994e-06,1.748151407809928e-05,-2.960833444376476e-05,-0.004982429556548595,0.005,-0.001167623326182365,-0.3756248652935028,0.4941782355308533
1.040011525,0.003147348528727889,-0.006182972341775894,-0.9955528378486633,-2.982018258990138e-06,-1.475032036069024e-06,-2.848733174687368e-06,1.437184801034164e-05,-3.339456452522427e-05,-0.004973777569830418,0.005,-0.001793366973288357,-0.3756386041641235,0.4951770007610321
1.044841766,0.003651488805189729,-0.00598784489557147,-0.9958227872848511,-3.299990567029454e-06,1.217427097799373e-06,4.519475567121845e-07,2.170056541217491e-05,-2.836705061781686e-05,-0.004980700090527534,0.005,-0.001549546606838703,-0.3753475844860077,0.4945816099643707
1.049648881,0.003674293635413051,-0.006597568746656179,-0.9955872297286987,2.244436473120004e-06,1.059525743585255e-06,7.181513979048759e-07,1.849500768003054e-05,-3.701060632010922e-05,-0.004976587370038033,0.005,-0.001360261929221451,-0.3759452104568481,0.4935708343982697
1.054853320,0.003761655883863568,-0.006196154747158289,-0.9962562322616577,-1.585625454936235e-06,3.120390772437531e-07,3.871474746119929e-06,1.954709841811564e-05,-2.919159123848658e-05,-0.004984626546502113,0.005,-0.001362148555926979,-0.3757812976837158,0.4933137595653534
1.060033560,0.00361400144174695,-0.006173176690936089,-0.9968262910842896,2.538041144362069e-06,-1.510945139671094e-06,2.213468633271987e-06,1.701645305729471e-05,-3.074936830671504e-05,-0.004988915752619505,0.005,-0.0009179298067465425,-0.3752312958240509,0.4940024316310883
1.065188646,0.003607413033023477,-0.006308297626674175,-0.9958706498146057,-2.312439619345241e-06,3.47010109180701e-06,1.408543198522239e-06,1.789155430742539e-05,-3.304892379674129e-05,-0.004973052535206079,0.005,-0.000808415119536221,-0.3755537271499634,0.4935453832149506
1.070320129,0.003407435026019812,-0.005812306888401508,-0.9962319731712341,6.246381758501229e-07,-2.750125304373796e-06,-1.836833348534128e-06,1.580192110850476e-05,-2.576897168182768e-05,-0.004983327351510525,0.005,-0.0007940821233205497,-0.3756323158740997,0.4937314987182617
1.075426102,0.003321980126202106,-0.006438544951379299,-0.9960340857505798,8.1704706644814e-07,1.202385305987264e-06,3.671547972317057e-07,1.551921377540566e-05,-3.614845263655297e-05,-0.004979601595550776,0.005,-0.000565540452953428,-0.3754996061325073,0.4940156042575836
1.080507636,0.00371636776253581,-0.005819534417241812,-0.9966310858726501,-1.555420794829843e-06,-2.736033593464526e-06,-6.681169111288909e-07,2.086962558678351e-05,-2.526279786252417e-05,-0.004986527375876904,0.005,-0.0006663931417278945,-0.3754715025424957,0.4949500858783722
1.085564971,0.003745605237782001,-0.006354943849146366,-0.9955881834030151,3.202982270522625e-06,-1.864115120042698e-06,5.704094405700744e-07,1.906962643261068e-05,-3.485138950054534e-05,-0.004971941933035851,0.005,-0.0007994553307071328,-0.3757676482200623,0.4936981499195099
1.090596914,0.003703157184645534,-0.005950549617409706,-0.9956402778625488,-2.610554474813398e-06,-1.420179728484072e-06,1.308596779381332e-06,1.76078247022815e-05,-2.776446854113601e-05,-0.004978016018867493,0.005,-0.0008990697097033262,-0.3757738769054413,0.495257556438446
1.095609903,0.00378216290846467,-0.005997208878397942,-0.9963086843490601,-2.841030095623864e-07,-2.30623686547915e-06,-9.048059155247756e-07,1.995583261305001e-05,-2.984135062433779e-05,-0.004986357409507036,0.005,-0.001163601293228567,-0.3756913542747498,0.4948379695415497
1.100597978,0.00363497412763536,-0.006536464206874371,-0.9956331253051758,-5.163350579096004e-06,1.326018121972083e-07,-1.534452735540981e-06,1.704850365058519e-05,-3.624277087510563e-05,-0.004973586648702621,0.005,-0.001465725712478161,-0.3759000301361084,0.4950573146343231
1.105562925,0.00365406321361661,-0.005881913937628269,-0.9963528513908386,2.401801111773239e-06,-5.799170139653143e-07,-3.195688123014406e-06,1.840037475631107e-05,-2.503432006051298e-05,-0.004986453801393509,0.005,-0.001354823587462306,-0.3759303092956543,0.4947239458560944
1.110503674,0.003869685577228665,-0.006155475042760372,-0.9956108331680298,1.218172769767989e-06,4.157911916990997e-06,-2.69402175945288e-06,2.087284519802779e-05,-3.223414023523219e-05,-0.004973858129233122,0.005,-0.001052862731739879,-0.3754037916660309,0.4956657290458679
1.115420103,0.004010348115116358,-0.006031550001353025,-0.9964339733123779,-1.061176249095297e-06,2.759117933237576e-06,1.804181692932616e-06,2.107656473526731e-05,-2.988570668094326e-05,-0.004985598847270012,0.005,-0.0006055732956156135,-0.3755967020988464,0.4947890639305115
1.120313644,0.003950644750148058,-0.006162748672068119,-0.9963502287864685,3.550707106114714e-06,3.521561211528024e-06,-1.855899427027907e-06,1.944552786881104e-05,-3.082392504438758e-05,-0.004982437007129192,0.005,-0.0004104738472960889,-0.3757654130458832,0.4958711564540863
1.125183702,0.00358808902092278,-0.0064259790815413,-0.995840847492218,7.207477779047622e-07,3.410629688005429e-06,-4.889814590569586e-06,1.530956069473177e-05,-3.419417043915018e-05,-0.004976212047040462,0.005,-0.001082564238458872,-0.3756819069385529,0.4955855011940002
1.130029559,0.003661223454400897,-0.005793158896267414,-0.9964504241943359,-5.202097327128286e-06,-2.749779696387122e-06,-6.23156950041448e-07,1.884906851046253e-05,-2.520480120438151e-05,-0.004986187443137169,0.005,-0.001556221046485007,-0.3753595948219299,0.4954605400562286
1.134852409,0.003558648517355323,-0.006501308176666498,-0.9961084723472595,4.750225343741477e-06,-4.579496817314066e-06,1.929664904309902e-06,1.736709964461625e-05,-3.659875437733717e-05,-0.004978226963430643,0.005,-0.0009542793268337846,-0.3752204477787018,0.494489461183548
1.139736056,0.003628453239798546,-0.006113802548497915,-0.9968706369400024,6.429073891922599e-06,5.610978860204341e-06,2.620016175569617e-06,1.858112773334142e-05,-2.812286948028486e-05,-0.004989721812307835,0.005,-0.000876049802172929,-0.3751666843891144,0.4945937395095825
1.144934416,0.003882586257532239,-0.006054682191461325,-0.9958714246749878,2.637238367242389e-06,-2.015221070905682e-06,1.027580879053858e-06,2.133132693415973e-05,-2.919447069871239e-05,-0.004973871633410454,0.005,-0.001294616144150496,-0.3749912083148956,0.4950643181800842
1.150107622,0.003880027681589127,-0.006368147674947977,-0.9960954785346985,-8.332733614224708e-08,1.166062020274694e-06,1.277662363463605e-06,1.969007644220255e-05,-3.399186971364543e-05,-0.004979351535439491,0.005,-0.0009002352016977966,-0.3755078613758087,0.4939793050289154
1.155256033,0.00375090423040092,-0.006020653527230024,-0.9968576431274414,7.804192136973143e-06,5.275872538845761e-08,-2.169620643144299e-07,1.820797660911921e-05,-2.716396011237521e-05,-0.004989786073565483,0.005,-0.001204479718580842,-0.3757114112377167,0.4948882460594177
1.160379887,0.003506796667352319,-0.006485957186669111,-0.9961802363395691,3.986494903074345e-06,8.916009264225977e-09,-2.125224000337766e-06,1.595129106135573e-05,-3.585682497941889e-05,-0.004975894466042519,0.005,-0.001274342415854335,-0.3754309117794037,0.4948649108409882
1.165481687,0.00377704668790102,-0.006056041456758976,-0.9962424635887146,-1.121724153563264e-06,4.594214260578156e-06,-1.386507960887684e-06,2.023382694460452e-05,-2.726994352997281e-05,-0.004981254227459431,0.005,-0.0009987761732190847,-0.3752390444278717,0.4954803586006165
1.170558929,0.003733368823304772,-0.006095837336033583,-0.9958356618881226,1.142225414696441e-06,4.214226919430075e-06,-5.002580039104032e-08,1.83969023055397e-05,-3.026281956408639e-05,-0.004977665841579437,0.005,-0.001216729404404759,-0.3757067918777466,0.4953448176383972
1.175611377,0.003443941473960876,-0.006213720422238111,-0.9957808256149292,-6.098329095038935e-07,-1.571141069689475e-06,7.608263672409521e-07,1.513476036052452e-05,-3.253127943025902e-05,-0.004978204146027565,0.005,-0.001352949184365571,-0.3752142786979675,0.4959151148796082
1.180639982,0.003448629286140203,-0.005988453514873981,-0.995428204536438,-1.131167664425448e-06,1.737226739351172e-06,5.971934342596796e-07,1.766493733157404e-05,-2.760214374575298e-05,-0.004976082127541304,0.005,-0.001216971199028194,-0.375347763299942,0.4948963522911072
1.185644746,0.003161725588142872,-0.005913960747420788,-0.9951868057250977,-4.989587068848778e-06,8.798714929980633e-07,1.953148967004381e-06,1.404047179676127e-05,-2.974836024804972e-05,-0.004973112139850855,0.005,-0.0008545811288058758,-0.3757902681827545,0.4956143796443939
1.190625548,0.003550295252352953,-0.005806497298181057,-0.9964590072631836,3.344394599480438e-06,-8.235593668359797e-06,2.912032869062386e-06,2.017459155467805e-05,-2.804415635182522e-05,-0.004990238230675459,0.005,-0.001574476365931332,-0.3755415081977844,0.4947749376296997
1.195582151,0.003395664039999247,-0.006085794419050217,-0.9965164661407471,5.358861017157324e-06,-3.702878984768176e-06,-5.896963557461277e-07,1.608406455488876e-05,-3.238596400478855e-05,-0.004983901046216488,0.005,-0.0009427715558558702,-0.3748616576194763,0.4950086176395416
1.200515032,0.003447827184572816,-0.005740656051784754,-0.9967703819274902,4.377828872748069e-07,4.145558250456816e-06,1.6685387436155e-06,1.764946864568628e-05,-2.777379631879739e-05,-0.004984759259968996,0.005,-0.0007831049733795226,-0.3756470084190369,0.4953196346759796
1.205423355,0.003604308236390352,-0.005620068404823542,-0.9962365031242371,1.072055738404742e-06,-4.813368832401466e-07,-1.626390599085425e-06,1.857400275184773e-05,-2.662847873580176e-05,-0.004978904034942389,0.005,-0.0009848478948697448,-0.3759801387786865,0.4963650107383728
1.210308075,0.003755014855414629,-0.005926698911935091,-0.9961962103843689,-4.07633751819958e-06,3.387249307706952e-07,-2.162066721211886e-06,1.922933734022081e-05,-3.211214061593637e-05,-0.004979926627129316,0.005,-0.001154712750576437,-0.3755863904953003,0.4966586828231812
1.215169072,0.003792772768065333,-0.006074133794754744,-0.996530294418335,5.790773229819024e-06,6.145187853690004e-06,-3.239969828428002e-06,1.951560261659324e-05,-3.082359398831613e-05,-0.004984611179679632,0.005,-0.0009006256004795432,-0.3758602738380432,0.4965588748455048
1.220007896,0.003556940471753478,-0.006331782322376966,-0.9956832528114319,-1.168252651950752e-06,-1.408456910212408e-06,2.883660272345878e-06,1.663551483943593e-05,-3.379961708560586e-05,-0.004973434843122959,0.005,-0.001176349353045225,-0.3760353624820709,0.4957095980644226
1.224823833,0.003537569427862763,-0.006241479888558388,-0.9958735704421997,1.669208131716005e-06,2.923050715253339e-06,2.018409304582747e-06,1.71267402038211e-05,-3.119550819974393e-05,-0.004980072844773531,0.005,-0.001242968835867941,-0.3755927383899689,0.4957759380340576
1.229700327,0.003676607506349683,-0.006574875209480524,-0.9951748847961426,1.862531121332722e-06,4.535062032573478e-07,1.944677485710145e-08,1.885054734884761e-05,-3.424629539949819e-05,-0.004972239024937153,0.005,-0.0009635488968342543,-0.3753714561462402,0.4953978955745697
1.234891295,0.003651459701359272,-0.006301410961896181,-0.9957248568534851,1.268238918328279e-07,1.890462044684682e-06,-2.310821173523436e-06,1.805971987778321e-05,-3.070853563258424e-05,-0.004981032107025385,0.005,-0.001184699824079871,-0.3757626116275787,0.4956414401531219
1.240057349,0.003425745759159327,-0.0063578593544662,-0.9962247610092163,-4.295671658383071e-07,1.217589016277998e-07,-3.940721398976166e-06,1.581868673383724e-05,-3.122579801129177e-05,-0.004984315950423479,0.005,-0.001098302192986012,-0.3756177723407745,0.4957456886768341
1.245199084,0.003443935187533498,-0.006649567745625973,-0.9957656264305115,-7.352623470069375e-07,5.07222603118862e-06,2.959527876100765e-07,1.705703834886663e-05,-3.517371078487486e-05,-0.004976094700396061,0.005,-0.001395736122503877,-0.3752183616161346,0.4961782693862915
1.250316024,0.003770130919292569,-0.006352304015308619,-0.9962636828422546,-3.463732809905196e-06,-2.786593768178136e-06,1.164186869573314e-06,2.056028097285889e-05,-3.047557038371451e-05,-0.004984642378985882,0.005,-0.001378349727019668,-0.3756527602672577,0.4955522119998932
1.255407929,0.003513860516250134,-0.006542224902659655,-0.995553195476532,1.659356826166913e-06,1.622328227313119e-06,-1.342960160855e-07,1.601318399480078e-05,-3.316521906526759e-05,-0.004973652306944132,0.005,-0.0009749596356414258,-0.3753729462623596,0.4957844316959381
1.260476947,0.003764863824471831,-0.006357171572744846,-0.9959693551063538,-3.980174824391725e-06,1.604121848686191e-06,-6.481070613517659e-07,2.033426790148951e-05,-3.132313213427551e-05,-0.004981833044439554,0.005,-0.001167884794995189,-0.3753304779529572,0.494836837053299
1.265522718,0.004039265681058168,-0.006222128868103027,-0.9960243105888367,8.032877758523682e-07,1.670800315878296e-06,-1.041695327330672e-06,2.185524499509484e-05,-2.980781391670462e-05,-0.004981343634426594,0.005,-0.0008571814396418631,-0.3751294016838074,0.4941006898880005
1.270544171,0.003621084615588188,-0.006460222415626049,-0.9959336519241333,-4.043381977680838e-06,-1.426077574251394e-06,4.892917218057846e-07,1.561091812618542e-05,-3.406383257242851e-05,-0.004978051409125328,0.005,-0.0006416894029825926,-0.3753401041030884,0.4931657612323761
1.275542498,0.003582763485610485,-0.006154495757073164,-0.9966221451759338,3.471781838015886e-06,-1.892102545753005e-06,1.802114184101811e-06,1.779383819666691e-05,-2.840357410605066e-05,-0.004987525288015604,0.005,-0.001196160912513733,-0.3752048313617706,0.4946041107177734
1.280516624,0.003520279191434383,-0.006589413154870272,-0.9960486888885498,-5.741142672377464e-07,1.548022396491433e-06,2.210926766110788e-07,1.704749229247682e-05,-3.538620876497589e-05,-0.004976861178874969,0.005,-0.00135525711812079,-0.3753238320350647,0.4932423830032349
1.285466671,0.003626791061833501,-0.006241356953978539,-0.9966297149658203,9.922974868459278e-07,1.552939238536055e-06,-2.759123162832111e-06,1.869344123406336e-05,-2.978439988510218e-05,-0.00498672854155302,0.005,-0.001357549452222884,-0.3760489523410797,0.493632048368454
1.290393353,0.003603024175390601,-0.006485374644398689,-0.9961477518081665,4.548343440546887e-06,-4.847987383982399e-06,-1.092388401957578e-06,1.793918818293605e-05,-3.356310844537802e-05,-0.00497853197157383,0.005,-0.001064910902641714,-0.3758918642997742,0.4936062693595886
1.295296311,0.003681058529764414,-0.00623985193669796,-0.9962085485458374,-1.347199116707998e-07,-2.190606437579845e-06,-2.212692379544023e-06,1.914459062390961e-05,-2.976328323711641e-05,-0.00498052267357707,0.005,-0.0008694151183590293,-0.3756226599216461,0.4944059550762177
1.300175905,0.003848340595141053,-0.006069534923881292,-0.9964731931686401,-1.417939074599417e-06,-5.199194674787577e-06,1.581523633831239e-06,2.044605389528442e-05,-2.921836130553856e-05,-0.004985286854207516,0.005,-0.0004989879671484232,-0.3760180771350861,0.4935416579246521
1.305031180,0.003431711811572313,-0.006378181744366884,-0.9954620003700256,-4.272059186405386e-07,2.237476564914687e-06,5.892547960684169e-07,1.480754599469947e-05,-3.408059637877159e-05,-0.004970424808561802,0.005,-0.001300144125707448,-0.3756409883499146,0.4944604337215424
1.309863687,0.00349057000130415,-0.005827766843140125,-0.9965686798095703,2.067750529022305e-06,1.020931748030307e-07,1.16561864160758e-06,1.812646405596752e-05,-2.597371167212259e-05,-0.004989404231309891,0.005,-0.001302481861785054,-0.3754308223724365,0.4937699735164642
1.314673185,0.003450882621109486,-0.006303787231445312,-0.9961530566215515,5.111685823067091e-06,-7.49928494769847e-06,-4.134239134145901e-06,1.711217919364572e-05,-3.416844992898405e-05,-0.004978630226105452,0.005,-0.0008194749243557453,-0.3754710257053375,0.4934771060943604
1.319797039,0.003564236452803016,-0.005962711293250322,-0.9962053298950195,-4.018666913907509e-06,3.273170932516223e-06,-2.875792915801867e-06,1.825720028136857e-05,-2.821406997099984e-05,-0.00498078390955925,0.005,-0.001367615186609328,-0.3757218420505524,0.4934754967689514
1.324981809,0.003188613336533308,-0.005859388038516045,-0.9961230158805847,5.149840490048518e-06,-1.330891223005892e-06,9.364425181956904e-07,1.367425102216657e-05,-2.820104418788105e-05,-0.004980640951544046,0.005,-0.001057902700267732,-0.375298023223877,0.4950656592845917
1.330141425,0.003047265810891986,-0.006219078321009874,-0.995671808719635,-1.03279410268442e-06,-2.8360404940031e-06,1.675052487826179e-07,1.414541384292534e-05,-3.379826011951081e-05,-0.004974925890564919,0.005,-0.0006504454649984837,-0.3752279579639435,0.4945217072963715
1.335276842,0.003542570630088449,-0.005655358545482159,-0.9963357448577881,1.68214091900154e-06,-5.022303867008304e-06,-2.159333462259383e-06,2.078768920910079e-05,-2.493658030289225e-05,-0.004986093379557133,0.005,-0.0001966976269613951,-0.375730574131012,0.4956317842006683
1.340387821,0.003358958987519145,-0.006090251263231039,-0.9957984685897827,-1.505256506106889e-07,2.323354465261218e-06,3.05497405861388e-06,1.570357744640205e-05,-3.272282629041001e-05,-0.004975704476237297,0.005,-0.0004226352903060615,-0.3757504522800446,0.4946669042110443
1.345473289,0.003395894076675177,-0.006249669473618269,-0.9959886074066162,-5.549402430915507e-06,-1.803205918804451e-06,-2.580502268756391e-06,1.738107312121429e-05,-3.263630424044095e-05,-0.004980594851076603,0.005,-0.0008402320672757924,-0.3755677342414856,0.4954800307750702
1.350534439,0.003679908579215407,-0.00636642798781395,-0.9952908754348755,4.219352831569267e-06,-2.547131771279965e-06,5.100931957713328e-06,2.01525617740117e-05,-3.27392372128088e-05,-0.004973422270268202,0.005,-0.0008621127926744521,-0.3759141564369202,0.4946685135364532
1.355570912,0.003905307734385133,-0.005891867913305759,-0.9955906271934509,1.944193428471408e-07,3.38973632096895e-06,-4.372981834421807e-07,2.096352181979455e-05,-2.678942837519571e-05,-0.004978412762284279,0.005,-0.0009240385261364281,-0.3758454322814941,0.4955587089061737
1.360583186,0.004075808916240931,-0.006080443970859051,-0.9971033930778503,-1.996806076931534e-06,-2.729583911786904e-06,2.601354026410263e-06,2.126497201970778e-05,-3.112990452791564e-05,-0.004995199386030436,0.005,-0.001032278756611049,-0.3757799565792084,0.4948176443576813
1.365576506,0.003751937998458743,-0.006623766385018826,-0.9970166683197021,1.820020429477154e-06,-4.894393512699935e-08,-1.184720986202592e-06,1.682298898231238e-05,-3.664919859147631e-05,-0.004984608385711908,0.005,-0.001183214364573359,-0.3756329417228699,0.495432049036026
1.370546222,0.003776642726734281,-0.005845905281603336,-0.9971138834953308,-2.83357303487719e-06,3.098320121353026e-06,-1.95864527086087e-06,1.9245646399213e-05,-2.489183680154383e-05,-0.00498628243803978,0.005,-0.001345957862213254,-0.3755991756916046,0.4945457279682159
1.375492096,0.00339733948931098,-0.00625844020396471,-0.9963347315788269,5.13284612679854e-06,1.702624217614357e-06,1.278532977266877e-06,1.435602644050959e-05,-3.369082332937978e-05,-0.004977133125066757,0.005,-0.001467225607484579,-0.3750837445259094,0.4960765838623047
1.380414963,0.003319827606901526,-0.006029424723237753,-0.9967689514160156,-3.383921011845814e-06,-2.977042868224089e-06,-2.644939286255976e-06,1.638303183426615e-05,-2.933004543592688e-05,-0.004985766485333443,0.005,-0.00139591796323657,-0.3750009834766388,0.4961375296115875
1.385313272,0.003401558380573988,-0.005696907173842192,-0.9966729283332825,-4.684131454268936e-06,-1.096768073693966e-06,2.946452184460213e-07,1.769086884451099e-05,-2.561060500738677e-05,-0.00498376227915287,0.005,-0.001534414826892316,-0.375236988067627,0.4952696859836578
1.390188336,0.003209664719179273,-0.006376299075782299,-0.9955155849456787,3.010705768247135e-06,-9.925139465849497e-07,8.394820838475425e-07,1.485329812567215e-05,-3.637378540588543e-05,-0.004970221780240536,0.005,-0.001389624085277319,-0.3753158450126648,0.4953402876853943
1.395040274,0.003573308931663632,-0.006252998951822519,-0.9958319664001465,-2.484589231244172e-06,-1.650312128731457e-06,1.274989784860736e-07,2.013472840189934e-05,-3.021731026819907e-05,-0.004981304984539747,0.005,-0.001011907239444554,-0.3750784993171692,0.4950186312198639
1.399868965,0.003623404772952199,-0.006490452215075493,-0.9956820607185364,4.955006716045318e-07,8.216273954531061e-07,-3.23572658089688e-06,1.851230626925826e-05,-3.389767516637221e-05,-0.004977364093065262,0.005,-0.001355444779619575,-0.3754523396492004,0.4944014549255371
1.404673815,0.003782140091061592,-0.005595722235739231,-0.9961341619491577,-2.844339633156778e-06,-2.220917394879507e-06,1.727089397718373e-06,1.991302269743755e-05,-2.287250390509143e-05,-0.004983309656381607,0.005,-0.0009326571016572416,-0.3758859634399414,0.4943890571594238
1.409874916,0.00367578212171793,-0.005863653961569071,-0.9958082437515259,1.860406655396218e-06,-1.020439981402887e-06,7.09529615505744e-07,1.795133539417293e-05,-3.046182246180251e-05,-0.004977702163159847,0.005,-0.0009834222728386521,-0.3753589987754822,0.4945895373821259
1.415051579,0.003428784431889653,-0.006041329354047775,-0.9954532384872437,-1.531525526843325e-06,5.559382429964899e-07,-2.94250889965042e-06,1.560817145218607e-05,-3.128620664938353e-05,-0.004974451847374439,0.005,-0.001032101572491229,-0.3753901422023773,0.4945241808891296
1.420203567,0.003519488498568535,-0.005613491404801607,-0.9958993792533875,2.05335868486145e-06,-7.477453323190275e-07,1.13090061404364e-06,1.855276968854014e-05,-2.541998765082099e-05,-0.004982783459126949,0.005,-0.001100315013900399,-0.375535637140274,0.4942611753940582
1.425330997,0.003194997785612941,-0.006079085636883974,-0.9953138828277588,-3.382413979124976e-06,-4.569821214772674e-07,2.961121481348528e-06,1.380933099426329e-05,-3.325771103845909e-05,-0.004972660914063454,0.005,-0.0009282338432967663,-0.3749232888221741,0.4941227436065674
1.430433035,0.003408799879252911,-0.006178742274641991,-0.9959893226623535,-2.450503586715058e-07,4.104380877834046e-06,1.370937638967007e-06,1.823594357119873e-05,-3.162101711495779e-05,-0.004983503837138414,0.005,-0.0008451047469861805,-0.374911367893219,0.4940011501312256
1.435510755,0.00385809619911015,-0.006568208802491426,-0.9958043098449707,1.590091528669291e-06,-3.109161355041579e-07,2.311291922296732e-07,2.208259502367582e-05,-3.509831731207669e-05,-0.004979015327990055,0.005,-0.0007716876571066678,-0.3752712309360504,0.4944036602973938
1.440567255,0.003748086513951421,-0.006486074067652225,-0.9957746267318726,-1.748045860949787e-06,4.780932158610085e-06,1.989158135984326e-06,1.786092616384849e-05,-3.265541818109341e-05,-0.004977535922080278,0.005,-0.0005104398587718606,-0.3753228485584259,0.4953048229217529
1.445600986,0.003985458984971046,-0.006017057690769434,-0.9960058331489563,-6.120248485785851e-07,1.252742890756053e-06,1.491693524258153e-06,2.148172643501312e-05,-2.692776615731418e-05,-0.004981912206858397,0.005,-0.00093727937201038,-0.3752901554107666,0.4954589903354645
1.450610995,0.00368176493793726,-0.006177494768053293,-0.9958978295326233,-8.614575790488743e-07,-3.156539207793685e-07,-2.868374394893181e-06,1.656110362091567e-05,-3.226268381695263e-05,-0.0049782395362854,0.005,-0.001276081893593073,-0.3754102289676666,0.4951537847518921
1.455596805,0.003820937825366855,-0.005822959821671247,-0.9965277910232544,-3.54278949998843e-06,-3.813785269812797e-07,1.351580976916011e-06,1.996878745558206e-05,-2.715955088206101e-05,-0.004986648913472891,0.005,-0.000907862326130271,-0.3755887150764465,0.495095819234848
1.460558057,0.003566551953554153,-0.006009769625961781,-0.9961376190185547,1.979427224796382e-06,7.64431752031669e-06,-1.182939172394981e-06,1.633661486266647e-05,-3.087310324190184e-05,-0.004978609271347523,0.005,-0.001223722705617547,-0.3751915693283081,0.4956555068492889
1.465495825,0.00351511430926621,-0.005921523552387953,-0.9963766932487488,6.337646141219011e-08,-6.031910260162476e-08,-3.137532473829197e-07,1.754411641741171e-05,-2.915596451202873e-05,-0.004982651676982641,0.005,-0.00120848638471216,-0.3754384815692902,0.4948476850986481
1.470410228,0.003518125042319298,-0.005885282997041941,-0.9968304634094238,4.461606295080855e-06,-1.353072207166406e-06,1.40993779496057e-06,1.764869011822157e-05,-2.877018778235652e-05,-0.004987300839275122,0.005,-0.0007847387460060418,-0.3759224116802216,0.4953771531581879
1.475301385,0.003428013995289803,-0.005818641278892756,-0.9962267875671387,3.161997256029281e-06,3.074679852943518e-06,-4.374710897536715e-06,1.657043685554527e-05,-2.899315222748555e-05,-0.00497701158747077,0.005,-0.001264730002731085,-0.3757015764713287,0.4956609606742859
1.480168223,0.003632882842794061,-0.005824396852403879,-0.9963610172271729,2.477901716702036e-06,-4.366100711195031e-06,5.4009461791793e-07,1.927910670929123e-05,-2.924865475506522e-05,-0.004982464946806431,0.005,-0.001867923187091947,-0.3755209445953369,0.4953088760375977
1.485011935,0.003536396427080035,-0.006011385004967451,-0.9961073994636536,-1.807170662004864e-07,-3.898206159647088e-06,-1.202261159960472e-06,1.698139749350958e-05,-3.135853694402613e-05,-0.004979528021067381,0.005,-0.001646015211008489,-0.3756714463233948,0.4945033192634583
1.489832759,0.003264922183007002,-0.006055310368537903,-0.9969048500061035,2.295649892403162e-06,3.369027126609581e-06,2.147665099982987e-06,1.43185789056588e-05,-3.083797855651937e-05,-0.004989826120436192,0.005,-0.001634282292798162,-0.3755339384078979,0.4955458045005798
1.494714618,0.003138377331197262,-0.00632282393053174,-0.9963123798370361,7.387820460280636e-06,-3.892784206982469e-06,-6.113186259426584e-07,1.504067404312082e-05,-3.309392559458502e-05,-0.004978841170668602,0.005,-0.001005845610052347,-0.3754907846450806,0.4954060614109039
1.499908805,0.003651041304692626,-0.006186184473335743,-0.9962006211280823,5.043422675043985e-07,4.966732376487926e-07,-3.79877383238636e-06,2.088014480250422e-05,-3.016021582880057e-05,-0.004979337565600872,0.005,-0.0007620222168043256,-0.3759776949882507,0.4954336285591125
1.505078316,0.003772620810195804,-0.005977160297334194,-0.9968177676200867,1.257137682841858e-06,1.629862140362093e-06,3.414407956370269e-07,1.991154749703128e-05,-2.829370896506589e-05,-0.004988144151866436,0.005,-0.0003758213424589485,-0.3761288821697235,0.4940715432167053
1.510221601,0.003373072715476155,-0.006030121352523565,-0.9960232973098755,3.384197384548315e-07,2.094701812893618e-06,-1.366010337733314e-06,1.449455521651544e-05,-3.057475623791106e-05,-0.004975385032594204,0.005,-0.0005428685108199716,-0.3755501210689545,0.4939866662025452
1.515340328,0.003543006256222725,-0.005926467478275299,-0.9959543347358704,5.390507453739701e-07,-2.971781611904589e-07,2.2702249680151e-06,1.846985651354771e-05,-2.912314084824175e-05,-0.004978957120329142,0.005,-0.0007076386827975512,-0.3753831684589386,0.4937846958637238
1.520434141,0.003267032094299793,-0.006131251808255911,-0.995300829410553,-3.312118934672981e-08,2.217663990222718e-07,-2.630461949593155e-06,1.494581829319941e-05,-3.18094425892923e-05,-0.004972944036126137,0.005,-0.001005269354209304,-0.3758825063705444,0.4945518672466278
1.525506258,0.003215866163372993,-0.006320574320852757,-0.9952877759933472,-2.580582986411173e-06,1.995537779464485e-08,3.148172709188657e-06,1.594882814970333e-05,-3.307461156509817e-05,-0.004975682124495506,0.005,-0.0008053509518504143,-0.3754879236221313,0.494660884141922
1.530553579,0.003099002176895738,-0.006423653569072485,-0.9951725006103516,-2.205589225923177e-06,-3.4061392852891e-06,1.544376686979376e-06,1.491074363002554e-05,-3.228040441172197e-05,-0.004975785501301289,0.005,-0.0004500536015257239,-0.3755307793617249,0.4946328699588776
1.535576344,0.003289525164291263,-0.006400258280336857,-0.9948846697807312,1.666431785452005e-06,5.175386945666105e-07,-8.421974371231045e-07,1.763119325914886e-05,-3.227925481041893e-05,-0.004972320515662432,0.005,-0.0009955912828445435,-0.3757872879505157,0.494091123342514
1.540575266,0.003429325763136148,-0.006010851357132196,-0.9958759546279907,-3.580560587579384e-06,5.87875911151059e-06,-3.443703235461726e-06,1.790447458915878e-05,-2.768181002466008e-05,-0.004985251929610968,0.005,-0.0007410328253172338,-0.3758859932422638,0.4947388470172882
1.545549512,0.00314100761897862,-0.006165069062262774,-0.9958677291870117,6.01456849835813e-06,-6.281442210820387e-07,-2.411037257843418e-06,1.39449684866122e-05,-3.162563007208519e-05,-0.004980124533176422,0.005,-0.0009121706243604422,-0.3757424354553223,0.4941809177398682
1.550500393,0.003489294555038214,-0.005883083678781986,-0.9961856007575989,-2.962891130664502e-06,3.48552305240446e-07,-1.764539803161824e-07,1.959415021701716e-05,-2.838906220858917e-05,-0.004982051439583302,0.005,-0.001208750181831419,-0.3753390610218048,0.4945483505725861
1.555427313,0.00338899134658277,-0.006134259514510632,-0.9962302446365356,4.340242298894736e-07,2.831050096574472e-06,-2.281422410987943e-07,1.616953522898257e-05,-3.142299829050899e-05,-0.004982085898518562,0.005,-0.001166206900961697,-0.3756232857704163,0.4943963885307312
1.560329676,0.003716472303494811,-0.006084254011511803,-0.9957262277603149,2.491105760782375e-06,2.284482661707443e-06,2.076420969387982e-06,2.027072332566604e-05,-3.041432137251832e-05,-0.004975326359272003,0.005,-0.001261692144908011,-0.3751547932624817,0.4958053827285767
1.565209031,0.003724078414961696,-0.00584902660921216,-0.9963969588279724,-1.277859862369723e-08,-8.075120376815903e-07,-1.429232270311331e-06,1.896545654744841e-05,-2.736614078457933e-05,-0.004986483603715897,0.005,-0.0009426306933164597,-0.3749652206897736,0.4948913753032684
1.570064425,0.003464244306087494,-0.006013061851263046,-0.9955349564552307,4.886341685050866e-06,9.72331235971069e-07,3.464990641077748e-07,1.564849117130507e-05,-3.125939110759646e-05,-0.004972541704773903,0.005,-0.001338547212071717,-0.3754855096340179,0.4960537850856781
1.574896693,0.003521163249388337,-0.005762845743447542,-0.9961497187614441,-7.179044132499257e-06,5.450608568935422e-07,2.663330633367877e-06,1.75748391484376e-05,-2.758269329206087e-05,-0.004984036087989807,0.005,-0.00133998179808259,-0.3750884830951691,0.4954435229301453
1.579705834,0.003460888983681798,-0.00583463441580534,-0.9958121180534363,1.673350197961554e-06,3.024393208761467e-06,-8.813587442091375e-07,1.748584145389032e-05,-2.877613951568492e-05,-0.004977767821401358,0.005,-0.001369126024655998,-0.3751274049282074,0.495835155248642
1.584662795,0.003328264458104968,-0.006069304887205362,-0.9958268404006958,-5.01190982049593e-07,-5.777041565124819e-07,3.260706307628425e-06,1.571362190588843e-05,-3.251589077990502e-05,-0.004978623241186142,0.005,-0.001408162177540362,-0.3753537535667419,0.49498251080513
1.589850426,0.003174917306751013,-0.006015901919454336,-0.9961356520652771,2.869255240511848e-06,6.375324232976709e-07,1.544583710710867e-06,1.504421561548952e-05,-2.89467534457799e-05,-0.004983208142220974,0.005,-0.001225576736032963,-0.3750657439231873,0.4958783984184265
1.595013380,0.003191391471773386,-0.006250150501728058,-0.9954728484153748,2.989974746014923e-06,3.380040425327024e-06,-2.828331844284548e-07,1.59730243467493e-05,-3.252269743825309e-05,-0.004973318427801132,0.005,-0.0008850623853504658,-0.3750509917736053,0.4955196976661682
1.600152612,0.003305311780422926,-0.005640892777591944,-0.9966487884521484,-4.13285351896775e-06,5.586564839177299e-06,-3.123315934772108e-07,1.729078394419048e-05,-2.5024994101841e-05,-0.004990783985704184,0.005,-0.0009400454582646489,-0.3756281733512878,0.4958179593086243
1.605267167,0.003146449103951454,-0.006168731953948736,-0.996427595615387,-6.209027674231038e-07,-2.968572516692802e-07,3.167640898027457e-06,1.537160460429732e-05,-3.307949373265728e-05,-0.004981189500540495,0.005,-0.001112062367610633,-0.3757708966732025,0.4951910376548767
1.610356450,0.003269501961767673,-0.006010887678712606,-0.9962719082832336,-3.462786708041676e-06,3.397685475192702e-07,1.789520297279523e-06,1.644024086999707e-05,-2.962154394481331e-05,-0.004980149678885937,0.005,-0.0008453577174805105,-0.3756239116191864,0.495421826839447
1.615421414,0.0037502262275666,-0.005941397976130247,-0.9958471059799194,6.491217732218502e-07,-4.697781605500495e-06,9.072298325918382e-07,2.166339618270285e-05,-2.856462197087239e-05,-0.004977045580744743,0.005,-0.0007281744619831443,-0.3759381473064423,0.4945641458034515
1.620462060,0.003640441922470927,-0.006058373022824526,-0.995633602142334,-3.172062633893802e-06,3.337875568831805e-06,-2.103305405398714e-06,1.787190376489889e-05,-3.136742816423066e-05,-0.004976123105734587,0.005,-0.001275098649784923,-0.3761809170246124,0.4949722588062286
1.625478625,0.003669483121484518,-0.006025676615536213,-0.9965202212333679,-5.253491508483421e-06,-3.573710500859306e-06,6.930948757144506e-07,1.850204898801167e-05,-3.019152791239321e-05,-0.00498830946162343,0.005,-0.001644211704842746,-0.3756745755672455,0.4953145682811737
1.630470872,0.003521047066897154,-0.006457163020968437,-0.9958158731460571,2.473303538863547e-06,-1.050501964527939e-06,-1.52012205489882e-06,1.692164187261369e-05,-3.44471336575225e-05,-0.004975144285708666,0.005,-0.001209755195304751,-0.3756774961948395,0.4949665367603302
1.635438800,0.003778083482757211,-0.006099046673625708,-0.9964378476142883,-6.23772393737454e-06,2.695146804398973e-06,6.807899239902326e-07,2.055082950391807e-05,-2.910178045567591e-05,-0.004985148087143898,0.005,-0.001392418285831809,-0.376078188419342,0.4942359626293182
1.640382767,0.003796057309955359,-0.006377615034580231,-0.9964256286621094,1.474606392548594e-06,1.046088073053397e-06,-1.208590560963785e-07,1.921526381920557e-05,-3.323552664369345e-05,-0.004982580430805683,0.005,-0.0009278619545511901,-0.3757031559944153,0.4948667287826538
1.645302534,0.003668285207822919,-0.006503450684249401,-0.9961512088775635,-2.071399194392143e-06,2.393999011474079e-06,-6.506429031105654e-07,1.773973963281605e-05,-3.310676038381644e-05,-0.004978788085281849,0.005,-0.0008309989352710545,-0.3753357827663422,0.493780106306076
1.650198817,0.003410256467759609,-0.006221489980816841,-0.9962894916534424,-2.286360540892929e-06,2.621830390125979e-06,1.380451863042254e-06,1.543957296235021e-05,-2.969600973301567e-05,-0.004982922226190567,0.005,-0.0009964162018150091,-0.3756918907165527,0.4937856197357178
1.655078173,0.00375951686874032,-0.006445617880672216,-0.9955424666404724,-2.335710405532154e-06,6.995861440373119e-06,8.127955197778647e-07,2.102158578054514e-05,-3.3283926313743e-05,-0.00497297802940011,0.005,-0.0007651569321751595,-0.3757246732711792,0.4941485822200775
1.659934163,0.004004423972219229,-0.005914063192903996,-0.9960553050041199,2.408103455309174e-06,-1.682754145804211e-06,1.000016141006199e-06,2.167175080103334e-05,-2.675092764548026e-05,-0.004982959944754839,0.005,-0.001022667274810374,-0.3754039406776428,0.4945921003818512
1.664766669,0.003638391615822911,-0.006180201657116413,-0.9958224296569824,2.425178990961285e-06,7.843819815889219e-08,-1.339892719443014e-06,1.595396679476835e-05,-3.221461156499572e-05,-0.004978373181074858,0.005,-0.0006834224332123995,-0.3753840029239655,0.494423896074295
1.669575930,0.00356299732811749,-0.006142558064311743,-0.9958287477493286,-3.293112058599945e-06,1.102784949580382e-06,-1.516936691814408e-07,1.722759952826891e-05,-3.080486203543842e-05,-0.004977880977094173,0.005,-0.0009472740348428488,-0.3752477467060089,0.4944359362125397
1.674781680,0.003588650608435273,-0.005918197799474001,-0.9963509440422058,1.36020889840438e-06,5.39375889729854e-07,-1.806105132118319e-07,1.823421189328656e-05,-2.836417297658045e-05,-0.004985925741493702,0.005,-0.0009959405288100243,-0.3747676908969879,0.4941596984863281
1.679962635,0.003262583864852786,-0.006005409173667431,-0.9959380030632019,-2.900227116242604e-07,9.647106935517513e-07,-3.857182093724987e-07,1.396659990859916e-05,-3.054028275073506e-05,-0.004976279102265835,0.005,-0.001112320460379124,-0.3748190104961395,0.4954001009464264
1.685118437,0.00333072361536324,-0.005798929370939732,-0.996616005897522,4.300300417980907e-07,-2.713051117098075e-07,-1.449093019800785e-06,1.70732855622191e-05,-2.801228220050689e-05,-0.00498754670843482,0.005,-0.001251315348781645,-0.3756385147571564,0.4945345818996429
1.690250039,0.00314357178285718,-0.006029529497027397,-0.996145486831665,3.567915030089353e-07,-3.496080807963153e-06,6.414020958800393e-08,1.473306110710837e-05,-3.175052552251145e-05,-0.004978161305189133,0.005,-0.001129340380430222,-0.3756662011146545,0.4965521395206451
1.695357203,0.003226600354537368,-0.00574002880603075,-0.9962657690048218,-5.583313395618461e-06,-2.7821506591863e-06,3.113267212029314e-06,1.662647628108971e-05,-2.711621345952153e-05,-0.004981578793376684,0.005,-0.0007615691283717752,-0.3755962252616882,0.4957274198532104
1.700438738,0.003327407408505678,-0.006116203498095274,-0.9962104558944702,6.563626357092289e-06,-6.56727388559375e-06,9.152290090241877e-07,1.744846122164745e-05,-3.241239392082207e-05,-0.004980772268027067,0.005,-0.001171439536847174,-0.375948429107666,0.4957652986049652
1.705496550,0.003131247591227293,-0.006160368677228689,-0.9957326054573059,-3.770769581024069e-06,-1.680446530372137e-06,-1.740298785080086e-06,1.45313706525485e-05,-3.118844324490055e-05,-0.004975507035851479,0.005,-0.001392593025229871,-0.3760622143745422,0.4956924617290497
1.710534692,0.003333137836307287,-0.00594237120822072,-0.996269166469574,-3.85011935577495e-06,1.682466290731099e-07,-6.140942900856317e-07,1.787548171705566e-05,-2.874005440389737e-05,-0.004985046572983265,0.005,-0.001211810391396284,-0.3753852248191833,0.4953496158123016
1.715548158,0.003576756920665503,-0.00653625326231122,-0.995949387550354,1.757851578076952e-06,-4.289452135708416e-06,-1.005005287879612e-06,1.918007001222577e-05,-3.610787825891748e-05,-0.004977747797966003,0.005,-0.001329061691649258,-0.3756998181343079,0.4949616193771362
1.720537305,0.003572719171643257,-0.00612783245742321,-0.9966259598731995,-2.118402562700794e-06,2.430762378935469e-06,3.778336349569145e-06,1.736796912155114e-05,-2.839142325683497e-05,-0.004987132735550404,0.005,-0.0008831982268020511,-0.3759881854057312,0.4959990978240967
1.725502729,0.003761501749977469,-0.006062979344278574,-0.9964020252227783,-1.020540480567433e-06,-1.846971827035304e-06,-2.977330041176174e-06,2.006310751312412e-05,-2.982735350087751e-05,-0.004981225356459618,0.005,-0.0006110650137998164,-0.3758987784385681,0.4956993162631989
1.730444551,0.003835073439404368,-0.006103377789258957,-0.9962849617004395,-6.312496907412424e-07,1.250252353202086e-06,-2.158853476430522e-06,1.960528425115626e-05,-3.134675716864876e-05,-0.004980060271918774,0.005,-0.0006110036047175527,-0.3757757544517517,0.4960912466049194
1.735362530,0.00373073248192668,-0.005934969522058964,-0.9967055916786194,-3.446646587690338e-06,-1.137758431468683e-06,-5.946452574789873e-08,1.867666833277326e-05,-2.821236375893932e-05,-0.004986781161278486,0.005,-0.0005024809506721795,-0.3761775195598602,0.4955528974533081
1.740257502,0.003512556198984385,-0.006427331827580929,-0.9959418773651123,3.352198291395325e-06,3.650953203759855e-06,1.770192511685309e-06,1.578125011292286e-05,-3.506854409351945e-05,-0.004974796436727047,0.005,-0.000838190782815218,-0.3755350410938263,0.4950810968875885
1.745128155,0.003564603161066771,-0.005927027203142643,-0.9964368939399719,3.327336628444755e-07,4.174517926003318e-06,1.250600121238676e-06,1.826932930271141e-05,-2.625867273309268e-05,-0.004985165316611528,0.005,-0.0007093268213793635,-0.3754379451274872,0.4947954714298248
1.749975801,0.003777421079576015,-0.006066218018531799,-0.9958539009094238,6.571968242496951e-06,3.228819650757941e-06,-2.468060301907826e-06,2.029459938057698e-05,-3.121692861896008e-05,-0.004976305644959211,0.005,-0.0005919047398492694,-0.3757585287094116,0.4943595826625824
1.754799128,0.003877574345096946,-0.006053500343114138,-0.9958420991897583,-1.824757760005014e-06,1.041465225171123e-06,2.146376800737926e-06,1.947541750269011e-05,-3.03724009427242e-05,-0.004978515673428774,0.005,-0.0003915197448804975,-0.3758686184883118,0.4946251213550568
1.759684324,0.003656909102573991,-0.005993250291794538,-0.9958706498146057,-6.759063126082765e-06,2.174850123992655e-06,-3.243927721996442e-06,1.68548576766625e-05,-2.915607547038235e-05,-0.004980412311851978,0.005,-0.0004217141249682754,-0.3754852712154388,0.4951655566692352
1.764882922,0.003451540600508451,-0.006401221733540297,-0.9955392479896545,2.476385816407856e-07,3.238974159103236e-06,-3.262564405304147e-06,1.577594593982212e-05,-3.450280928518623e-05,-0.00497519364580512,0.005,-0.0008465791470371187,-0.3755168616771698,0.4957358837127686
1.770055890,0.003505956148728728,-0.005911736749112606,-0.9961983561515808,-7.929664889161359e-07,-2.530943447709433e-06,-4.426968303050671e-07,1.786058237485122e-05,-2.662836595845874e-05,-0.004985093139111996,0.005,-0.0006810086197219789,-0.3758706748485565,0.4949181079864502
1.775204062,0.003088613739237189,-0.006105216220021248,-0.9957859516143799,-2.957503966172226e-06,-9.930678288583294e-07,-2.949763882043044e-07,1.294069897994632e-05,-3.174103767378256e-05,-0.004976727068424225,0.005,-0.0005721372435800731,-0.3752810657024384,0.4955351054668427
1.780327916,0.003098583780229092,-0.005926081910729408,-0.9961212277412415,1.984079972316977e-06,-1.096431788027985e-06,1.643964651520946e-06,1.531552152300719e-05,-2.841301102307625e-05,-0.004982281476259232,0.005,-0.0006406002794392407,-0.3751604557037354,0.4941841661930084
1.785426140,0.003342703450471163,-0.006056335289031267,-0.9961826801300049,2.725319518503966e-06,-4.304488356865477e-06,-1.213298446600675e-06,1.821773548726924e-05,-3.095807551289909e-05,-0.004982619546353817,0.005,-0.0009207360562868416,-0.3754928112030029,0.4944914877414703
1.790500641,0.003442313987761736,-0.006188248749822378,-0.9957006573677063,-6.209815637703286e-06,7.887636002124054e-07,1.181358015855949e-06,1.779160447767936e-05,-3.190501956851222e-05,-0.004975040443241596,0.005,-0.0006756415241397917,-0.3751914799213409,0.4945459067821503
1.795551181,0.003505845554172993,-0.005918086972087622,-0.9960057139396667,-1.568120410411211e-06,-3.162315351801226e-07,9.329233989774366e-07,1.793650335457642e-05,-2.781772309390362e-05,-0.004982194397598505,0.005,-0.001112217665649951,-0.375131368637085,0.4950855076313019
1.800577760,0.0033706019166857,-0.006323503330349922,-0.995663046836853,8.890033313946333e-07,1.046266095983128e-08,-3.715340923804433e-08,1.613365566299763e-05,-3.385286254342645e-05,-0.004976192023605108,0.005,-0.001286885933950543,-0.3752592206001282,0.4950961172580719
1.805583835,0.003638291731476784,-0.006132769398391247,-0.9961328506469727,1.142706196333165e-06,3.760648951356416e-06,2.095684976666234e-06,1.960574627446476e-05,-3.004430982400663e-05,-0.004983275197446346,0.005,-0.001292446744628251,-0.375358909368515,0.4967181980609894
1.810566902,0.003614840330556035,-0.005951663013547659,-0.9959061145782471,1.464989622945723e-06,4.023392193630571e-06,-1.397154051119287e-06,1.779209378582891e-05,-2.837880856532138e-05,-0.004979012534022331,0.005,-0.00116451655048877,-0.3752776086330414,0.496019184589386
1.815525889,0.00346498261205852,-0.006167654879391193,-0.9961978197097778,6.81401104429824e-07,3.787037485381006e-06,2.228514404123416e-06,1.630593396839686e-05,-3.256011768826284e-05,-0.00498172827064991,0.005,-0.001760829007253051,-0.3757801055908203,0.4957361221313477
1.820460558,0.003710436867550015,-0.005858883261680603,-0.9962505102157593,3.293934582870861e-07,-2.674079951248132e-06,-5.974875421088655e-07,2.040274011960719e-05,-2.699602919165045e-05,-0.004982361104339361,0.005,-0.001419031526893377,-0.375652402639389,0.4953733682632446
1.825371623,0.003361234674230218,-0.006145779974758625,-0.9957034587860107,-2.144872723874869e-06,1.414784833286831e-06,-1.763832813139743e-07,1.466409776185174e-05,-3.282126999692991e-05,-0.004974864423274994,0.005,-0.001316492795012891,-0.3756601810455322,0.4962141811847687
1.830259204,0.003414565464481711,-0.006096262019127607,-0.9962196946144104,1.239306357092573e-06,-2.075694737868616e-06,-2.289417579959263e-06,1.75209752342198e-05,-2.961139398394153e-05,-0.004984091036021709,0.005,-0.001010568696074188,-0.3753493130207062,0.4944177269935608
1.835123420,0.003422569250687957,-0.006062200758606195,-0.9959038496017456,-1.083312440641748e-06,-2.803105417115148e-06,4.632657237380045e-06,1.707725641608704e-05,-2.997101364599075e-05,-0.004978283308446407,0.005,-0.001497511169873178,-0.3751470744609833,0.4953276216983795
1.839963913,0.003467275528237224,-0.006267538294196129,-0.9965444207191467,-2.453589047490823e-07,1.400049427502381e-06,9.314509270552662e-07,1.790673195500858e-05,-3.259456570958719e-05,-0.004985766485333443,0.005,-0.001541237928904593,-0.3753915727138519,0.4953302443027496
1.844781041,0.003588921157643199,-0.006033054552972317,-0.996286153793335,3.778956852329429e-06,-9.471167459196295e-07,-1.206670503961504e-06,1.887067264760844e-05,-2.858054358512163e-05,-0.004980384837836027,0.005,-0.001388411037623882,-0.3750089108943939,0.4956711828708649
1.849658847,0.003301311982795596,-0.006447976920753717,-0.9957352876663208,1.238636741618393e-06,3.509679800117738e-06,1.25615508750343e-06,1.463495209463872e-05,-3.502515392028727e-05,-0.004974680487066507,0.005,-0.0009150832192972302,-0.3755106925964355,0.4940790235996246
1.854850531,0.003435735590755939,-0.006190774496644735,-0.996121883392334,-1.175359329863568e-06,-1.656215090406477e-06,-4.313989848014899e-06,1.81722643901594e-05,-2.889135794248432e-05,-0.004983244463801384,0.005,-0.0008730903500691056,-0.3753804266452789,0.4947190284729004
1.860017896,0.003409268567338586,-0.006376516539603472,-0.9951800107955933,-1.235850533021221e-07,7.315900347748538e-06,-1.648700049372565e-06,1.679628621786833e-05,-3.336723239044659e-05,-0.004970219917595387,0.005,-0.0005907175363972783,-0.3749279379844666,0.4939338564872742
1.865160465,0.00360845192335546,-0.006043788976967335,-0.9965673089027405,-7.04124113326543e-06,6.4673436099838e-06,4.06472025815674e-07,1.912497282319237e-05,-2.848437725333497e-05,-0.004990415647625923,0.005,-0.0007196117076091468,-0.3751991391181946,0.4937922954559326
1.870279193,0.003474445547908545,-0.005983184091746807,-0.9967983365058899,3.139011369057698e-06,3.800475951720728e-06,-2.995482475398603e-07,1.673524457146414e-05,-2.94429137284169e-05,-0.004986709915101528,0.005,-0.0007488502888008952,-0.3757204413414001,0.4942125082015991
1.875373006,0.003627505619078875,-0.006028785370290279,-0.9964790344238281,-7.343333436438115e-06,2.392274154772167e-06,3.853144789900398e-06,1.910686296469066e-05,-3.106140866293572e-05,-0.004979876801371574,0.005,-0.0006621914799325168,-0.3755936920642853,0.4943748712539673
1.880442381,0.003583971410989761,-0.005895821377635002,-0.9966682195663452,-1.896114440569363e-06,1.971152641999652e-06,-3.004439577125595e-06,1.779322701622732e-05,-2.803636925818864e-05,-0.004984556697309017,0.005,-0.0007105993572622538,-0.3759077787399292,0.494144469499588
1.885486841,0.003578841919079423,-0.00596304377540946,-0.9962885975837708,-3.409342980376096e-06,-4.960417754773516e-06,-5.891142222935741e-07,1.783796142262872e-05,-3.077722794841975e-05,-0.00497904559597373,0.005,-0.001087078242562711,-0.3762560784816742,0.4937919974327087
1.890508056,0.003807963570579886,-0.005708884447813034,-0.996795654296875,-6.037759249011287e-06,-2.395264573351596e-07,6.232688747331849e-07,1.989599331864156e-05,-2.696326373552438e-05,-0.004986340180039406,0.005,-0.00101703533437103,-0.3759513795375824,0.494128555059433
1.895504117,0.003565271152183414,-0.006178494542837143,-0.9960203766822815,3.678282382679754e-06,-1.419037403138645e-07,1.299970790569205e-06,1.702184999885503e-05,-3.346891026012599e-05,-0.004975763615220785,0.005,-0.001111090998165309,-0.3755252063274384,0.4942517876625061
1.900476456,0.00374484877102077,-0.006342653185129166,-0.9958929419517517,-6.468355422839522e-06,-2.552609430495067e-06,-3.747590881175711e-06,1.988189978874288e-05,-3.33313801093027e-05,-0.004978216718882322,0.005,-0.001065969583578408,-0.3757485151290894,0.4940561056137085
1.905425191,0.003633178770542145,-0.006412602495402098,-0.9957457780838013,2.811182639561594e-06,1.646633677410136e-06,1.263860980316167e-07,1.762050669640303e-05,-3.179239502060227e-05,-0.004978551063686609,0.005,-0.001044518663547933,-0.37589031457901,0.4948947727680206
1.910350561,0.003649122314527631,-0.006551937200129032,-0.9956653714179993,-4.245702712069033e-06,3.338605210956302e-06,-4.544952844298678e-06,1.792120383470319e-05,-3.407068288652226e-05,-0.004977589938789606,0.005,-0.0008582111913710833,-0.3756498098373413,0.4945371747016907
1.915252447,0.003913651220500469,-0.006039060186594725,-0.9963716268539429,-1.062941123564087e-06,-1.273077145924617e-06,2.818836719598039e-07,2.125063474522904e-05,-2.685026629478671e-05,-0.004986252170056105,0.005,-0.001048220554366708,-0.375764787197113,0.4945443868637085
1.920130849,0.003687840653583407,-0.006047188770025969,-0.9955314993858337,-3.191231826349394e-06,3.920284143532626e-06,1.051109393301886e-06,1.654785228311084e-05,-3.033346001757309e-05,-0.004972981289029121,0.005,-0.0007960763177834451,-0.3759681582450867,0.4949508905410767
1.924985290,0.003583416575565934,-0.005876113660633564,-0.9960011839866638,8.164153086909209e-07,9.928304507411667e-07,2.473222366461414e-06,1.699837957858108e-05,-2.84698217001278e-05,-0.004982417449355125,0.005,-0.001522175851278007,-0.375737339258194,0.496445894241333
1.929816842,0.003776258556172252,-0.005829974077641964,-0.9959227442741394,3.498043042782228e-06,1.348940259049414e-06,2.073402583846473e-06,2.047932866844349e-05,-2.845142807927914e-05,-0.004979058634489775,0.005,-0.00130909460131079,-0.3756202161312103,0.4953650236129761
1.934624553,0.003765134373679757,-0.005888595245778561,-0.9958879351615906,-4.013049419882009e-06,5.466672973852837e-06,2.452545459163957e-06,1.847868588811252e-05,-3.024417856067885e-05,-0.004978929180651903,0.005,-0.001905360724776983,-0.3757903873920441,0.4957249760627747
1.939749122,0.003762059612199664,-0.005717996042221785,-0.9962158203125,5.065577965979173e-07,-1.212207848766411e-06,-1.081843265637872e-06,1.917103691084776e-05,-2.751163083303254e-05,-0.004983652848750353,0.005,-0.001310946769081056,-0.3759264349937439,0.4957296550273895
1.944932580,0.003687661839649081,-0.006274296902120113,-0.9956275224685669,3.448456936894218e-06,5.554523454520677e-07,-3.767411271837773e-06,1.775769669620786e-05,-3.463146640569903e-05,-0.004974447190761566,0.005,-0.001452791504561901,-0.375777006149292,0.4957129955291748
1.950091243,0.003737372346222401,-0.005906961392611265,-0.9962860941886902,-3.403728669582051e-06,2.411247123745852e-06,-2.874659514873201e-07,1.901941141113639e-05,-2.776608016574755e-05,-0.004985175095498562,0.005,-0.001053289975970984,-0.3758803606033325,0.4945303201675415
1.955225348,0.003787524532526731,-0.006194740068167448,-0.9958670139312744,2.641552555360249e-06,3.221645172857279e-08,9.549386277285521e-07,1.895187233458273e-05,-3.235327312722802e-05,-0.004977544769644737,0.005,-0.00151901610661298,-0.3761630356311798,0.4954530000686646
1.960335135,0.003673071740195155,-0.006056423764675856,-0.995876133441925,1.26424902191502e-06,-1.892315822260571e-06,4.358275873528328e-06,1.781540595402475e-05,-3.039739931409713e-05,-0.004979089833796024,0.005,-0.001252272515557706,-0.3756010234355927,0.4950795471668243
1.965420485,0.003467989386990666,-0.00602694321423769,-0.9962795972824097,-8.689552259966149e-07,-3.700407660289784e-06,2.707349722186336e-06,1.583995071996469e-05,-2.974894596263766e-05,-0.004983656574040651,0.005,-0.001369293546304107,-0.3757946789264679,0.4954710900783539
1.970482945,0.003635172266513109,-0.005844819359481335,-0.9956967234611511,-3.236657903471496e-06,1.030728526529856e-06,-2.430984977763728e-06,1.901865107356571e-05,-2.791531369439326e-05,-0.004975020419806242,0.005,-0.001275218208320439,-0.3757698237895966,0.4949913918972015
1.975521803,0.003810832276940346,-0.005964046344161034,-0.996290385723114,-7.266046964105044e-08,-5.41182043889421e-06,7.671574735468312e-07,1.999663800233975e-05,-3.083982301177457e-05,-0.004984964616596699,0.005,-0.001350861974060535,-0.3749523162841797,0.495975136756897
1.980536342,0.00352039746940136,-0.00659188674762845,-0.9954288601875305,2.558188725743094e-06,4.634389370039571e-06,3.631535321346746e-07,1.582591539772693e-05,-3.60251433448866e-05,-0.004972788505256176,0.005,-0.0008542676223441958,-0.3753873407840729,0.4955607354640961
1.985525966,0.003506854176521301,-0.006060179322957993,-0.9958851933479309,-2.486412313373876e-06,2.510828153390321e-06,3.798903662755038e-07,1.716462429612875e-05,-2.776862129394431e-05,-0.004981924314051867,0.005,-0.001306254416704178,-0.375706821680069,0.4949125349521637
1.990492463,0.003266702638939023,-0.006335743702948093,-0.9961081743240356,1.014839426716208e-06,1.372396695842326e-06,1.074209194484865e-06,1.484936547058169e-05,-3.30872971971985e-05,-0.00498294411227107,0.005,-0.001060155802406371,-0.3754388988018036,0.4949009418487549
1.995434999,0.00375787983648479,-0.006488780491054058,-0.9958717226982117,-4.79868413094664e-06,-9.495934136793949e-07,-9.871225756796775e-07,2.181939089496154e-05,-3.38445752277039e-05,-0.004977654665708542,0.005,-0.001361440168693662,-0.3752025663852692,0.4953461885452271
2.000354290,0.003708818228915334,-0.005935912951827049,-0.9961612224578857,-6.537744070556073e-07,-7.93303343016305e-07,-8.363006713807408e-07,1.85930712177651e-05,-2.642902472871356e-05,-0.004982576239854097,0.005,-0.001285390113480389,-0.3754715919494629,0.4954120218753815
2.005249023,0.003656316315755248,-0.006004159804433584,-0.9959518313407898,4.170919055468403e-06,3.460268544586143e-06,-4.466000973479822e-06,1.791006252460647e-05,-3.000313154188916e-05,-0.004978401586413383,0.005,-0.001553665963001549,-0.3755502104759216,0.4959507584571838
2.010120630,0.003461843123659492,-0.005865502171218395,-0.9963487386703491,-1.222128048539162e-06,5.973904990241863e-06,1.056209157468402e-06,1.64275352290133e-05,-2.884889181586914e-05,-0.004983671009540558,0.005,-0.001282398123294115,-0.375102311372757,0.4960100054740906
2.014968157,0.003514825599268079,-0.00600063381716609,-0.9962045550346375,-2.111773255819571e-06,2.607511987662292e-06,6.461600037255266e-07,1.790857095329557e-05,-3.0291143048089e-05,-0.004980993457138538,0.005,-0.001261328114196658,-0.3752565085887909,0.4951184988021851
2.019793034,0.003553292015567422,-0.006247621029615402,-0.9960213303565979,-3.57034969056258e-06,3.177735834469786e-06,6.362763542711036e-07,1.813291419239249e-05,-3.308849773020484e-05,-0.004977821372449398,0.005,-0.00117103906814009,-0.3757953643798828,0.4953906536102295
2.024596214,0.003480447689071298,-0.005844586994498968,-0.9965276718139648,5.373821068133111e-07,2.464277940816828e-06,-2.234037083326257e-06,1.668561526457779e-05,-2.661142934812233e-05,-0.004986848682165146,0.005,-0.0008121641585603356,-0.3755223453044891,0.4953464269638062
2.029798031,0.00320207723416388,-0.006268347147852182,-0.9961400032043457,-1.240427764059859e-06,2.533044607844204e-06,-3.8579169086006e-06,1.399737629981246e-05,-3.372775972820818e-05,-0.004977907985448837,0.005,-0.0004593623743858188,-0.3752063810825348,0.4951086342334747
2.034976244,0.003528360510244966,-0.005894416011869907,-0.9964311718940735,1.087409145839047e-06,-1.035761101775279e-06,9.699255798523154e-08,1.963361137313768e-05,-2.748852784861811e-05,-0.004983759485185146,0.005,-0.0003202398947905749,-0.3756160140037537,0.4945226907730103
2.040128469,0.003374514868482947,-0.005894807633012533,-0.9965038299560547,3.846749223157531e-06,5.996529353069491e-07,-3.531205038598273e-06,1.624547803658061e-05,-2.923855390690733e-05,-0.004983532708138227,0.005,-0.001152971526607871,-0.3756640553474426,0.4950784146785736
2.045256138,0.003241447731852531,-0.005739253014326096,-0.9964112639427185,-2.411468813079409e-06,2.692370571821812e-06,-4.248269306117436e-06,1.538430115033407e-05,-2.799008325382601e-05,-0.004980633966624737,0.005,-0.001128921750932932,-0.3754034042358398,0.4954819083213806
2.050358534,0.003233394352719188,-0.005588920786976814,-0.9963223338127136,-1.417475772313992e-07,-3.847692937597458e-07,6.601757718271983e-07,1.563729165354744e-05,-2.705169936234597e-05,-0.004982104524970055,0.005,-0.001275097718462348,-0.3755938410758972,0.4947227239608765
2.055436850,0.003455571131780744,-0.006303365342319012,-0.9958117008209229,-1.962442723879576e-07,1.571634129504673e-06,2.004562247748254e-06,1.877727299870458e-05,-3.575463779270649e-05,-0.004975616466253996,0.005,-0.002185278572142124,-0.3760489225387573,0.4946570694446564
2.060491562,0.003772517200559378,-0.006074042059481144,-0.9960359930992126,-1.349882950307801e-06,-1.670430151534674e-06,3.05566061342688e-07,2.066936576738954e-05,-2.923288229794707e-05,-0.004981827456504107,0.005,-0.00205334066413343,-0.3752882480621338,0.4950765669345856
2.065521955,0.003717342158779502,-0.006457132287323475,-0.9955640435218811,3.216534878447419e-06,2.249148565169889e-06,4.503492334606563e-07,1.838707430579234e-05,-3.458085120655596e-05,-0.004974996205419302,0.005,-0.001341474941000342,-0.3755225241184235,0.4944514036178589
2.070531607,0.003628251142799854,-0.006114249117672443,-0.9959439635276794,-2.455154799463344e-06,8.965403708316444e-07,-4.146162382312468e-07,1.775910641299561e-05,-2.865985879907385e-05,-0.004981272388249636,0.005,-0.001836346462368965,-0.3756752908229828,0.4946728050708771
2.075517178,0.003590633627027273,-0.00628316355869174,-0.9958346486091614,3.376061386006768e-06,2.049716385954525e-06,8.645612297186744e-07,1.776439239620231e-05,-3.225967520847917e-05,-0.004979399498552084,0.005,-0.001232464914210141,-0.3754705488681793,0.4958608448505402
2.080478907,0.003781910287216306,-0.006460589822381735,-0.9957028031349182,5.241303568936928e-08,-1.119397893489804e-06,7.455034278791572e-07,1.994138074223883e-05,-3.365062002558261e-05,-0.004977424629032612,0.005,-0.00133865640964359,-0.3751890957355499,0.4956661760807037
2.085417032,0.003586390288546681,-0.006012107711285353,-0.9960771203041077,2.96430584967311e-06,1.778586920408998e-06,-6.125478080321045e-08,1.673444057814777e-05,-2.691864938242361e-05,-0.004983349703252316,0.005,-0.001495799049735069,-0.3759297430515289,0.495268702507019
2.090330839,0.003554986324161291,-0.006340371444821358,-0.9956360459327698,8.390665016122512e-07,1.876269493550353e-06,3.521668077155482e-06,1.74143206095323e-05,-3.419118729652837e-05,-0.004975545220077038,0.005,-0.001358636654913425,-0.3756143450737,0.4956101477146149
2.095221758,0.003538307035341859,-0.005867653526365757,-0.9962582588195801,-7.312144703064405e-07,-2.693097258088528e-06,-5.66745598007401e-07,1.773596159182489e-05,-2.652291550475638e-05,-0.004984949715435505,0.005,-0.0008804345852695405,-0.375512033700943,0.4953097999095917
2.100089073,0.003656052984297276,-0.006092025432735682,-0.9960641860961914,2.872616050808574e-06,-1.788716645023669e-06,-1.205531702908047e-06,1.927979974425398e-05,-3.178325641783886e-05,-0.004979814868420362,0.005,-0.0008851494058035314,-0.375638872385025,0.4949283301830292
2.104933262,0.003633194603025913,-0.005925646051764488,-0.9964812994003296,2.079346359096235e-06,-3.623196107582771e-06,8.444814056929317e-07,1.798933590180241e-05,-2.868141018552706e-05,-0.004983627237379551,0.005,-0.00147903838660568,-0.3755108714103699,0.4944779574871063
2.109753370,0.003491559065878391,-0.005850415211170912,-0.9966771006584167,-1.772858809090394e-06,2.333533757337136e-06,-1.583155949447246e-06,1.682304537098389e-05,-2.850907731044572e-05,-0.00498542282730341,0.005,-0.001608992111869156,-0.3756591081619263,0.4950652420520782
2.114634991,0.003360016504302621,-0.006325986701995134,-0.9962424039840698,2.806435190905177e-07,-7.52281835048052e-07,2.651676368259359e-06,1.57449521793751e-05,-3.526135697029531e-05,-0.004978013690561056,0.005,-0.00118305953219533,-0.3758615851402283,0.4935573637485504
2.119830132,0.00347508885897696,-0.005882017314434052,-0.9968520998954773,3.766025201912271e-06,1.502452050772263e-06,1.419589807483135e-06,1.808053093554918e-05,-2.613095239212271e-05,-0.004987705498933792,0.005,-0.0009321437682956457,-0.3757952749729156,0.4943789541721344
2.125000000,0.003495801007375121,-0.006143447943031788,-0.9967929720878601,1.181210109280073e-06,-4.020954804673238e-07,-1.297148401135928e-06,1.746825546433683e-05,-3.239762736484408e-05,-0.004983662161976099,0.005,-0.0007389972452074289,-0.3754883706569672,0.4941328763961792
2.130145550,0.003354724030941725,-0.006150180008262396,-0.9969528317451477,-1.051583808475698e-06,-4.73438205972343e-07,-2.21382424570038e-06,1.587193219165783e-05,-3.07274422084447e-05,-0.004985345993191004,0.005,-0.0009750185417942703,-0.375368744134903,0.4944873154163361
2.135265827,0.003663565730676055,-0.005980552174150944,-0.996342658996582,4.003818958153715e-06,2.577494342403952e-07,1.378452225253568e-06,2.032299744314514e-05,-2.874923666240647e-05,-0.004979299381375313,0.005,-0.000933939591050148,-0.3759140968322754,0.49346923828125
2.140361547,0.003218640806153417,-0.006304039619863033,-0.9961930513381958,-4.255964995536488e-06,-2.563951966294553e-06,4.885383987129899e-06,1.341713505098596e-05,-3.408320480957627e-05,-0.004979024641215801,0.005,-0.0006335811340250075,-0.3755660951137543,0.4943051040172577
