FILE_INFO
ListSeparator=,
DecimalSeparator=.

SESSION_INFO
TimeZone,UTC
TimeZoneOffset,0
DateTimeFormat,MM/DD/YY h:mm:ss.nnnnnnnnn
StartTime,01/01/70 00:00:00.000000000
TimeFormat,Relative

DEVICE_INFO
Address,*

CHANNEL_INFO
Channel,Type,SampleRate,Equation,Coefficients,Unit,UnitSymbol,WhereApplied,WhenApplied
inertial-6286.188861:scaledAccelX,Timeseries,200Hz,,,,,,
inertial-6286.188861:scaledAccelY,Timeseries,200Hz,,,,,,
inertial-6286.188861:scaledAccelZ,Timeseries,200Hz,,,,,,
inertial-6286.188861:deltaThetaX,Timeseries,200Hz,,,,,,
inertial-6286.188861:deltaThetaY,Timeseries,200Hz,,,,,,
inertial-6286.188861:deltaThetaZ,Timeseries,200Hz,,,,,,
inertial-6286.188861:deltaVelX,Timeseries,200Hz,,,,,,
inertial-6286.188861:deltaVelY,Timeseries,200Hz,,,,,,
inertial-6286.188861:deltaVelZ,Timeseries,200Hz,,,,,,
inertial-6286.188861:timeInfo_deltaTime_ahrsImu,Timeseries,200Hz,,,,,,
inertial-6286.188861:scaledMagX,Timeseries,200Hz,,,,,,
inertial-6286.188861:scaledMagY,Timeseries,200Hz,,,,,,
inertial-6286.188861:scaledMagZ,Timeseries,200Hz,,,,,,

DATA_START
Time,inertial-6286.188861:scaledAccelX,inertial-6286.188861:scaledAccelY,inertial-6286.188861:scaledAccelZ,inertial-6286.188861:deltaThetaX,inertial-6286.188861:deltaThetaY,inertial-6286.188861:deltaThetaZ,inertial-6286.188861:deltaVelX,inertial-6286.188861:deltaVelY,inertial-6286.188861:deltaVelZ,inertial-6286.188861:timeInfo_deltaTime_ahrsImu,inertial-6286.188861:scaledMagX,inertial-6286.188861:scaledMagY,inertial-6286.188861:scaledMagZ
0.000000000,0.004119278863072395,-0.002923760795965791,-0.99619460105896,-1.514256609880249e-06,1.410881168339984e-06,-1.705456043055165e-06,1.911002073029522e-05,-1.441125823475886e-05,-0.004984313156455755,0.005,0.004832983482629061,-0.3753082752227783,0.4940520524978638
0.004894720,0.004011275246739388,-0.00317669752985239,-0.9960761666297913,2.846063807737664e-06,5.482823439706408e-07,4.86299370550114e-07,1.93893847608706e-05,-1.705308386590332e-05,-0.00497993640601635,0.005,0.004946987144649029,-0.3752960860729218,0.4942877292633057
0.009766400,0.003903609002009034,-0.003261210629716516,-0.9961254596710205,1.389880594615533e-06,1.242716365368324e-07,-3.570685294107534e-06,1.927376615640242e-05,-1.739895924401935e-05,-0.004980914294719696,0.005,0.00505152577534318,-0.375516414642334,0.4943214058876038
0.014613760,0.003824603743851185,-0.003305400488898158,-0.9961495995521545,1.003210741146177e-06,-5.590230784946471e-07,-1.301519091612136e-06,1.824516766646411e-05,-1.673028418736067e-05,-0.004980823025107384,0.005,0.005117231514304876,-0.3754316866397858,0.4955089390277863
0.019438336,0.003772316966205835,-0.00294229481369257,-0.9960668683052063,-3.685750471049687e-06,1.235258650922333e-06,9.090801427191764e-07,1.85394128493499e-05,-1.269253516511526e-05,-0.004979450721293688,0.005,0.004984862171113491,-0.375053197145462,0.4947416484355927
0.024239872,0.00399687048047781,-0.002868156647309661,-0.9964064359664917,1.567556523696112e-06,2.945699009160307e-07,4.17276942243916e-06,2.151536318706349e-05,-1.391781188431196e-05,-0.004984174855053425,0.005,0.004776963964104652,-0.3751952648162842,0.4949159920215607
0.029441793,0.004158578813076019,-0.002897067693993449,-0.9960135817527771,3.752528300537961e-06,2.724106707319152e-06,3.858237960230326e-06,2.14439132832922e-05,-1.468847221985925e-05,-0.0049777259118855,0.005,0.004659390076994896,-0.375542163848877,0.4949377775192261
0.034619648,0.004309463780373335,-0.002785465214401484,-0.9958844780921936,1.934227924493825e-07,-1.025385472530616e-06,2.780466729745967e-06,2.264280192321166e-05,-1.365382013318595e-05,-0.004978122655302286,0.005,0.00520860031247139,-0.3749062716960907,0.4959913492202759
0.039772417,0.004097947385162115,-0.003315499518066645,-0.9958736896514893,-6.475868303823518e-07,-7.017991720204009e-06,5.414052566266037e-07,1.928939309436828e-05,-1.935132786456961e-05,-0.004979756660759449,0.005,0.00495971878990531,-0.375275731086731,0.4947667717933655
0.044900097,0.00406648451462388,-0.003051338251680136,-0.9959204792976379,-1.778142859620857e-06,-3.744992511656164e-07,-1.956110509127029e-07,1.967810931091662e-05,-1.408832940796856e-05,-0.004979729186743498,0.005,0.004624145105481148,-0.37577024102211,0.4953477680683136
0.050003201,0.004493589047342539,-0.003206462133675814,-0.9962313771247864,2.395542878730339e-06,1.377641865474288e-06,-2.146246742995572e-06,2.499223228369374e-05,-1.60048839461524e-05,-0.004982691258192062,0.005,0.005126187577843666,-0.3753421604633331,0.4947190582752228
0.055082239,0.004602649249136448,-0.003223066451027989,-0.9959158897399902,-1.912033440021332e-06,-1.525075532526898e-07,3.469834837233066e-06,2.384541403444018e-05,-1.684871858742554e-05,-0.004977454431355,0.005,0.004850836936384439,-0.3754155933856964,0.4945712983608246
0.060136959,0.004461857490241528,-0.003153457306325436,-0.9961478114128113,-2.876990492950426e-06,3.256076070101699e-06,1.753195874698577e-06,2.171779306081589e-05,-1.507613160356414e-05,-0.00498194107785821,0.005,0.004830365069210529,-0.3754332363605499,0.4940568506717682
0.065170176,0.004080001264810562,-0.003465550718829036,-0.9960677623748779,5.512624284165213e-06,2.700273398659192e-06,3.19934997605742e-06,1.778253863449208e-05,-1.884785342554096e-05,-0.004979779478162527,0.005,0.005055754445493221,-0.375401645898819,0.4941061437129974
0.070179328,0.004156745038926601,-0.003449078882113099,-0.9962982535362244,3.114144874416525e-06,-5.057679572928464e-07,1.45525166317384e-06,2.138710442523006e-05,-1.751562376739457e-05,-0.004982405342161655,0.005,0.004992740228772163,-0.3751658499240875,0.4942924976348877
0.075164929,0.004280771594494581,-0.00312406849116087,-0.9961276650428772,-2.18366290027916e-06,4.251706741342787e-06,1.525426682746911e-06,2.224658419436309e-05,-1.336219338554656e-05,-0.004980185534805059,0.005,0.005246685352176428,-0.3756410777568817,0.4938175976276398
0.080126718,0.004175983835011721,-0.003276563948020339,-0.9958368539810181,-7.74659099533892e-07,-5.648471983477066e-07,-2.700061486393679e-06,2.064627187792212e-05,-1.734967372613028e-05,-0.004976851399987936,0.005,0.004645912908017635,-0.3754844665527344,0.4944871068000793
0.085063934,0.003972769249230623,-0.002941508311778307,-0.9963693022727966,5.048716047895141e-06,2.740824584179791e-06,3.523686018525041e-07,1.861432792793494e-05,-1.268638425244717e-05,-0.004985673353075981,0.005,0.004358946811407804,-0.37530118227005,0.4940829873085022
0.089978367,0.004056699108332396,-0.00313006155192852,-0.9959033727645874,1.620107354938227e-06,-5.004500849281612e-07,1.165359890364925e-06,2.024225614150055e-05,-1.621797491679899e-05,-0.004976673517376184,0.005,0.004826301708817482,-0.3757160604000092,0.4945364594459534
0.094869763,0.004308157600462437,-0.003044005250558257,-0.9962317943572998,-3.535871883286745e-06,7.250940825542784e-07,-7.824172030268528e-07,2.332824078621343e-05,-1.50224568642443e-05,-0.004982935264706612,0.005,0.004263498354703188,-0.3760534226894379,0.4939954876899719
0.099737085,0.004150590393692255,-0.003116564359515905,-0.9961186647415161,3.574060883693164e-06,3.939612270187354e-06,7.49959383483656e-07,2.006096838158555e-05,-1.577492548676673e-05,-0.004980625119060278,0.005,0.00510135106742382,-0.3754051327705383,0.4946718215942383
0.104581378,0.004161237273365259,-0.003026308957487345,-0.9960011839866638,8.226285785895016e-07,-8.562531661482353e-07,-5.99820793922845e-07,2.07251105166506e-05,-1.484908534621354e-05,-0.004978696815669537,0.005,0.00526899378746748,-0.3752200603485107,0.4937581419944763
0.109401859,0.004051926080137491,-0.002883401233702898,-0.9963242411613464,-3.965189080190612e-06,2.749331770246499e-06,1.90744344763516e-06,1.977997089852579e-05,-1.329595943388995e-05,-0.00498408917337656,0.005,0.005242759827524424,-0.375742644071579,0.4938400089740753
0.114283517,0.00431346520781517,-0.002956051379442215,-0.9960983991622925,-2.845793460437562e-06,2.27476766667678e-06,-1.982883532036794e-06,2.325750756426714e-05,-1.533684189780615e-05,-0.004978835117071867,0.005,0.005197887308895588,-0.3756559193134308,0.4937178492546082
0.119477756,0.004105919040739536,-0.002755162306129932,-0.9962184429168701,-2.363461362620001e-06,4.574857939587673e-06,4.784735665452899e-06,1.952868478838354e-05,-1.251075809705071e-05,-0.004982368554919958,0.005,0.00498055387288332,-0.3755510151386261,0.4944391250610352
0.124647677,0.004097567405551672,-0.00296655623242259,-0.9959708452224731,2.746259724517586e-06,-6.641963068432233e-07,2.66576603280555e-06,2.044064603978768e-05,-1.623666321393102e-05,-0.004978236742317677,0.005,0.004737378563731909,-0.3754769861698151,0.4945083260536194
0.129793286,0.004357897210866213,-0.002947325818240643,-0.9961148500442505,2.925932221842231e-06,-4.385278771223966e-06,6.847263733789077e-08,2.348826637899037e-05,-1.462506952520926e-05,-0.004981025587767363,0.005,0.00477761123329401,-0.3758755922317505,0.4951290786266327
0.134913787,0.00408470444381237,-0.002793515333905816,-0.9960036277770996,7.180173042797833e-07,-4.479728659134707e-07,2.784720209092484e-06,1.886729114630725e-05,-1.278296804230195e-05,-0.004980013705790043,0.005,0.004777001217007637,-0.3757113218307495,0.495011568069458
0.140011266,0.004046866204589605,-0.003004567697644234,-0.9958634972572327,-6.038492301740916e-06,4.425999975410377e-07,-2.418124722680659e-06,1.957062158908229e-05,-1.642095958231948e-05,-0.004977811593562365,0.005,0.004743059631437063,-0.3755627572536469,0.4956129491329193
0.145084679,0.003864250378683209,-0.003072407096624374,-0.9964473247528076,2.173553639295278e-06,3.269303078923258e-06,-1.209108290822769e-06,1.831467488955241e-05,-1.581202195666265e-05,-0.004986101761460304,0.005,0.005116987973451614,-0.3759742975234985,0.494251936674118
0.150132999,0.00401821406558156,-0.003332423977553844,-0.9962647557258606,-1.492618821430369e-06,-5.514739768841537e-06,6.858066967652121e-07,2.06451877602376e-05,-1.781343416951131e-05,-0.004980247002094984,0.005,0.004644605796784163,-0.3755643963813782,0.4949615597724915
0.155157506,0.004054845310747623,-0.002975925104692578,-0.9965739250183105,-3.36437915393617e-06,5.387541477830382e-06,-8.819796448733541e-07,2.043777749349829e-05,-1.291316038987134e-05,-0.004984449129551649,0.005,0.005035331472754478,-0.3752837777137756,0.4945356547832489
0.160158470,0.003886149730533361,-0.003107379889115691,-0.9963275790214539,3.01713589578867e-06,-1.317037344961136e-06,-2.413384891042369e-06,1.8792163245962e-05,-1.599982533662114e-05,-0.00498050544410944,0.005,0.004410110414028168,-0.3754470944404602,0.4949833154678345
0.165134847,0.003905504243448377,-0.003333166940137744,-0.9961938858032227,-1.243944211637427e-06,4.275336351611259e-08,-6.747239353899204e-07,1.947879172803368e-05,-1.815934956539422e-05,-0.004980187863111496,0.005,0.004530264530330896,-0.3754043877124786,0.4948538243770599
0.170087174,0.003680579829961061,-0.003332649124786258,-0.9961007833480835,-1.148780370385794e-06,2.94871324513224e-06,-1.091440367417817e-06,1.719612373562995e-05,-1.6530490029254e-05,-0.004980518482625484,0.005,0.004325470887124538,-0.3753893673419952,0.495635598897934
0.175016195,0.003750803647562861,-0.003213892923668027,-0.995318591594696,3.929430931748357e-06,1.911557092171279e-06,1.719295141811017e-06,1.888831320684403e-05,-1.541472374810837e-05,-0.004971443675458431,0.005,0.004841786809265614,-0.375713586807251,0.4943954944610596
0.179920897,0.004096892196685076,-0.003084453288465738,-0.9961894750595093,2.705590077312081e-06,-4.383410669106524e-06,2.910220928242779e-06,2.26639531319961e-05,-1.49218558362918e-05,-0.004985618870705366,0.005,0.004648116417229176,-0.3758307993412018,0.4948410391807556
0.184802055,0.004000937566161156,-0.00312707806006074,-0.9958798289299011,7.410580565192504e-06,-1.023990762405447e-06,9.443349995308381e-07,1.979321677936241e-05,-1.51164858834818e-05,-0.004978351294994354,0.005,0.00465186033397913,-0.3751886188983917,0.4947000443935394
0.189659908,0.003895255038514733,-0.00309498724527657,-0.9957476258277893,2.205317287007347e-06,-2.273470727232052e-07,-1.052487164088234e-06,1.890867133624852e-05,-1.573570261825807e-05,-0.004977826029062271,0.005,0.005060045514255762,-0.3753459751605988,0.4951130449771881
0.194495484,0.003881220472976565,-0.003026939230039716,-0.9959688782691956,8.243786737693881e-07,-1.773869655607996e-07,-2.084134848701069e-06,1.924374191730749e-05,-1.47903756442247e-05,-0.004981664009392262,0.005,0.00463655823841691,-0.3755679428577423,0.494574099779129
0.199307770,0.003896414302289486,-0.002927382476627827,-0.9958471655845642,9.033725518747815e-07,-5.071991381555563e-06,-4.402730610308936e-06,1.969615914276801e-05,-1.408113166689873e-05,-0.004978251177817583,0.005,0.004385556560009718,-0.3752706050872803,0.4949868023395538
0.204266757,0.003928040619939566,-0.00251184543594718,-0.9962579607963562,2.668688694029697e-06,-2.533872248022817e-06,2.039320861513261e-06,1.983445872610901e-05,-9.777922969078645e-06,-0.004984390921890736,0.005,0.004501248244196177,-0.3751821219921112,0.494032621383667
0.209455356,0.004081737715750933,-0.002987726824358106,-0.9954954981803894,6.565077228515293e-07,-1.953533910636907e-06,1.306852823290683e-06,2.145678445231169e-05,-1.772277391864918e-05,-0.004972894210368395,0.005,0.004403046332299709,-0.3756097555160522,0.494277149438858
0.214619398,0.004383819177746773,-0.003127561649307609,-0.9965246915817261,-6.936146519365138e-07,2.883857860069838e-06,-1.531323505332693e-06,2.380062142037787e-05,-1.673730184847955e-05,-0.004988027736544609,0.005,0.004918559920042753,-0.3756439983844757,0.4944063425064087
0.219757572,0.00472644716501236,-0.00307713239453733,-0.996311366558075,2.642659183038631e-06,-5.231975137576228e-06,2.908756187025574e-07,2.57800620602211e-05,-1.474816235713661e-05,-0.004981204867362976,0.005,0.004782097414135933,-0.3752312362194061,0.4947204291820526
0.224871427,0.004571118857711554,-0.003277957672253251,-0.9960394501686096,3.403705193250062e-07,2.493009958470793e-07,1.31231232103346e-07,2.205925193266012e-05,-1.814707138692029e-05,-0.004978394135832787,0.005,0.004734131507575512,-0.3752523064613342,0.4946190416812897
0.229960710,0.004246474243700504,-0.002562105190008879,-0.9960110783576965,2.814389517880045e-06,5.296755603012571e-07,3.140032276860438e-06,1.919874375744257e-05,-8.508592145517468e-06,-0.004979984369128942,0.005,0.004680678248405457,-0.3753018379211426,0.4949489831924438
0.235027194,0.004031277727335691,-0.002825267380103469,-0.9959588050842285,-2.178972408728441e-06,-3.706339157361072e-06,-7.827163699403172e-07,1.85611643246375e-05,-1.560537020850461e-05,-0.004979435820132494,0.005,0.004940491169691086,-0.3748957812786102,0.4947402775287628
0.240069121,0.003984732087701559,-0.002630172530189157,-0.9964498281478882,5.643003987643169e-06,-3.808268502325518e-06,2.716267545110895e-06,1.947101918631233e-05,-1.186004828923615e-05,-0.004984843544661999,0.005,0.004610721487551928,-0.3747325539588928,0.4951495826244354
0.245086715,0.004050696734338999,-0.00276695191860199,-0.9958842396736145,3.047481413886999e-06,6.7828966621164e-07,1.172158590634353e-06,2.0926814613631e-05,-1.458967199141625e-05,-0.004976268857717514,0.005,0.00509152002632618,-0.3750343024730682,0.4946136474609375
0.250084877,0.00400660652667284,-0.00321533065289259,-0.9962309598922729,8.157951469911495e-07,-1.251567141480336e-06,1.678384478509543e-06,1.973064718185924e-05,-1.888294900709298e-05,-0.00498258089646697,0.005,0.004712985828518867,-0.3750536441802979,0.4957418143749237
0.255058944,0.00390946539118886,-0.003206956665962934,-0.9962953925132751,-8.098276111923042e-07,3.626387297117617e-06,3.74891419596679e-06,1.873177825473249e-05,-1.571333996253088e-05,-0.004982545971870422,0.005,0.00430359598249197,-0.3750869631767273,0.4951919913291931
0.260009736,0.004023580346256495,-0.003070021513849497,-0.9960506558418274,-1.713090000521333e-06,7.120641384972259e-06,-1.329267206529039e-06,2.110870445903856e-05,-1.453360800951486e-05,-0.00497839180752635,0.005,0.004807750228792429,-0.3753570318222046,0.4960339367389679
0.264936447,0.004130034707486629,-0.002707101637497544,-0.9964694380760193,4.221823246552958e-07,-1.090696400751767e-06,-1.241301561094588e-06,2.07983139262069e-05,-1.124789741879795e-05,-0.004985624924302101,0.005,0.004890603944659233,-0.3753669857978821,0.4948810338973999
0.269839108,0.004312389995902777,-0.002992040244862437,-0.9957570433616638,3.954318344767671e-06,1.493257173024176e-06,-6.782155281825908e-08,2.339850288990419e-05,-1.674212580837775e-05,-0.004974330309778452,0.005,0.004991162568330765,-0.3747341632843018,0.4958505034446716
0.274718463,0.004243131726980209,-0.002880422631278634,-0.9961292147636414,6.751172918484372e-07,-9.952691470971331e-07,-4.858792976847326e-07,2.056167795672081e-05,-1.358954068564344e-05,-0.004982097540050745,0.005,0.004829707555472851,-0.375092089176178,0.4956645965576172
0.279574782,0.004000494722276926,-0.00285875448025763,-0.996054470539093,6.679686521238182e-06,-1.824044034037797e-06,-1.085468738892814e-06,1.871379572548904e-05,-1.404948943672935e-05,-0.004980563186109066,0.005,0.004498768132179976,-0.3749641180038452,0.4959009885787964
0.284407049,0.003917456138879061,-0.003264774801209569,-0.9960596561431885,1.355850400841518e-07,2.287674760736991e-07,-1.27065845845209e-06,1.899874041555449e-05,-1.863979923655279e-05,-0.004979968070983887,0.005,0.004410915076732635,-0.3745502531528473,0.4956873953342438
0.289216518,0.004021274391561747,-0.003097645007073879,-0.9964566230773926,-9.947170838131569e-07,-4.221111282731727e-07,2.27646273742721e-06,2.095552736136597e-05,-1.420586158928927e-05,-0.004984763450920582,0.005,0.004413096699863672,-0.3747773766517639,0.4951817989349365
0.294422269,0.004137363284826279,-0.003264176892116666,-0.99602210521698,3.31360092786781e-06,1.274205942536355e-06,4.304750746086938e-06,2.142804260074627e-05,-1.736318517941982e-05,-0.004977229982614517,0.005,0.004578632302582264,-0.3755099773406982,0.4949246644973755
0.299603701,0.004450853448361158,-0.003066778182983398,-0.9967194795608521,-9.053357530319772e-07,-1.033996568367002e-06,2.136829834853415e-06,2.403275357210077e-05,-1.456611516914563e-05,-0.004987637978047132,0.005,0.004185942467302084,-0.3751102983951569,0.4948402047157288
0.304759562,0.004358124919235706,-0.00299155036918819,-0.9962354898452759,-2.492377007001778e-06,4.560286470223218e-06,-2.747038024608628e-06,2.127773768734187e-05,-1.415507722413167e-05,-0.00497859762981534,0.005,0.004577978048473597,-0.375110387802124,0.4951227307319641
0.309890062,0.004064314067363739,-0.002646044595167041,-0.9961317181587219,-4.457016984815709e-06,6.248287263588281e-06,-3.876772041166987e-07,1.848388819780666e-05,-1.164707100542728e-05,-0.004979266785085201,0.005,0.004752675071358681,-0.3756885230541229,0.4948108494281769
0.314995974,0.004290733486413956,-0.002622817177325487,-0.9969048500061035,1.573846816427249e-06,-4.364010806057195e-07,-1.426957680905616e-07,2.25308340304764e-05,-1.286722363147419e-05,-0.004989954642951488,0.005,0.004995668306946754,-0.3755547702312469,0.4954141080379486
0.320077568,0.004288873635232449,-0.002853373764082789,-0.9960699081420898,-2.7097615884486e-07,1.108008262917792e-07,1.49729271470278e-06,2.154455432901159e-05,-1.583440462127328e-05,-0.004974977113306522,0.005,0.005361755844205618,-0.3753789961338043,0.4955326914787292
0.325139463,0.004138917662203312,-0.002665829146280885,-0.9964256882667542,-2.876798134821001e-06,1.975185796254664e-06,1.526909500171314e-06,1.955322477442678e-05,-1.213843279401772e-05,-0.004984572529792786,0.005,0.005304297432303429,-0.3758662343025208,0.4950561225414276
0.330177546,0.00407005101442337,-0.003123316448181868,-0.9954572916030884,-4.000526132585946e-06,-1.532320766273187e-06,-2.714058950914477e-07,1.969182631000876e-05,-1.830013206927106e-05,-0.00497141107916832,0.005,0.004873715341091156,-0.375675231218338,0.4950873255729675
0.335191309,0.003969897516071796,-0.003259224584326148,-0.9961616992950439,-4.94891310154344e-06,-7.014223797341401e-07,1.013065229926724e-06,1.92030674952548e-05,-1.736329795676284e-05,-0.00498449569568038,0.005,0.005179598927497864,-0.3751884996891022,0.4951114654541016
0.340181768,0.004063442349433899,-0.002976110437884927,-0.9962197542190552,2.97268275062379e-06,1.026989551178303e-07,6.267342200771964e-07,2.067823879770003e-05,-1.28400406538276e-05,-0.004982334561645985,0.005,0.005699336063116789,-0.3755689859390259,0.4945681691169739
0.345146894,0.004173899069428444,-0.003106884192675352,-0.995955228805542,1.298337451771658e-06,-2.167746742998133e-06,2.984151933560497e-06,2.169146318919957e-05,-1.651560523896478e-05,-0.004977758042514324,0.005,0.004945463500916958,-0.3757427334785461,0.4946335852146149
0.350089729,0.004023287910968065,-0.00277102435939014,-0.9964650869369507,-4.495700238749123e-07,-1.844905682446552e-06,1.216653458868677e-06,1.924248499562964e-05,-1.172929114545695e-05,-0.00498585868626833,0.005,0.005082723684608936,-0.3753095269203186,0.4940815269947052
0.355008245,0.004182548262178898,-0.003076000139117241,-0.9956536293029785,3.611028660088778e-06,-5.4022993936087e-06,1.968102878890932e-06,2.188713187933899e-05,-1.680089735600632e-05,-0.004973481874912977,0.005,0.005024998914450407,-0.3755411803722382,0.4941450357437134
0.359903485,0.004277796484529972,-0.003129964228719473,-0.9960615038871765,1.595377966623346e-06,-9.217338288181054e-07,3.948414359911112e-07,2.190980012528598e-05,-1.655794221733231e-05,-0.004982491955161095,0.005,0.005378174129873514,-0.3757506012916565,0.4942309558391571
0.364774644,0.00422140397131443,-0.002781534101814032,-0.9957715272903442,1.090757677957299e-06,3.157412493237644e-06,5.087508725409862e-07,2.095313902827911e-05,-1.161887303169351e-05,-0.004977970849722624,0.005,0.005025302991271019,-0.375306636095047,0.4953774809837341
0.369622529,0.004090776666998863,-0.003192285774275661,-0.995926558971405,3.913813088729512e-06,-3.00215401694004e-06,-3.164970792113309e-07,1.958637949428521e-05,-1.828239328460768e-05,-0.004979781340807676,0.005,0.005002100020647049,-0.3753352463245392,0.4955041706562042
0.374447614,0.00419926643371582,-0.002976492047309875,-0.9961351156234741,1.006218099064426e-06,-1.15672230549535e-06,3.665900294436142e-07,2.139290700142737e-05,-1.3011071132496e-05,-0.004982729442417622,0.005,0.004917386919260025,-0.3757295310497284,0.49518883228302
0.379334927,0.004106087144464254,-0.003398342290893197,-0.9956103563308716,-9.474700846112682e-07,3.956702130381018e-06,-1.064455659616215e-06,1.985732524190098e-05,-1.946364318428095e-05,-0.004974311217665672,0.005,0.004068820737302303,-0.3755902051925659,0.4954869151115417
0.384534270,0.004111576825380325,-0.003088788595050573,-0.9964671730995178,2.659423614659318e-07,-3.861223945023085e-07,1.376108116346586e-06,2.091665191983338e-05,-1.383136259391904e-05,-0.004987980704754591,0.005,0.00376177066937089,-0.3752450048923492,0.4957048892974854
0.389709055,0.004049039445817471,-0.002906149020418525,-0.9956320524215698,3.977757387474412e-06,-2.730406777118333e-06,-9.992354534915648e-07,1.970448283827864e-05,-1.304619490838377e-05,-0.004973225295543671,0.005,0.004577378742396832,-0.376001238822937,0.4948655664920807
0.394857466,0.004068868234753609,-0.002905939938500524,-0.9959238767623901,3.075835820709472e-06,5.851363198416948e-07,3.815836862486321e-06,2.034716453636065e-05,-1.450876334274653e-05,-0.004980720113962889,0.005,0.004187523387372494,-0.375882089138031,0.4955962300300598
0.399981320,0.00424715131521225,-0.00308353896252811,-0.9960421919822693,2.933192718046485e-06,-4.498671387409559e-06,2.781722287181765e-06,2.237977059849072e-05,-1.64105549629312e-05,-0.004981422796845436,0.005,0.004650325980037451,-0.3751980066299438,0.4948634207248688
0.405083150,0.004148819483816624,-0.00333152455277741,-0.9955710768699646,2.260965629830025e-06,1.077821821127145e-06,-1.67334439993283e-06,1.998484913201537e-05,-1.818841155909467e-05,-0.004974284674972296,0.005,0.00460168207064271,-0.3752091825008392,0.4948788583278656
0.410160393,0.004374734126031399,-0.003071764251217246,-0.9964544773101807,-4.465188794711139e-06,-1.538986111881968e-06,-1.361315867143276e-06,2.374622636125423e-05,-1.406996307196096e-05,-0.004988087806850672,0.005,0.004217548295855522,-0.3753189742565155,0.4951291084289551
0.415213823,0.004239458125084639,-0.003076457884162664,-0.9958516955375671,4.121707661397522e-06,-1.46066656725452e-06,-2.281254182889825e-06,2.071152812277433e-05,-1.493260060669854e-05,-0.004975396208465099,0.005,0.004279709421098232,-0.375211626291275,0.4953571259975433
0.420242935,0.004019516985863447,-0.003212731331586838,-0.9963534474372864,-5.106675757815538e-07,-1.463036369386828e-06,-1.402333055011695e-06,1.861458258645143e-05,-1.734707439027261e-05,-0.004984457045793533,0.005,0.004483271855860949,-0.3750244975090027,0.4950580298900604
0.425246716,0.004267563112080097,-0.002971486886963248,-0.9957214593887329,-2.996927833009977e-06,4.239831525865156e-07,-2.489079406586825e-06,2.260420114907902e-05,-1.324809909419855e-05,-0.004975802265107632,0.005,0.004592688754200935,-0.3751260042190552,0.4954005181789398
0.430227965,0.004333215765655041,-0.003392061218619347,-0.9957752227783203,-1.214274902849866e-07,1.286608380723919e-06,-3.097531816820265e-06,2.187009340559598e-05,-1.966987474588677e-05,-0.004978322423994541,0.005,0.004760014824569225,-0.3752748072147369,0.4942613244056702
0.435184628,0.004206389188766479,-0.002880705520510674,-0.9960818886756897,1.664397018430464e-06,-1.16904311653343e-06,5.946054102423659e-07,2.003403278649785e-05,-1.14858494271175e-05,-0.004982819780707359,0.005,0.00454458175227046,-0.3749507367610931,0.4948341846466064
0.440117747,0.004052124451845884,-0.003005502512678504,-0.9957071542739868,-2.476586473676434e-07,-1.354694063593342e-06,-3.457642606008449e-06,1.919808346428908e-05,-1.507908382336609e-05,-0.004975717980414629,0.005,0.004904183093458414,-0.3754127025604248,0.4938516914844513
0.445026547,0.00411999924108386,-0.002781698713079095,-0.9962869882583618,-4.553553026198642e-06,3.847771949949674e-06,1.766990635587717e-06,2.111092362611089e-05,-1.324672666669358e-05,-0.004984885454177856,0.005,0.005148682277649641,-0.3755848109722137,0.4948047995567322
0.449912071,0.003999708220362663,-0.003087392775341868,-0.9955787062644958,-9.407254992765957e-07,-1.53623363985389e-06,-3.086822971454239e-06,1.946667907759547e-05,-1.684668313828297e-05,-0.004973881877958775,0.005,0.004338204395025969,-0.3753490447998047,0.4943906664848328
0.454774261,0.004072825890034437,-0.003338729729875922,-0.9958510398864746,1.797327399799542e-06,6.93274387231213e-07,-8.940829729908728e-07,2.093243892886676e-05,-1.832591624406632e-05,-0.004979452583938837,0.005,0.00458745751529932,-0.3754107058048248,0.4948176145553589
0.459614217,0.00428167637437582,-0.003331836313009262,-0.996229887008667,-2.554314960434567e-06,-5.341985342965927e-06,-1.16513763259718e-06,2.303637120348867e-05,-1.656667336646933e-05,-0.004984661005437374,0.005,0.004690423142164946,-0.3757098615169525,0.4943470060825348
0.464430600,0.004127344116568565,-0.003660168033093214,-0.995793879032135,5.619674993795343e-06,-1.471985200396375e-07,1.633828219382849e-07,1.982291723834351e-05,-2.044437678705435e-05,-0.004975325893610716,0.005,0.004748100414872169,-0.3756240606307983,0.4945279359817505
0.469308674,0.004138017538934946,-0.003084369003772736,-0.9964964389801025,-1.857272081906558e-06,2.723602392507019e-07,-9.442060218134429e-07,2.079377372865565e-05,-1.21064113045577e-05,-0.004987332969903946,0.005,0.005229990463703871,-0.3750606775283813,0.4941218793392181
0.474500358,0.004242550581693649,-0.002869954099878669,-0.9960480332374573,4.289190655981656e-06,5.783174401585711e-07,2.98072427540319e-06,2.160189796995837e-05,-1.281025379284984e-05,-0.004977235570549965,0.005,0.004912341944873333,-0.3752405345439911,0.4945728182792664
0.479666680,0.004177412483841181,-0.002876020036637783,-0.9967763423919678,2.438935666759789e-07,-2.343627329537412e-06,5.237004785385579e-08,2.02675237233052e-05,-1.465657442167867e-05,-0.00498788058757782,0.005,0.004742616787552834,-0.3754445612430573,0.4946413636207581
0.484808445,0.003977126907557249,-0.003012437140569091,-0.996116042137146,-1.53008022607537e-06,3.062070391024463e-06,6.708916657771624e-07,1.879520095826592e-05,-1.524152776255505e-05,-0.004977529868483543,0.005,0.004949112422764301,-0.3749514222145081,0.4955908060073853
0.489925891,0.004267501179128885,-0.00359351048246026,-0.9958174228668213,-1.746251655276865e-06,-7.878767064539716e-06,-6.595100785489194e-07,2.293865691171959e-05,-2.193218460888602e-05,-0.004976056050509214,0.005,0.004693952854722738,-0.3750307261943817,0.4947866201400757
0.495017737,0.004171158652752638,-0.003176355734467506,-0.996147096157074,2.964791747217532e-06,1.528409541151632e-07,-1.092123966373038e-06,2.022806802415289e-05,-1.320471073995577e-05,-0.004983315709978342,0.005,0.004628835711628199,-0.3756954073905945,0.495918333530426
0.500086010,0.00431118905544281,-0.003240247955545783,-0.9955687522888184,3.433779511397006e-06,-3.130758386760135e-06,2.958856555324019e-07,2.253308412036858e-05,-1.636605702515226e-05,-0.004973988048732281,0.005,0.004440300166606903,-0.3752915859222412,0.4954024851322174
0.505132794,0.004220440518110991,-0.003009814536198974,-0.9960508346557617,-2.401468009338714e-06,7.455485047103139e-07,-3.071188530157087e-06,2.064951695501804e-05,-1.415204860677477e-05,-0.004982857964932919,0.005,0.00409341836348176,-0.3752029240131378,0.4955036044120789
0.510155499,0.00404631020501256,-0.002843052381649613,-0.9957674741744995,1.501458996244764e-06,-3.801375214607106e-06,2.427779008939979e-06,1.92034258361673e-05,-1.235811123478925e-05,-0.00497738178819418,0.005,0.004730193875730038,-0.3758609890937805,0.495277464389801
0.515153944,0.003977881744503975,-0.003245848463848233,-0.9957664012908936,-3.842276328214211e-06,5.170720669411821e-07,-5.280100594973192e-06,1.921348848554771e-05,-1.926861477841157e-05,-0.004978194367140532,0.005,0.004730032756924629,-0.3754389584064484,0.4961142838001251
0.520129025,0.00382741610519588,-0.002993653295561671,-0.9960108399391174,4.920659193885513e-06,1.031708052323665e-06,8.965899951363099e-07,1.834572685766034e-05,-1.346795488643693e-05,-0.004982735030353069,0.005,0.004829999059438705,-0.3748956620693207,0.4946464598178864
0.525079012,0.003774310927838087,-0.003263202728703618,-0.9955047965049744,3.75579816136451e-06,-3.672911361718434e-07,2.514026391509105e-06,1.830931614676956e-05,-1.775526834535412e-05,-0.004973915871232748,0.005,0.004718494601547718,-0.3751576840877533,0.4953506290912628
0.530005753,0.00376218999736011,-0.00310904998332262,-0.9961044192314148,3.080376700381748e-06,-2.45489701455881e-07,6.690503369100043e-07,1.887706639536191e-05,-1.493798117735423e-05,-0.004984046798199415,0.005,0.004711789544671774,-0.3753733932971954,0.4946735799312592
0.534909189,0.0038074916228652,-0.003193209180608392,-0.9954731464385986,5.850187179134991e-08,5.872374231330468e-07,1.593467800375947e-06,1.923895251820795e-05,-1.651166894589551e-05,-0.004973726812750101,0.005,0.004241117276251316,-0.3750897347927094,0.4957725703716278
0.539789319,0.003788790199905634,-0.00304758339188993,-0.9963562488555908,-2.693852252377837e-07,4.566270945360884e-06,-1.823242996579211e-07,1.898038863146212e-05,-1.461753072362626e-05,-0.004986636806279421,0.005,0.004927499685436487,-0.3751778900623322,0.495093047618866
0.544645131,0.003878207178786397,-0.00293391477316618,-0.995902955532074,2.07684320230328e-06,-1.581756350788055e-06,1.790403530321782e-06,1.999029518628959e-05,-1.389051340083824e-05,-0.004977787379175425,0.005,0.005175051279366016,-0.3754940032958984,0.495572030544281
0.549477875,0.003905516117811203,-0.00364063261076808,-0.9958992600440979,-1.043790803123557e-06,3.35344452651043e-06,6.79634069911117e-07,1.976589919649996e-05,-2.25223211600678e-05,-0.004978432785719633,0.005,0.004998360760509968,-0.3752511143684387,0.4950093924999237
0.554287612,0.0038703887257725,-0.002880566520616412,-0.9962397217750549,-3.140849457849981e-06,1.260862291019293e-06,-1.942109264518876e-07,1.896743015095126e-05,-1.055080974765588e-05,-0.004983840510249138,0.005,0.005207592621445656,-0.3752729594707489,0.4943551421165466
0.559412718,0.004226430784910917,-0.003053962718695402,-0.9956928491592407,3.721223265529261e-06,4.395101598220208e-07,3.602228161980747e-06,2.335601311642677e-05,-1.565208731335588e-05,-0.004974824376404285,0.005,0.005175652448087931,-0.3754375278949738,0.49333256483078
0.564597249,0.004073559306561947,-0.002911770017817616,-0.9964381456375122,-2.650504256962449e-06,4.890827767667361e-06,-7.977744758136396e-07,1.947359487530775e-05,-1.392415288137272e-05,-0.00498661445453763,0.005,0.005300137214362621,-0.3752447366714478,0.4937011897563934
0.569756925,0.003850994165986776,-0.002757292939350009,-0.9959948062896729,-2.332256144654821e-06,3.275927156209946e-06,4.157617695454974e-06,1.821727528295014e-05,-1.262637670151889e-05,-0.004978078417479992,0.005,0.005195543169975281,-0.3752317726612091,0.4941277205944061
0.574891806,0.003912770189344883,-0.003033579559996724,-0.9960598349571228,-1.502458530922013e-06,7.261142854986247e-06,3.77847777599527e-06,1.958708526217379e-05,-1.709521166048944e-05,-0.004979752469807863,0.005,0.00483425660058856,-0.3756956458091736,0.4937390387058258
0.580001533,0.003882140386849642,-0.002774092834442854,-0.9964265823364258,-5.655394488712773e-06,-1.469111111873644e-06,2.806820020850864e-07,1.935531327035278e-05,-1.208176945510786e-05,-0.004985271021723747,0.005,0.004655135795474052,-0.3755843937397003,0.4937867820262909
0.585088015,0.003747452981770039,-0.003072142601013184,-0.9955500960350037,1.932572928353693e-07,-3.880885742546525e-06,-8.396931434617727e-07,1.796189644664992e-05,-1.693420199444517e-05,-0.004971491172909737,0.005,0.00509946933016181,-0.3753376603126526,0.4942759275436401
0.590151966,0.003868960309773684,-0.003078689565882087,-0.9961193799972534,2.475135033819242e-06,-4.410976828239654e-07,1.818386749619094e-06,2.009978197747841e-05,-1.567973413330037e-05,-0.004984413273632526,0.005,0.005030159372836351,-0.3754589557647705,0.4932165145874023
0.595192552,0.00407793466001749,-0.002860207110643387,-0.9955137968063354,4.338514258961368e-07,-1.476376155551407e-06,-4.510191047302214e-07,2.182859498134349e-05,-1.29256604850525e-05,-0.004973968956619501,0.005,0.004603900015354156,-0.3758655488491058,0.493561178445816
0.600208879,0.003916864283382893,-0.003201532177627087,-0.9959662556648254,8.432006666225789e-07,4.407405413076049e-06,3.817695869656745e-06,1.876537498901598e-05,-1.812298432923853e-05,-0.004981535486876965,0.005,0.004876718390733004,-0.375250369310379,0.494939923286438
0.605201423,0.004048076923936605,-0.003086943877860904,-0.9959565997123718,-3.269571834607632e-06,3.600458967412123e-06,-2.194644679320845e-07,2.091472924803384e-05,-1.449530282116029e-05,-0.004980900324881077,0.005,0.004742744844406843,-0.3749929964542389,0.4955331981182098
0.610169113,0.004234824329614639,-0.003433929989114404,-0.9958246350288391,3.726367594936164e-06,1.992204232692529e-07,-7.421272130159196e-07,2.235781903436873e-05,-1.955843254108913e-05,-0.004977323114871979,0.005,0.004458017181605101,-0.3751974403858185,0.4949120581150055
0.615113199,0.004270906094461679,-0.003092104103416204,-0.9966862797737122,-3.766095233004307e-06,-3.016785285581136e-06,-2.951866008515935e-06,2.133668385795318e-05,-1.344330303254537e-05,-0.00498954625800252,0.005,0.003999135456979275,-0.3749767243862152,0.4957365989685059
0.620033801,0.00439413171261549,-0.003168897470459342,-0.9956183433532715,3.032157792404178e-06,-1.78221637270326e-06,-8.946890375227667e-07,2.275813676533289e-05,-1.60136023623636e-05,-0.004971456248313189,0.005,0.004558849148452282,-0.3748369812965393,0.4953255355358124
0.624929786,0.004221831448376179,-0.003125994466245174,-0.9964521527290344,-5.291850811772747e-06,1.217351496052288e-06,-6.880147793708602e-07,2.008512274187524e-05,-1.57170961756492e-05,-0.004987584892660379,0.005,0.004700564779341221,-0.375368744134903,0.4953539073467255
0.629802763,0.004314328078180552,-0.002887886250391603,-0.995719850063324,1.431063083146e-06,2.435795522615081e-06,-3.906924632701703e-07,2.235163265140727e-05,-1.263569356524386e-05,-0.004975032992660999,0.005,0.005188255570828915,-0.3753943145275116,0.4953915178775787
0.634651363,0.004320436622947454,-0.003151448210701346,-0.9959131479263306,-1.912905418066657e-06,7.497337151107786e-07,-2.230731723784629e-07,2.173673783545382e-05,-1.735135811031796e-05,-0.004979797638952732,0.005,0.004878629464656115,-0.3751494288444519,0.4953747689723969
0.639478266,0.003993459045886993,-0.002867070026695728,-0.9961643218994141,2.956069238280179e-07,-7.656282718926377e-07,1.953988203240442e-06,1.76727153302636e-05,-1.247513773705577e-05,-0.004982690326869488,0.005,0.005185926333069801,-0.3750339150428772,0.4946293830871582
0.644281328,0.004258222877979279,-0.003251157235354185,-0.995414674282074,2.267705099257e-07,-3.961525635531871e-06,-1.053920982485579e-06,2.291560304001905e-05,-1.854492438724265e-05,-0.004972311668097973,0.005,0.005353044718503952,-0.3754932582378387,0.4946893155574799
0.649483502,0.004359813872724771,-0.002724369522184134,-0.996188223361969,3.007252473707922e-07,-3.31522710439458e-06,-6.743891844962491e-07,2.258621498185676e-05,-1.107096431951504e-05,-0.004985439591109753,0.005,0.005186445079743862,-0.3752488791942596,0.494570255279541
0.654661894,0.004258897621184587,-0.00255909631960094,-0.9960837364196777,2.046311237791087e-06,1.898039840853016e-06,4.906807475890673e-07,2.064490399789065e-05,-1.121402783610392e-05,-0.004980582743883133,0.005,0.005370745435357094,-0.3751303851604462,0.4942161738872528
0.659815431,0.00394147913902998,-0.002708535641431808,-0.996419370174408,-1.396593916069833e-06,-9.714526640891563e-07,4.626296231435845e-06,1.778232945071068e-05,-1.493102536187507e-05,-0.004983832128345966,0.005,0.005790608935058117,-0.3753612637519836,0.4941378831863403
0.664944410,0.003821828169748187,-0.002479648683220148,-0.996159553527832,-3.54291228177317e-06,3.080506985497777e-06,-8.286486945507932e-07,1.802866245270707e-05,-1.049805723596364e-05,-0.004979849327355623,0.005,0.004988111555576324,-0.3752128183841705,0.4937888979911804
0.670049012,0.003843210870400071,-0.002772729378193617,-0.9956817030906677,-4.477335096453317e-06,-3.349997825807804e-07,1.220849867422658e-06,1.954846084117889e-05,-1.548434192955028e-05,-0.004974283277988434,0.005,0.005489673931151628,-0.3748045265674591,0.4948452711105347
0.675128579,0.004133715759962797,-0.002788569778203964,-0.996529757976532,-2.350182285226765e-06,-1.498113306297455e-06,3.083974888795638e-06,2.225934440502897e-05,-1.40394604386529e-05,-0.004988213535398245,0.005,0.005202860105782747,-0.3753790855407715,0.4945207536220551
0.680184841,0.004120754078030586,-0.003055751556530595,-0.9957827925682068,1.09781171886425e-06,-2.594681063783355e-06,2.148010025848635e-06,2.096360185532831e-05,-1.652383434702642e-05,-0.004973996430635452,0.005,0.004894481506198645,-0.375370979309082,0.4945985972881317
0.685220361,0.004361334722489119,-0.00320750568062067,-0.9963703155517578,1.559527504468861e-06,2.274100097565679e-06,4.090325546712847e-06,2.281997331010643e-05,-1.73504013218917e-05,-0.004985155537724495,0.005,0.004815656691789627,-0.3750859200954437,0.4938595294952393
0.690231323,0.004317913204431534,-0.003061159513890743,-0.9961636066436768,7.437367344209633e-07,1.554056780150859e-06,3.132029632979538e-06,2.144943391613197e-05,-1.396107018081238e-05,-0.004980259574949741,0.005,0.004735984373837709,-0.3753240704536438,0.4948066771030426
0.695218921,0.00440414622426033,-0.003281282959505916,-0.9963026642799377,3.222593818463793e-07,-2.489557573426282e-06,1.531382281427796e-06,2.24303403228987e-05,-1.812744449125603e-05,-0.004981352481991053,0.005,0.004770263563841581,-0.3758790493011475,0.4944484531879425
0.700181782,0.00425276905298233,-0.002407087944447994,-0.9964500069618225,4.375573098513996e-06,6.145178303995635e-06,1.329071324107645e-06,2.039391256403178e-05,-6.847641543572536e-06,-0.004983788821846247,0.005,0.004637648817151785,-0.3749752044677734,0.4948987364768982
0.705121279,0.004125730134546757,-0.002606587018817663,-0.9953910112380981,1.798890707505052e-06,4.215115041006356e-06,1.291846558615362e-07,1.996569153561722e-05,-1.364586751151364e-05,-0.004970049951225519,0.005,0.005117074120789766,-0.3749997019767761,0.4937103986740112
0.710037529,0.004141115117818117,-0.002613809192553163,-0.9963057041168213,6.346905934151437e-07,3.119059329037555e-06,3.128059915979975e-06,2.073951327474788e-05,-1.358887129754294e-05,-0.004987413994967937,0.005,0.004302654415369034,-0.3758022785186768,0.4939323663711548
0.714930415,0.004120454657822847,-0.002497019013389945,-0.9954883456230164,3.257749767726636e-06,-5.667864684255619e-07,1.760989675858582e-06,2.054252217931207e-05,-1.126722600020003e-05,-0.004972557537257671,0.005,0.004295574501156807,-0.3757863640785217,0.4941544830799103
0.719799817,0.004306836519390345,-0.002873274032026529,-0.9959825873374939,-1.879453520814423e-06,6.070580411687843e-07,3.414161938053439e-06,2.307657450728584e-05,-1.689538839855231e-05,-0.004982772748917341,0.005,0.004471217282116413,-0.3757666647434235,0.4949768781661987
0.724645138,0.004168743267655373,-0.002676798962056637,-0.9960988163948059,-4.535064590527327e-07,6.517956080642762e-06,4.623684901616798e-07,1.986477764148731e-05,-1.192991021525813e-05,-0.00498203607276082,0.005,0.004477074835449457,-0.3758039176464081,0.4942623972892761
0.729467630,0.004219598136842251,-0.003245841478928924,-0.9957675337791443,2.228328412456904e-06,9.350553682452301e-07,6.058360781935335e-07,2.122159276041202e-05,-1.951061312865932e-05,-0.004975845571607351,0.005,0.003984404727816582,-0.3756312131881714,0.4950704276561737
0.734351099,0.004344017710536718,-0.003057683352380991,-0.9962190389633179,-8.566570954826602e-07,3.866441602440318e-06,7.73192596170702e-07,2.244612915092148e-05,-1.45347012221464e-05,-0.004984757862985134,0.005,0.004520340356975794,-0.3754500150680542,0.4945568740367889
0.739545584,0.004328629933297634,-0.003178789280354977,-0.9955976009368896,5.042012162448373e-06,-8.752974167691718e-07,-7.562090331703075e-07,2.141058212146163e-05,-1.614240500202868e-05,-0.004973527044057846,0.005,0.004670524038374424,-0.3753517866134644,0.4948460459709167
0.744715512,0.004359986167401075,-0.003041161457076669,-0.9962429404258728,-1.079366597878106e-06,1.461092324461788e-06,2.943967501778388e-06,2.204064367106184e-05,-1.5190662452369e-05,-0.004984635859727859,0.005,0.004793871659785509,-0.3754387497901917,0.4944934844970703
0.749861121,0.004135560244321823,-0.002669893437996507,-0.9960455894470215,6.874285190860974e-06,3.249191649956629e-06,5.905453690502327e-07,1.981156128749717e-05,-1.021747084450908e-05,-0.004979832097887993,0.005,0.004922209307551384,-0.3753795623779297,0.4961394965648651
0.754982650,0.00379582610912621,-0.003197867190465331,-0.9960063695907593,-8.438730105808645e-07,-1.739647700560454e-06,1.087410169020586e-06,1.707920455373824e-05,-1.926499317050911e-05,-0.004978705663233995,0.005,0.004773347172886133,-0.3750995397567749,0.4947932362556458
0.760080874,0.004003939684480429,-0.002940195612609386,-0.9968990683555603,-2.403295411568251e-06,-7.308833005481574e-08,3.18804654853011e-06,2.105335261148866e-05,-1.307449565501884e-05,-0.004990615881979465,0.005,0.00460028974339366,-0.3753590285778046,0.4947569966316223
0.765154839,0.003932496998459101,-0.003156338352710009,-0.9960058331489563,-1.004833279694139e-06,1.516734869255743e-06,5.697023084394459e-07,1.900841380120255e-05,-1.68253063748125e-05,-0.004974171984940767,0.005,0.00479638809338212,-0.3753111958503723,0.4948503375053406
0.770203888,0.003929236903786659,-0.003166453447192907,-0.9965510964393616,-3.616638878156664e-06,1.209769834531471e-06,-1.048016883942182e-06,1.973706821445376e-05,-1.593857268744614e-05,-0.004986334126442671,0.005,0.004449187312275171,-0.3751795887947083,0.4953398704528809
0.775228441,0.003851745510473847,-0.003090243320912123,-0.9956858158111572,3.935360382456565e-06,1.884370021798532e-06,2.391165025983355e-06,1.872279244707897e-05,-1.442691609554458e-05,-0.004973519127815962,0.005,0.004986421205103397,-0.3753347396850586,0.4943075776100159
0.780229390,0.003875120542943478,-0.003216887591406703,-0.9958428740501404,-2.205717919423478e-06,-1.041265363710409e-06,5.253109065961326e-06,1.986563256650697e-05,-1.726304799376521e-05,-0.004979277960956097,0.005,0.004690343514084816,-0.375156581401825,0.4954867362976074
0.785206020,0.004289427772164345,-0.002866127295419574,-0.9960170984268188,-4.565080189422588e-07,4.825573341804557e-06,3.807449274972896e-06,2.376856355112977e-05,-1.152974255091976e-05,-0.004982167389243841,0.005,0.005035143345594406,-0.3749654293060303,0.4943849146366119
0.790159643,0.004199713002890348,-0.003059985348954797,-0.9955547451972961,5.237914137978805e-06,3.129110609734198e-06,1.609913965694432e-06,2.075376687571406e-05,-1.642524512135424e-05,-0.004973798990249634,0.005,0.00477462075650692,-0.3752822279930115,0.4945201277732849
0.795089662,0.004170234315097332,-0.002660983707755804,-0.996285080909729,3.447780500209774e-06,2.837614829331869e-06,-7.414971605612664e-07,2.044603752437979e-05,-1.118389445764478e-05,-0.004985859151929617,0.005,0.004981544334441423,-0.3758304715156555,0.4939647018909454
0.799994886,0.004121643025428057,-0.00277014309540391,-0.9956187605857849,4.905737682747713e-08,-2.844683137936954e-07,-1.230248699357617e-06,2.020379906753078e-05,-1.424380661774194e-05,-0.004974594339728355,0.005,0.005030066706240177,-0.375919908285141,0.4947280883789062
0.804877043,0.004150718916207552,-0.002944363513961434,-0.995851993560791,6.335899342957418e-07,2.959167886729119e-06,2.765607860055752e-06,2.089375630021095e-05,-1.603533564775717e-05,-0.004979792051017284,0.005,0.005120851565152407,-0.3757081031799316,0.4940886497497559
0.809736967,0.004381546285003424,-0.002848248230293393,-0.9958102703094482,-3.240745172661263e-06,3.481825672224659e-07,2.921379689269088e-07,2.315229176019784e-05,-1.360508940706495e-05,-0.004979995079338551,0.005,0.004993428010493517,-0.3757007420063019,0.4949361681938171
0.814574361,0.004254378844052553,-0.003128610085695982,-0.9956157207489014,-3.518863195495214e-06,-3.158017989335349e-06,1.024093535306747e-06,2.076147393381689e-05,-1.760072154866066e-05,-0.004975568503141403,0.005,0.004720310214906931,-0.3755663335323334,0.4951823353767395
0.819387913,0.004095283802598715,-0.002737661823630333,-0.9961876273155212,7.041590492917749e-07,3.336886038596276e-06,-2.652621333254501e-06,1.914242420752998e-05,-1.158709164883476e-05,-0.004984878469258547,0.005,0.004570477176457644,-0.3749578893184662,0.4949528872966766
0.824352026,0.003987992648035288,-0.003043533302843571,-0.995406448841095,1.32074308112351e-06,-2.411534524071612e-06,1.704650571809907e-06,1.944040377566125e-05,-1.666585922066588e-05,-0.004972241353243589,0.005,0.004817925859242678,-0.3753496706485748,0.4939048290252686
0.829540372,0.003967208787798882,-0.003193373093381524,-0.9962537288665771,2.54298299751099e-07,7.630914296896663e-06,3.784442981213942e-07,1.909678030642681e-05,-1.695490209385753e-05,-0.004985873121768236,0.005,0.005491165444254875,-0.3754637241363525,0.4950017333030701
0.834702611,0.004139465745538473,-0.003017651150003076,-0.9955986142158508,1.805308329494437e-06,7.198879359293642e-08,2.867595412681112e-06,2.168850369344e-05,-1.345715918432688e-05,-0.004974738694727421,0.005,0.005633874796330929,-0.3748137652873993,0.4949257373809814
0.839840531,0.004369386937469244,-0.003234471892938018,-0.995672345161438,2.242036316602025e-06,-4.142068064538762e-06,1.956351070475648e-06,2.344967651879415e-05,-1.754411641741171e-05,-0.00497779157012701,0.005,0.005201264750212431,-0.3749557137489319,0.4955995678901672
0.844953835,0.004383466672152281,-0.002954421099275351,-0.996151328086853,4.65968348350998e-08,2.471189191055601e-07,-3.919577466149349e-06,2.216186476289295e-05,-1.30139978864463e-05,-0.004984270315617323,0.005,0.005860602948814631,-0.3751956224441528,0.4942248165607452
0.850041866,0.004319461993873119,-0.003495459211990237,-0.9956389665603638,7.497391152355704e-07,4.901110969512956e-06,8.783233624853892e-07,2.119860437233001e-05,-2.050051443802658e-05,-0.004974653013050556,0.005,0.005142104811966419,-0.3748516738414764,0.4951139986515045
0.855108082,0.004049325827509165,-0.00297757494263351,-0.99650639295578,1.493952936471032e-06,-3.510837842668479e-08,-1.791153465546813e-07,1.873617475212086e-05,-1.207449804496719e-05,-0.004987780004739761,0.005,0.005212392657995224,-0.375160425901413,0.4947748780250549
0.860151291,0.003979717846959829,-0.00287772505544126,-0.995647668838501,1.484588665334741e-06,1.316368638981658e-06,7.293513704098586e-07,1.946437259903178e-05,-1.310176412516739e-05,-0.004973798058927059,0.005,0.005322822835296392,-0.3753782212734222,0.4951446652412415
0.865169644,0.00411906884983182,-0.003134355880320072,-0.9958450794219971,-6.032886972207052e-07,2.482170884832158e-06,-2.667505896170042e-06,2.136594230250921e-05,-1.762152351147961e-05,-0.004979595541954041,0.005,0.004899401683360338,-0.3750709295272827,0.4949544668197632
0.870163441,0.004205125384032726,-0.002774717519059777,-0.9957786202430725,1.976975227080402e-06,-3.318756171211135e-06,2.494063664926216e-06,2.161103111575358e-05,-1.193532625620719e-05,-0.00497992429882288,0.005,0.004498513415455818,-0.3743317127227783,0.4950971603393555
0.875133693,0.004194741602987051,-0.003184021916240454,-0.9955513477325439,1.181286393148184e-06,-1.841508492361754e-06,5.682393293682253e-07,2.088353721774183e-05,-1.8117270883522e-05,-0.004975358489900827,0.005,0.005325545556843281,-0.3748662769794464,0.4941103756427765
0.880079865,0.004249263554811478,-0.002980482764542103,-0.9961128830909729,-3.190908273609239e-06,-1.353330276288034e-06,3.999837190349353e-06,2.164066972909495e-05,-1.352308208879549e-05,-0.004984142724424601,0.005,0.004780403804033995,-0.3750532567501068,0.494638592004776
0.885001719,0.004237305372953415,-0.003459938336163759,-0.9955071806907654,4.973441264155554e-06,1.713083861432096e-06,-1.12207214897353e-06,2.124258935509715e-05,-1.971322126337327e-05,-0.004974077455699444,0.005,0.004520301707088947,-0.3747195303440094,0.4947148263454437
0.889899790,0.004288958385586739,-0.003428546246141195,-0.9961285591125488,-4.412694579514209e-06,-3.241030299250269e-06,2.298710342074628e-06,2.207069155701902e-05,-1.718202656775247e-05,-0.004984118044376373,0.005,0.004267652053385973,-0.3748083412647247,0.4951235055923462
0.894774020,0.004300414118915796,-0.003407289739698172,-0.9955884218215942,5.479696028487524e-06,-7.176948315645859e-07,2.386367725648597e-08,2.122314617736265e-05,-1.677204454608727e-05,-0.004975215531885624,0.005,0.004452262073755264,-0.3753447234630585,0.4946911334991455
0.899624944,0.004218182526528835,-0.003656504675745964,-0.9957998394966125,-1.364081185784016e-06,-1.196723133034538e-06,1.562116949571646e-06,2.041148036369123e-05,-1.990828241105191e-05,-0.004979634657502174,0.005,0.004714674316346645,-0.3751919567584991,0.4955281615257263
0.904452324,0.004121169913560152,-0.003276402596384287,-0.9961528182029724,-2.04383965751731e-07,3.145203663734719e-06,-2.285573827975895e-06,2.006887734751217e-05,-1.414936650689924e-05,-0.00498356856405735,0.005,0.00481820572167635,-0.3753028213977814,0.4953968524932861
0.909258008,0.004145735409110785,-0.003407684154808521,-0.9957618713378906,-2.036087153101107e-06,3.310071406303905e-06,2.28905349786146e-07,2.107478212565184e-05,-1.758269536367152e-05,-0.004976561293005943,0.005,0.005254431627690792,-0.3757143020629883,0.4947856962680817
0.914463758,0.00429111160337925,-0.003174261189997196,-0.9963033199310303,-2.761340510915034e-06,1.649145588089596e-06,6.411841013687081e-07,2.210403727076482e-05,-1.474702003179118e-05,-0.004984797909855843,0.005,0.004714217502623796,-0.3755127191543579,0.4949322640895844
0.919644952,0.004287892486900091,-0.003020640229806304,-0.9955728650093079,2.943989102277556e-06,-2.007652710744878e-06,1.983536321858992e-07,2.185359517170582e-05,-1.337521280220244e-05,-0.004973782226443291,0.005,0.005022854078561068,-0.3752867877483368,0.493785947561264
0.924800515,0.004139539785683155,-0.003452384611591697,-0.9962892532348633,1.800710492716462e-06,1.051938198770586e-07,9.596806194167584e-07,2.005534406634979e-05,-2.015020800172351e-05,-0.004984584636986256,0.005,0.005166963208466768,-0.3757686913013458,0.4934442043304443
0.929930985,0.004311140161007643,-0.003124723676592112,-0.9963131546974182,2.281266233694623e-06,6.373128940140305e-07,-1.600760356268438e-06,2.247528209409211e-05,-1.391461137245642e-05,-0.004982713609933853,0.005,0.005258028395473957,-0.3760971426963806,0.4934455752372742
0.935036957,0.004238697234541178,-0.003510600421577692,-0.9961128830909729,5.161570697964635e-06,-2.310022409801604e-06,-2.081884957760849e-07,2.058286372630391e-05,-2.00584254343994e-05,-0.004978995770215988,0.005,0.005300401709973812,-0.3755628764629364,0.4941185116767883
0.940118551,0.00413597421720624,-0.003023109864443541,-0.9964537620544434,-6.231559268599085e-08,4.491567779041361e-06,4.577834715746576e-07,1.990652526728809e-05,-1.215235624840716e-05,-0.004984751809388399,0.005,0.005504033528268337,-0.3758642971515656,0.4937775731086731
0.945180416,0.004180055111646652,-0.003109208773821592,-0.9960092902183533,2.195615024902509e-06,-4.210589281683497e-07,2.76880541605351e-07,2.130884968210012e-05,-1.563316072861198e-05,-0.004977264907211065,0.005,0.005274701863527298,-0.3760828971862793,0.4939502775669098
0.950218499,0.00406161043792963,-0.003292106557637453,-0.9967365860939026,-7.972148523549549e-06,3.223280145903118e-06,-2.348251939565671e-07,1.967408388736658e-05,-1.776483441062737e-05,-0.004987803753465414,0.005,0.00463912496343255,-0.3758863508701324,0.4939606785774231
0.955231249,0.004136728122830391,-0.003051534062251449,-0.9959577322006226,-6.739211357853492e-07,-2.592832743175677e-06,-1.318658974014397e-06,2.123195372405462e-05,-1.347461511613801e-05,-0.004976110532879829,0.005,0.004725452046841383,-0.3753908574581146,0.4935623705387115
0.960220397,0.0042572938837111,-0.003536120988428593,-0.9958827495574951,4.264065864845179e-06,1.362164852025671e-07,2.318681566748637e-07,2.207044235547073e-05,-2.101471181958914e-05,-0.004978134296834469,0.005,0.004873346071690321,-0.3757792711257935,0.4936263263225555
0.965185523,0.004278495442122221,-0.002904990222305059,-0.996342658996582,-1.719566284918983e-06,-2.336460283913766e-06,1.760138388817722e-06,2.160852454835549e-05,-1.094581875804579e-05,-0.004984858445823193,0.005,0.004604154266417027,-0.3755697309970856,0.4947141408920288
0.970127106,0.004045777954161167,-0.003392998827621341,-0.9957336187362671,1.64028699600749e-06,-1.243783344762051e-06,1.920689783219132e-06,1.902438452816568e-05,-1.938373679877259e-05,-0.00497449841350317,0.005,0.004287353716790676,-0.3752642869949341,0.4949695467948914
0.975044370,0.004028560593724251,-0.003229206893593073,-0.9966279864311218,9.802698741623317e-07,-2.228894800282433e-06,-2.174815136868347e-07,1.996451283048373e-05,-1.568653897265904e-05,-0.004988490603864193,0.005,0.004263685550540686,-0.3754461705684662,0.4953157603740692
0.979938328,0.004029658623039722,-0.003020036499947309,-0.9961639642715454,1.545597228869156e-06,3.569255568436347e-06,-1.343615622317884e-06,2.067844616249204e-05,-1.32099557959009e-05,-0.004978305660188198,0.005,0.004924618639051914,-0.3754139840602875,0.4951704144477844
0.984807670,0.003921050578355789,-0.00336178601719439,-0.9963814616203308,-8.024306907827849e-07,2.184220306844509e-07,2.232845417893259e-06,1.871126005426049e-05,-1.902969233924523e-05,-0.00498272618278861,0.005,0.005181704647839069,-0.3752850294113159,0.4945957064628601
0.989654243,0.003937347326427698,-0.002640520222485065,-0.9963504076004028,-2.973574055431527e-06,5.468738208946888e-07,-2.779007218123297e-06,1.986751340155024e-05,-8.550638085580431e-06,-0.004982440732419491,0.005,0.005293702706694603,-0.3753122389316559,0.4952780604362488
0.994477034,0.003844601567834616,-0.003070851089432836,-0.995858371257782,-3.522126590382868e-08,1.988461917790119e-06,-5.972736403236922e-07,1.877909016911872e-05,-1.78941754711559e-05,-0.004975330084562302,0.005,0.004812752828001976,-0.3756907284259796,0.4957380890846252
0.999362290,0.003996741492301226,-0.002898106118664145,-0.9963524341583252,-4.1725079427124e-06,-7.524689067395229e-07,-1.687363010205445e-06,2.110643436026294e-05,-1.403646274411585e-05,-0.004985176026821136,0.005,0.004877571016550064,-0.3757128119468689,0.4955976903438568
1.004561424,0.004111011512577534,-0.00278913346119225,-0.9956501126289368,9.87543444352923e-07,9.439554560231045e-07,7.461295012944902e-07,2.095612944685854e-05,-1.290836098633008e-05,-0.004974443465471268,0.005,0.004904801957309246,-0.375105232000351,0.4950555860996246
1.009736180,0.004116448573768139,-0.002830456476658583,-0.9961069226264954,-6.053189736121567e-06,2.503488076399663e-06,-2.726531647567754e-06,2.068225876428187e-05,-1.472304757044185e-05,-0.004983049817383289,0.005,0.004789563827216625,-0.3754976093769073,0.4954868853092194
1.014885068,0.00418547261506319,-0.00274985539726913,-0.9958525896072388,1.757778477440297e-06,-9.290419029639452e-07,-2.70027499027492e-06,2.126418621628545e-05,-1.321045601798687e-05,-0.004978413227945566,0.005,0.00485063623636961,-0.3750995099544525,0.4957982897758484
1.020008922,0.004191825166344643,-0.003158917417749763,-0.9956967830657959,-3.369210048731475e-07,2.649675707289134e-06,3.583868419809733e-06,2.095758827636018e-05,-1.836574119806755e-05,-0.004976046271622181,0.005,0.004746675491333008,-0.3747491538524628,0.4952338933944702
1.025108457,0.004217667039483786,-0.002912047319114208,-0.9963634014129639,2.538180979172466e-06,5.406176342148683e-07,2.707801968426793e-06,2.148416569980327e-05,-1.341313145530876e-05,-0.004986982326954603,0.005,0.004308489151299,-0.3750533163547516,0.4946907162666321
1.030184150,0.004081716760993004,-0.002786493161693215,-0.9957223534584045,-2.301134145454853e-06,2.220499936811393e-06,-3.149868348373275e-07,1.950082150870003e-05,-1.265442006115336e-05,-0.004974428564310074,0.005,0.00436369189992547,-0.3754608631134033,0.4942753911018372
1.035235047,0.003918641246855259,-0.002890263451263309,-0.9962471723556519,-2.692317593755433e-06,-1.686907921794045e-06,1.902398025777075e-06,1.837981290009338e-05,-1.561142926220782e-05,-0.004984006751328707,0.005,0.004443588200956583,-0.3748877048492432,0.4955389201641083
1.040261626,0.003876180853694677,-0.002873117569833994,-0.9958885908126831,2.811227695076468e-08,-3.775476898226771e-06,-5.025121367907559e-07,1.915157372422982e-05,-1.395772233081516e-05,-0.004978155251592398,0.005,0.004079334437847137,-0.3749397397041321,0.494298905134201
1.045263052,0.004241385962814093,-0.003241045400500298,-0.9961268305778503,-3.453881845416618e-06,3.561608821200934e-07,-3.55616066372022e-06,2.360295547987334e-05,-1.888283441076055e-05,-0.004981163423508406,0.005,0.004534050356596708,-0.3754431009292603,0.4947356879711151
1.050240993,0.004152048844844103,-0.002801416208967566,-0.9964979887008667,4.994245500711259e-06,3.744229957192147e-07,5.380180709835258e-07,2.010945172514766e-05,-1.107024399971124e-05,-0.004985715262591839,0.005,0.004479183815419674,-0.375218003988266,0.4942739605903625
1.055194616,0.004296004306524992,-0.003316062269732356,-0.9956059455871582,-6.524045943478995e-07,3.431114691920811e-06,1.897998345157248e-06,2.23818606173154e-05,-1.965513729373924e-05,-0.004972286988049746,0.005,0.004654391203075647,-0.3749530017375946,0.4949521720409393
1.060130596,0.004306781105697155,-0.003108887001872063,-0.9963387846946716,-2.747685812209966e-06,2.005923761316808e-06,-1.94198236158627e-07,2.170614061469678e-05,-1.497732773714233e-05,-0.004986447747796774,0.005,0.004449966363608837,-0.3755092620849609,0.4936915636062622
1.065043211,0.004195163957774639,-0.003315789625048637,-0.9957733154296875,4.758891009259969e-06,2.676889607755584e-06,-2.818000268689502e-07,2.013315861404408e-05,-1.765413253451698e-05,-0.004975512623786926,0.005,0.004364308435469866,-0.375394195318222,0.4941562712192535
1.069932580,0.004063036292791367,-0.003538479097187519,-0.9962216019630432,-5.19698505740962e-06,1.336404352514364e-06,4.070738668815466e-06,1.882308424683288e-05,-1.960669396794401e-05,-0.004983047023415565,0.005,0.004582752473652363,-0.3750991523265839,0.4940083622932434
1.074798822,0.003954986110329628,-0.003150603035464883,-0.9959602952003479,-9.752594678502646e-07,-1.770058133843122e-06,3.218769734303351e-06,1.954455910890829e-05,-1.304040688410169e-05,-0.004979188553988934,0.005,0.005076299887150526,-0.3753038048744202,0.4945313930511475
1.079641581,0.003942450042814016,-0.003454740857705474,-0.9957314729690552,2.555661922087893e-06,4.804042418982135e-06,1.680263494563405e-06,1.93132073036395e-05,-1.896386311273091e-05,-0.004976310767233372,0.005,0.004531070590019226,-0.3751785457134247,0.4946607053279877
1.084461570,0.004047795198857784,-0.00288111250847578,-0.996528685092926,-2.529837274778401e-06,-2.9325981358852e-06,-2.209033709732466e-06,2.100783240166493e-05,-1.120117303798907e-05,-0.004988282453268766,0.005,0.004961230326443911,-0.3749495446681976,0.4953310489654541
1.089341640,0.00383562664501369,-0.002776732668280602,-0.9960306882858276,1.095136781259498e-06,-1.527331164652423e-06,-2.801599521262688e-06,1.822983176680282e-05,-1.271578457817668e-05,-0.004976804833859205,0.005,0.005168483592569828,-0.3752789497375488,0.4947737157344818
1.094532371,0.004017594270408154,-0.002891103969886899,-0.9965115189552307,-3.468742306722561e-06,-4.092398285138188e-06,-2.435735495964764e-06,2.1073223251733e-05,-1.619857903278898e-05,-0.004985451698303223,0.005,0.004727407824248075,-0.3754690289497375,0.4956711232662201
1.099698424,0.003994870465248823,-0.002964018378406763,-0.9957759976387024,2.718809355428675e-06,-2.280965873069363e-06,-2.833841108440538e-06,2.015107020270079e-05,-1.455540859751636e-05,-0.004975035786628723,0.005,0.005053658504039049,-0.375331312417984,0.4948635697364807
1.104839921,0.004102071281522512,-0.003204459091648459,-0.9961922764778137,2.560553184594028e-06,1.492199572794561e-07,1.584262804499303e-06,2.149730607925449e-05,-1.736090234771837e-05,-0.004982952494174242,0.005,0.004932915326207876,-0.3753959834575653,0.4957168698310852
1.109956145,0.00418372917920351,-0.003320310963317752,-0.9964516162872314,-7.078009730321355e-06,4.024779627798125e-06,-1.594069090060657e-06,2.181724448746536e-05,-1.734031684463844e-05,-0.004984344355762005,0.005,0.004750391002744436,-0.3760530352592468,0.4945549368858337
1.115047932,0.003921397496014833,-0.003628762904554605,-0.9958421587944031,1.027994017022138e-06,2.397599700998398e-06,8.045673780543439e-07,1.786199572961777e-05,-1.982753565243911e-05,-0.004975024610757828,0.005,0.004399852361530066,-0.3761296272277832,0.4962476789951324
1.120119333,0.0039020711556077,-0.003067373996600509,-0.9963338375091553,-9.873175258690026e-06,7.212523769339896e-07,3.651861788966926e-06,1.927109769894741e-05,-1.27124621940311e-05,-0.004984756466001272,0.005,0.004577763844281435,-0.3754035830497742,0.4949927926063538
1.125166535,0.004122715443372726,-0.002993478206917644,-0.9956315159797668,3.904233835783089e-06,1.270058533009433e-06,-1.551705395286263e-06,2.189314545830712e-05,-1.40717320391559e-05,-0.004974217619746923,0.005,0.004261257592588663,-0.3758091032505035,0.4950150549411774
1.130190611,0.003973616287112236,-0.003092230996116996,-0.9961877465248108,7.504905283894914e-07,-1.802616338864027e-06,1.683058485468791e-06,1.919269561767578e-05,-1.631537088542245e-05,-0.004983378574252129,0.005,0.004387893248349428,-0.3758889138698578,0.4947535395622253
1.135190010,0.00412800582125783,-0.002794049913063645,-0.9961251020431519,2.059877260762732e-06,-3.976249445258873e-06,5.504860496330366e-07,2.155067340936512e-05,-1.16579058158095e-05,-0.004980770871043205,0.005,0.00442926911637187,-0.3758157193660736,0.4949910342693329
1.140165091,0.004059589002281427,-0.003420807188376784,-0.9958192706108093,8.215013167500729e-07,-1.338320657851e-06,1.844081793933583e-06,1.999377309402917e-05,-2.078131001326256e-05,-0.00497677456587553,0.005,0.00500281248241663,-0.3758146166801453,0.4941792190074921
1.145116448,0.004264811053872108,-0.002805689116939902,-0.996385931968689,2.328962182218675e-06,2.364035026403144e-06,-3.317870778118959e-06,2.270544064231217e-05,-1.058306497725425e-05,-0.004985878244042397,0.005,0.00501609593629837,-0.3758681416511536,0.4933568239212036
1.150044441,0.004095114767551422,-0.002938294317573309,-0.9958822727203369,6.190790031723736e-07,-4.484859914555273e-07,1.006472189146734e-06,1.91104736586567e-05,-1.487563349655829e-05,-0.004976293072104454,0.005,0.004622277338057756,-0.375327080488205,0.4935666620731354
1.154948592,0.004134080372750759,-0.002910153940320015,-0.9964457750320435,-7.861431186029222e-06,4.139896248034347e-07,2.852267698472133e-06,2.123530066455714e-05,-1.506543594587129e-05,-0.004985472187399864,0.005,0.005287029314786196,-0.3753476440906525,0.4933496713638306
1.159828782,0.004086407367140055,-0.002634782809764147,-0.9956449270248413,2.346309656786616e-06,-3.013175501109799e-06,5.049786295785452e-07,2.020253668888472e-05,-1.099119435821194e-05,-0.004974239505827427,0.005,0.004883168265223503,-0.3756024837493896,0.4942956864833832
1.164685845,0.003881641896441579,-0.002932598115876317,-0.9957854151725769,1.969958248082548e-06,-1.919710030051647e-06,1.248154148925096e-06,1.806979162211064e-05,-1.677287036727648e-05,-0.004978646989911795,0.005,0.004544805735349655,-0.3753949403762817,0.4945428669452667
1.169520140,0.003893528133630753,-0.002628023270517588,-0.9962437748908997,1.983890570045332e-06,3.243861556256888e-06,-1.568457719258731e-06,2.004260932153556e-05,-1.146515478467336e-05,-0.004985125735402107,0.005,0.004648937378078699,-0.3748906552791595,0.494318038225174
1.174331665,0.003669613972306252,-0.002926662098616362,-0.9958871006965637,2.55657369052642e-06,-9.402431828675617e-07,1.836753654060885e-06,1.672317739576101e-05,-1.657745997363236e-05,-0.00497715175151825,0.005,0.004811060149222612,-0.3753233253955841,0.4940107762813568
1.179456711,0.004018483683466911,-0.002861769869923592,-0.9964942336082458,-1.744398332448327e-07,-1.250620243808953e-06,2.933116434178373e-07,2.213991501776036e-05,-1.429119402018841e-05,-0.004986188374459743,0.005,0.004423699807375669,-0.375479519367218,0.4948583245277405
1.184640765,0.003929683472961187,-0.002748923376202583,-0.9959220290184021,-1.859085500655056e-06,-3.429999651416438e-06,1.714292011456564e-06,1.947905002452899e-05,-1.296039408771321e-05,-0.00497698737308383,0.005,0.004730682354420424,-0.3753023445606232,0.4943034052848816
1.189799666,0.004066847264766693,-0.003048603422939777,-0.9965622425079346,-2.759034941846039e-06,-3.978881863986317e-07,-8.639236739327316e-07,2.09222016565036e-05,-1.722878187138122e-05,-0.004985829349607229,0.005,0.00483412854373455,-0.3755427896976471,0.494115799665451
1.194933772,0.004044598899781704,-0.002865009475499392,-0.9962058663368225,-1.216598093378707e-06,-3.473697461231495e-06,1.361971499136416e-06,2.016315011132974e-05,-1.30188200273551e-05,-0.00497980322688818,0.005,0.005173038225620985,-0.3759971559047699,0.4939550459384918
1.200043559,0.004011362325400114,-0.00339545076712966,-0.9960644245147705,6.490037662842951e-07,-4.972626356902765e-06,-2.900141907957732e-06,1.999914638872724e-05,-2.035053148574661e-05,-0.004978475160896778,0.005,0.005183895118534565,-0.3753624558448792,0.494160383939743
1.205127954,0.004521588794887066,-0.003002233803272247,-0.9963458776473999,-5.284854069032008e-06,-1.939974708875525e-06,-6.287545488703472e-07,2.553241574787535e-05,-1.22942710731877e-05,-0.004983660764992237,0.005,0.004789926111698151,-0.3753469586372375,0.4946935772895813
1.210188746,0.004277570638805628,-0.003104070434346795,-0.9957409501075745,5.576635430770693e-06,5.520665581570938e-06,-2.973960420149524e-07,2.023095657932572e-05,-1.567450999573339e-05,-0.004975403193384409,0.005,0.00480606546625495,-0.3752279877662659,0.4943084120750427
1.215228677,0.004037086851894855,-0.003101232927292585,-0.9963166117668152,-4.720115157397231e-06,1.456577479075349e-06,5.555982056648645e-07,1.837835952755995e-05,-1.542968857393134e-05,-0.004984773695468903,0.005,0.00499438913539052,-0.3748270571231842,0.4944884777069092
1.220243692,0.003959774039685726,-0.003026242135092616,-0.9959011673927307,-2.635050122989924e-06,-6.193744184201933e-07,3.170895297444076e-06,1.906813849927858e-05,-1.466425601392984e-05,-0.004977501463145018,0.005,0.004992477130144835,-0.3748714327812195,0.4946713447570801
1.225234985,0.003972378559410572,-0.003251620102673769,-0.9958038926124573,-9.2028955123169e-07,-7.06585183252173e-07,1.399535790369555e-06,2.005154783546459e-05,-1.756439451128244e-05,-0.004977368284016848,0.005,0.004821885377168655,-0.3749693036079407,0.4953634142875671
1.230202675,0.003732570679858327,-0.002772045088931918,-0.9957908987998962,-1.949967554537579e-06,3.000613332915236e-06,3.178896008648735e-07,1.70613348018378e-05,-1.103012618841603e-05,-0.004979248624294996,0.005,0.004981334321200848,-0.3750531673431396,0.4954477250576019
1.235145450,0.003630476305261254,-0.002926241140812635,-0.9956566691398621,-6.380868171618204e-07,1.554885329824174e-06,1.806045816010737e-06,1.760312261467334e-05,-1.521234753454337e-05,-0.004977344069629908,0.005,0.004582335706800222,-0.3746595680713654,0.4958948194980621
1.240064740,0.00400942750275135,-0.002949274843558669,-0.9962512254714966,-2.593769750092179e-07,2.891391659431974e-06,-1.849696673161816e-06,2.2128238924779e-05,-1.534941839054227e-05,-0.004984491504728794,0.005,0.004795112647116184,-0.3749511241912842,0.494903028011322
1.244960785,0.004037608858197927,-0.002865628572180867,-0.9958487749099731,-8.89841032858385e-07,-1.118577984016156e-06,1.265972969122231e-06,2.01779039343819e-05,-1.338500260317232e-05,-0.004977423697710037,0.005,0.004486743360757828,-0.3749538660049438,0.4949639141559601
1.249832392,0.004094359930604696,-0.002986271632835269,-0.9960158467292786,-1.239112521034258e-06,4.469321083888644e-06,-1.53998598761973e-06,2.088875953631941e-05,-1.584409619681537e-05,-0.004980428144335747,0.005,0.004918549675494432,-0.3746310174465179,0.4954514503479004
1.254681110,0.004165902268141508,-0.002865275600925088,-0.9959381818771362,-5.810796665173257e-06,-7.06658283888828e-06,-8.274726610579819e-07,2.139624848496169e-05,-1.344037718808977e-05,-0.004979565739631653,0.005,0.005202043801546097,-0.3748749792575836,0.4944383502006531
1.259505630,0.004176766145974398,-0.003253000555559993,-0.9953979849815369,8.370281648240052e-06,4.300305135984672e-06,-9.084487828658894e-07,2.084595689666457e-05,-1.885963320091832e-05,-0.004973316565155983,0.005,0.004855618812143803,-0.3753218650817871,0.4945279955863953
1.264308214,0.004147287458181381,-0.003138162894174457,-0.9960480332374573,-3.586297907531844e-06,-2.013950961554656e-06,-2.739561296039028e-06,2.072694769594818e-05,-1.531108864583075e-05,-0.004984302911907434,0.005,0.00469764182344079,-0.3751973211765289,0.4946659505367279
1.269510150,0.004124616272747517,-0.003121792105957866,-0.9957276582717896,3.199141474397038e-06,1.431342752766795e-06,-1.259395162378496e-06,2.046670488198288e-05,-1.494070238550194e-05,-0.004977261181920767,0.005,0.004633518401533365,-0.3750054240226746,0.4944784939289093
1.274687767,0.004131784196943045,-0.003036427777260542,-0.9962866902351379,-3.517590585033759e-06,-2.083448634948581e-06,2.576990254965494e-06,2.035629404417705e-05,-1.505696218373487e-05,-0.004984741099178791,0.005,0.004937275312840939,-0.3751260638237,0.4931989014148712
1.279840231,0.004205078352242708,-0.002883312990888953,-0.9961172342300415,-1.047825207933784e-06,1.244743089046096e-06,-2.53941379924072e-06,2.136463263013866e-05,-1.322190018981928e-05,-0.004979843273758888,0.005,0.005071552935987711,-0.3754563629627228,0.4944356679916382
1.284967899,0.004394969437271357,-0.003351706778630614,-0.9960094094276428,3.356117076691589e-06,-9.00078759968892e-07,3.763155518754502e-06,2.282238165207673e-05,-1.962807073141448e-05,-0.004978680051863194,0.005,0.005292063113301992,-0.3750604093074799,0.4942815601825714
1.290070772,0.00429133977741003,-0.002980759367346764,-0.9963136911392212,4.914708711112326e-07,-3.880320775806467e-07,2.504359372323961e-06,2.092635804729071e-05,-1.288418752665166e-05,-0.004983891267329454,0.005,0.004538634791970253,-0.3750271201133728,0.4951373040676117
1.295149326,0.004026359412819147,-0.003043680917471647,-0.9955881834030151,-6.804157237638719e-07,1.6080443856481e-06,-1.042624148794857e-06,1.871712629508693e-05,-1.554399750602897e-05,-0.00497325137257576,0.005,0.004616204183548689,-0.3753167986869812,0.4941221177577972
1.300204039,0.004117556847631931,-0.003068293211981654,-0.996211051940918,-5.805813543702243e-06,1.168573703580478e-06,-1.403521196152724e-06,2.09594436455518e-05,-1.602178599569015e-05,-0.004984451457858086,0.005,0.005303437821567059,-0.375228613615036,0.4945459067821503
1.305235744,0.004139178432524204,-0.002724822610616684,-0.9958151578903198,4.839926077693235e-06,-1.848317310759739e-06,-2.462698148519848e-06,2.10845628316747e-05,-1.101727593777468e-05,-0.00497676245868206,0.005,0.005137796048074961,-0.3752144873142242,0.4938929975032806
1.310243368,0.004149686545133591,-0.002925025299191475,-0.9958398938179016,-7.795048873049382e-07,5.510312348633306e-06,1.765914248608169e-06,2.06227687158389e-05,-1.621803312445991e-05,-0.004979221615940332,0.005,0.005227271467447281,-0.3755578100681305,0.4941317141056061
1.315227628,0.003947204444557428,-0.002480638679116964,-0.9959415793418884,-3.160736014251597e-06,4.405065283208387e-06,-4.243501280143391e-06,1.893216176540591e-05,-9.681776646175422e-06,-0.004980942234396935,0.005,0.004720873665064573,-0.3756045997142792,0.4933209121227264
1.320186853,0.003882805816829205,-0.003088189056143165,-0.9956231117248535,-7.497637284359371e-07,3.842095566142234e-07,-2.463366968186165e-07,1.916228029585909e-05,-1.894259185064584e-05,-0.004975450225174427,0.005,0.004509628750383854,-0.3752106130123138,0.4945579171180725
1.325122595,0.004043443128466606,-0.003239699872210622,-0.996212363243103,1.712661742203636e-06,6.049753665138269e-06,-1.448048919883149e-06,2.124176717188675e-05,-1.754820732458029e-05,-0.004984821192920208,0.005,0.004632559604942799,-0.3757564723491669,0.494184672832489
1.330034733,0.004079408943653107,-0.002924936125054955,-0.9955261945724487,8.24808103061514e-06,-2.576471388238133e-06,5.814606041099069e-08,2.050012335530482e-05,-1.245606381417019e-05,-0.004973733332008123,0.005,0.004778565838932991,-0.3753052949905396,0.4953522682189941
1.334922791,0.003965498879551888,-0.003193962387740612,-0.995898962020874,7.370272214757279e-07,-7.82208019245445e-07,4.005500159109943e-06,1.92149163922295e-05,-1.787801011232659e-05,-0.004981389734894037,0.005,0.005192679818719625,-0.375011146068573,0.4946125149726868
1.339787483,0.003862792858853936,-0.00285044894553721,-0.9959324598312378,1.221335878653917e-06,-1.792415105228429e-07,1.010661435429938e-06,1.857924144132994e-05,-1.185792734759161e-05,-0.004980439320206642,0.005,0.005458241328597069,-0.3754453659057617,0.495268315076828
1.344627976,0.004044717643409967,-0.003541253041476011,-0.9960000514984131,-8.069320074355346e-07,-1.053069013323693e-06,-1.518673684586247e-06,2.090246925945394e-05,-2.231383041362278e-05,-0.004979816265404224,0.005,0.005033132620155811,-0.3757276833057404,0.4944388866424561
1.349445581,0.004370131529867649,-0.003149819560348988,-0.9963955283164978,-1.189592957473451e-08,-1.331285830019624e-06,-9.313324653703603e-07,2.388287975918502e-05,-1.390725446981378e-05,-0.004984743893146515,0.005,0.004474857822060585,-0.3751952350139618,0.4964167177677155
1.354324698,0.004308188799768686,-0.003078047418966889,-0.9959112405776978,4.402275521897536e-07,6.663519229732628e-07,2.240847379653133e-06,2.137432966264896e-05,-1.424943729944061e-05,-0.004976866766810417,0.005,0.004815423861145973,-0.3754304647445679,0.4951233267784119
1.359520197,0.004313309211283922,-0.003121362766250968,-0.9962472319602966,-6.229188329598401e-06,-4.619752189682913e-07,7.397573540401936e-07,2.15987820411101e-05,-1.618539317860268e-05,-0.004982993938028812,0.005,0.004532916937023401,-0.3758301734924316,0.4949824810028076
1.364691257,0.004221996758133173,-0.002970351837575436,-0.9962807297706604,3.229017920602928e-06,1.082651920114586e-06,1.738696028041886e-06,2.059215330518782e-05,-1.353498191747349e-05,-0.004982008598744869,0.005,0.004528634715825319,-0.3757487237453461,0.4943076074123383
1.369837046,0.004080458078533411,-0.003367033787071705,-0.9962541460990906,-9.696316283225315e-07,-6.806134251746698e-07,-5.114459327160148e-06,1.979317676159553e-05,-1.965036426554434e-05,-0.004980980884283781,0.005,0.00515933521091938,-0.3754801452159882,0.4941469132900238
1.374958277,0.004051730036735535,-0.002870372962206602,-0.9963864684104919,3.777915367209062e-07,4.520953496012226e-07,-2.043349013547413e-06,1.989984593819827e-05,-1.131188400904648e-05,-0.004983141086995602,0.005,0.005129499826580286,-0.3759267032146454,0.4936482608318329
1.380055308,0.004107818938791752,-0.003294795053079724,-0.9957947134971619,-5.680912522620929e-07,1.02953379155224e-06,-3.330328297579399e-07,2.086685162794311e-05,-1.869169318524655e-05,-0.004975523333996534,0.005,0.004779505543410778,-0.3756129741668701,0.4943046569824219
1.385131717,0.004117094445973635,-0.002858000807464123,-0.9959362149238586,9.057894772013242e-07,-1.516240644150457e-07,-1.21292646326765e-06,2.111214416800067e-05,-1.192994841403561e-05,-0.004980517085641623,0.005,0.005341696552932262,-0.3753451108932495,0.4940730035305023
1.390183210,0.003904199227690697,-0.002700438955798745,-0.9959129691123962,-1.462177124267328e-06,-2.074375515803695e-06,-1.86509601007856e-06,1.825713843572885e-05,-1.240889196196804e-05,-0.004979400895535946,0.005,0.005039151757955551,-0.3752849996089935,0.4942790865898132
1.395210505,0.003835137467831373,-0.003045339602977037,-0.996188223361969,-2.399897084615077e-06,2.919392045441782e-06,-4.435126356838737e-06,1.876220812846441e-05,-1.733759017952252e-05,-0.004982790444046259,0.005,0.005085001699626446,-0.3756865859031677,0.4941987991333008
1.400213957,0.003918278962373734,-0.002443995792418718,-0.9959200024604797,-2.707781959543354e-06,-2.559199629104114e-06,-1.348629893982434e-06,1.999631786020473e-05,-8.554849955544341e-06,-0.004977958276867867,0.005,0.005013143178075552,-0.3754505813121796,0.4949815273284912
1.405192971,0.003952392376959324,-0.003058977657929063,-0.9955715537071228,2.9079615160299e-06,4.177028642970981e-07,-8.886178193279193e-07,2.01796465262305e-05,-1.859856274677441e-05,-0.004975833464413881,0.005,0.004456973168998957,-0.3754394054412842,0.4943040609359741
1.410148621,0.004038084764033556,-0.002922048093751073,-0.9957866072654724,-3.942384410038358e-07,1.72294403455453e-06,-2.026663992182876e-07,2.079814294120297e-05,-1.435484500689199e-05,-0.004980468191206455,0.005,0.004797077272087336,-0.3757278323173523,0.4938351213932037
1.415080190,0.004147673957049847,-0.002868797397240996,-0.9958736896514893,5.85271482123062e-06,1.82458177278022e-06,3.258841729802953e-08,2.15129603020614e-05,-1.381865240546176e-05,-0.004979898687452078,0.005,0.00451032305136323,-0.3755024969577789,0.4939376413822174
1.419988275,0.004140439443290234,-0.003029303858056664,-0.9964601397514343,-1.339572463621153e-06,1.532550868432736e-06,-1.220395461132284e-06,2.08383753488306e-05,-1.625115328351967e-05,-0.004986015148460865,0.005,0.005030212923884392,-0.3748658299446106,0.493454247713089
1.424871922,0.004420234356075525,-0.003072273684665561,-0.9962865710258484,4.28512976213824e-06,1.521936155768344e-06,-3.122534280919353e-06,2.397487332927994e-05,-1.551372042740695e-05,-0.004980625119060278,0.005,0.005971326027065516,-0.375249832868576,0.4928921163082123
1.429732323,0.004220945294946432,-0.003163417801260948,-0.996010959148407,-2.565571094237384e-06,7.065564773256483e-07,-2.850850080449163e-07,1.998316838580649e-05,-1.668285767664202e-05,-0.004978577606379986,0.005,0.00564402062445879,-0.3755182921886444,0.4939669668674469
1.434569478,0.004100674763321877,-0.00297757494263351,-0.9961583018302917,-2.212998879258521e-06,-2.218798272224376e-06,-1.571129701005702e-06,1.975174745894037e-05,-1.37633187478059e-05,-0.004982028622180223,0.005,0.004977719858288765,-0.3751322627067566,0.4946489036083221
1.439384103,0.003737062914296985,-0.00298691913485527,-0.9955354332923889,4.092309609404765e-06,-1.044953023665585e-06,-1.073200763812565e-07,1.628750942472834e-05,-1.50601099448977e-05,-0.004973998293280602,0.005,0.004918987397104502,-0.375114381313324,0.4954881966114044
1.444343567,0.004073583986610174,-0.002972857328131795,-0.9959834218025208,1.951235191199885e-07,-2.494500449756742e-06,-8.642671218694886e-07,2.237745320599061e-05,-1.509659705334343e-05,-0.004982687067240477,0.005,0.004793005529791117,-0.3753183484077454,0.4953265786170959
1.449532151,0.004249677527695894,-0.002839298918843269,-0.9957691431045532,1.718655880722508e-06,-1.707309024823189e-06,-7.410542366415029e-07,2.204539487138391e-05,-1.341011375188828e-05,-0.004977717529982328,0.005,0.004117085132747889,-0.3750709891319275,0.4969392418861389
1.454695225,0.004324517678469419,-0.003081826493144035,-0.9957559108734131,-2.801000391627895e-06,-1.395467620568525e-06,-5.875119200027257e-07,2.207502257078886e-05,-1.696008075668942e-05,-0.004978407174348831,0.005,0.005241775885224342,-0.3748891651630402,0.4948793351650238
1.459833145,0.003912064712494612,-0.002838832326233387,-0.9958993792533875,2.567461251601344e-06,1.940360107255401e-06,2.322194859516458e-06,1.733620229060762e-05,-1.316057023359463e-05,-0.004980642814189196,0.005,0.004659331869333982,-0.3752353489398956,0.4947673082351685
1.464946747,0.004221351351588964,-0.002731952117756009,-0.9958546757698059,-5.00978813988695e-08,-3.089253596044728e-06,4.579822416417301e-06,2.273548852826934e-05,-1.276446710107848e-05,-0.004978743847459555,0.005,0.004835236351937056,-0.3754191696643829,0.4949756860733032
1.470035672,0.004360913299024105,-0.002669444540515542,-0.996160089969635,-2.908658188971458e-06,6.794837190682301e-06,-1.012521579468739e-06,2.24916420847876e-05,-1.332781721430365e-05,-0.004983027931302786,0.005,0.005006335210055113,-0.3749637305736542,0.4959683418273926
1.475104213,0.004442575387656689,-0.002924752421677113,-0.9960014224052429,4.173007710051024e-06,8.689845572007471e-07,-2.229839310530224e-06,2.29935012612259e-05,-1.519543911854271e-05,-0.004979009740054607,0.005,0.005506454966962337,-0.375369131565094,0.4948308765888214
1.480148196,0.004131674766540527,-0.003532997565343976,-0.9962885975837708,-2.267800255140173e-06,2.127898142134654e-06,2.519444024073891e-06,1.818476448534057e-05,-2.216073698946275e-05,-0.004982990212738514,0.005,0.005133083555847406,-0.3756388425827026,0.4953487813472748
1.485167623,0.003978264518082142,-0.003388152457773685,-0.9961833357810974,2.053207708740956e-06,3.000778860950959e-06,1.520573960078764e-06,1.908492231450509e-05,-1.55872548930347e-05,-0.004980762489140034,0.005,0.004893748089671135,-0.3754547536373138,0.4948215186595917
1.490162969,0.004097952041774988,-0.003548193955793977,-0.9961596727371216,-1.388173131999793e-06,-5.188814498069405e-07,1.350218212792242e-06,2.119153032253962e-05,-1.857912866398692e-05,-0.004980274941772223,0.005,0.005069971550256014,-0.3753832280635834,0.4947394728660583
1.495134473,0.004086930770426989,-0.003221966791898012,-0.995710551738739,-3.066894578296342e-06,-2.064165528281592e-06,2.145515964002698e-06,2.030829273280688e-05,-1.441462518414482e-05,-0.004976313561201096,0.005,0.005134806036949158,-0.3758592903614044,0.4945574104785919
1.500082135,0.004015258979052305,-0.003002299228683114,-0.9956990480422974,2.973394202854251e-06,-4.565839617498568e-08,-1.356290113108116e-06,1.964282637345605e-05,-1.35171867441386e-05,-0.004978238139301538,0.005,0.004867331124842167,-0.3756043910980225,0.4942975342273712
1.505006552,0.004057125188410282,-0.002956000855192542,-0.9960576891899109,1.71310364294186e-06,2.833264034052263e-06,-6.719049565617752e-07,2.068498361040838e-05,-1.481180333939847e-05,-0.004982098005712032,0.005,0.004914449993520975,-0.375419557094574,0.4941436350345612
1.509906650,0.004106778651475906,-0.002951642265543342,-0.9960175752639771,8.160716333804885e-07,-5.328591214492917e-06,-1.289945203097886e-06,2.098590448440518e-05,-1.456406607758254e-05,-0.004980592988431454,0.005,0.004701951052993536,-0.3757798075675964,0.4939047694206238
1.514783502,0.003877377603203058,-0.003200040897354484,-0.9960627555847168,9.83591121439531e-07,3.337537464176421e-06,2.661904318301822e-06,1.766258901625406e-05,-1.763749787642155e-05,-0.004980258177965879,0.005,0.004701710771769285,-0.3757840692996979,0.4947924017906189
1.519636273,0.00401942478492856,-0.002700186334550381,-0.9958754777908325,-3.021107886524987e-06,2.00177214537689e-06,5.167894414626062e-07,2.091490932798479e-05,-1.079816865967587e-05,-0.00497867539525032,0.005,0.005062981508672237,-0.3752640783786774,0.4943641424179077
1.524466157,0.003852743888273835,-0.002881682245060802,-0.9956107139587402,3.654977263067849e-06,4.093200459465152e-06,2.10183111448714e-06,1.823618913476821e-05,-1.547344982100185e-05,-0.004976098425686359,0.005,0.00454413378611207,-0.375403106212616,0.4945257902145386
1.529273868,0.004005728755146265,-0.002672126283869147,-0.9957578778266907,-6.088486657063186e-07,1.289672923121543e-06,6.815464530518511e-07,2.080005288007669e-05,-1.229422377946321e-05,-0.004979994148015976,0.005,0.005122770089656115,-0.37508624792099,0.4938696324825287
1.534480095,0.004012416582554579,-0.002615621546283364,-0.995549201965332,-8.041458272600721e-07,2.670008143468294e-06,1.243035967490869e-06,2.036228215729352e-05,-1.274685200769454e-05,-0.004976732656359673,0.005,0.004730500746518373,-0.3748897314071655,0.4937826693058014
1.539662838,0.004099172074347734,-0.002929757814854383,-0.9959040284156799,-2.701224502743571e-06,-1.488673206040403e-06,9.840796622029302e-08,2.082206992781721e-05,-1.650823105592281e-05,-0.004981548059731722,0.005,0.005123596172779799,-0.3752751350402832,0.4926338195800781
1.544819474,0.00429923739284277,-0.002863204339519143,-0.9959524869918823,-3.696295323152299e-07,-1.740995458021644e-06,-1.323567971667217e-06,2.262688394694123e-05,-1.398085260007065e-05,-0.004980054683983326,0.005,0.004734327085316181,-0.3755298554897308,0.4934413731098175
1.549951196,0.004327156580984592,-0.003202640917152166,-0.9959631562232971,-1.358347816449168e-07,-1.562964087042928e-07,2.636238150444115e-06,2.151471562683582e-05,-1.813720518839546e-05,-0.004979669116437435,0.005,0.005051258485764265,-0.3753414750099182,0.4938817322254181
1.555058479,0.00401778519153595,-0.002718535484746099,-0.996146559715271,-8.29231612442527e-06,3.25844166582101e-06,1.453842628507118e-06,1.819634780986235e-05,-1.102653368434403e-05,-0.004982218146324158,0.005,0.004394074901938438,-0.3752469718456268,0.4941939413547516
1.560141325,0.004055003635585308,-0.003176029538735747,-0.9961425065994263,-1.410010440849874e-06,1.765857433611018e-07,-2.055162866554383e-07,2.074030999210663e-05,-1.847195744630881e-05,-0.004980470053851604,0.005,0.004179960582405329,-0.3758156895637512,0.4941841959953308
1.565204740,0.004239341244101524,-0.003104842267930508,-0.996178150177002,1.06675167899084e-06,1.771405067074738e-07,-1.472535927860008e-06,2.237476473965216e-05,-1.5529032680206e-05,-0.004981365986168385,0.005,0.004889728035777807,-0.3751927614212036,0.4950753152370453
1.570243597,0.003836762625724077,-0.003075600834563375,-0.9958054423332214,-4.133672973694047e-06,3.227132310712477e-06,1.485003963352938e-06,1.704924216028303e-05,-1.477903788327239e-05,-0.004977229982614517,0.005,0.005093928892165422,-0.3752041161060333,0.4951217472553253
1.575257301,0.00395096791908145,-0.003624586621299386,-0.9957368969917297,-1.000666998152155e-06,-1.925356400533929e-06,2.1825680960319e-06,2.013522680499591e-05,-2.169996514567174e-05,-0.004977885168045759,0.005,0.004698918666690588,-0.3754120171070099,0.4954605102539062
1.580247760,0.004106514621526003,-0.002961282385513186,-0.995901346206665,1.945595386132482e-06,4.564206790291792e-07,-7.094516085714986e-09,2.122544719895814e-05,-1.091231570171658e-05,-0.004980173893272877,0.005,0.004749048966914415,-0.3752793371677399,0.4952008426189423
1.585212946,0.003961545415222645,-0.003339930204674602,-0.9959715604782104,1.031446004162717e-06,-5.327202643456985e-07,3.545764002410579e-07,1.908908416226041e-05,-1.877165414043702e-05,-0.004980075173079967,0.005,0.00508407736197114,-0.3746239840984344,0.4950426518917084
1.590155244,0.004109832458198071,-0.003240401390939951,-0.9958024621009827,-6.392642717401031e-07,1.190053126265411e-06,4.494328550208593e-06,2.157697599614039e-05,-1.581470860401168e-05,-0.004977979231625795,0.005,0.004888566210865974,-0.3751230239868164,0.4942934811115265
1.595073819,0.004345071502029896,-0.003068760735914111,-0.9957082271575928,4.909319955004321e-07,1.447443537472282e-06,2.228792482128483e-06,2.306286478415132e-05,-1.41485261337948e-05,-0.004977911245077848,0.005,0.004527636338025331,-0.3750893473625183,0.4951777160167694
1.599968553,0.004414964467287064,-0.003274289192631841,-0.9958396553993225,4.224179519951576e-06,1.943007873705938e-06,-9.045327260537306e-07,2.227330696769059e-05,-1.791265458450653e-05,-0.004980168305337429,0.005,0.00497374264523387,-0.375291496515274,0.4948076605796814
1.604839206,0.004041401203721762,-0.002956240670755506,-0.99582839012146,1.749200890799329e-07,5.009304004488513e-06,4.83738904222264e-06,1.787523979146499e-05,-1.286379483644851e-05,-0.004978857934474945,0.005,0.004840273410081863,-0.3752484023571014,0.4953756928443909
1.609686732,0.004098320379853249,-0.003166566602885723,-0.9958309531211853,-2.076621740343398e-06,-1.360492888125009e-06,1.372084739159618e-07,2.117957774316892e-05,-1.713095480226912e-05,-0.004979358054697514,0.005,0.00421429704874754,-0.3756216466426849,0.4946150481700897
1.614510536,0.004097262863069773,-0.002936559729278088,-0.9962711334228516,-5.15500732944929e-06,2.478594524291111e-06,1.828355152611039e-06,2.024044260906521e-05,-1.355942004011013e-05,-0.004983759950846434,0.005,0.004242662340402603,-0.3753971457481384,0.4955730140209198
1.619396806,0.004130059387534857,-0.003267683088779449,-0.9961898922920227,2.689578195713693e-06,-1.829231223382521e-06,-1.713846700113208e-06,2.072700408461969e-05,-1.803520535759162e-05,-0.004980443045496941,0.005,0.004127384629100561,-0.3749609291553497,0.4946606755256653
1.624594927,0.004386033862829208,-0.003285043872892857,-0.9961914420127869,-4.67858308184077e-06,1.238844561157748e-06,-1.151220317296975e-06,2.364659667364322e-05,-1.673459701123647e-05,-0.004981247708201408,0.005,0.004227824974805117,-0.3750696182250977,0.4937770664691925
1.629768729,0.004267195705324411,-0.002734202658757567,-0.9958570599555969,2.799716185108991e-06,1.57648187837367e-08,2.736088617893984e-06,2.050420516752638e-05,-1.015241377899656e-05,-0.004977150820195675,0.005,0.003665439318865538,-0.3752157986164093,0.4933024942874908
1.634917140,0.004204148426651955,-0.003171454183757305,-0.9959227442741394,7.122846454876708e-07,1.555332914904284e-06,-5.577831174718995e-08,2.090899943141267e-05,-1.802734186640009e-05,-0.00498017854988575,0.005,0.00386291928589344,-0.3747924268245697,0.4940606653690338
1.640039921,0.004156721755862236,-0.002611170988529921,-0.9960355162620544,-4.597870599809539e-07,2.932909410446882e-06,-3.534062670951243e-06,2.07572229555808e-05,-1.013898872770369e-05,-0.004980636760592461,0.005,0.00502063101157546,-0.3751707375049591,0.4930559694766998
1.645138144,0.003983418922871351,-0.002636082470417023,-0.9964526891708374,3.505583890728303e-06,6.484806363005191e-07,2.101945028698537e-06,1.852775312727317e-05,-1.336157220066525e-05,-0.004984809085726738,0.005,0.005354905501008034,-0.3756852447986603,0.493591696023941
1.650214434,0.004057659767568111,-0.002669291337952018,-0.9963214993476868,-1.151954734268656e-06,-7.562051109744061e-07,-6.268278411880601e-07,2.125106948369648e-05,-1.344778320344631e-05,-0.004981182515621185,0.005,0.005535510834306479,-0.3753480911254883,0.4934561848640442
1.655267596,0.003951943013817072,-0.002656710566952825,-0.9962555170059204,4.223706127959304e-06,-1.525123934698058e-06,-1.680152422522951e-06,1.886474274215288e-05,-1.295470246986952e-05,-0.004980720579624176,0.005,0.005478214006870985,-0.3752966523170471,0.4940668642520905
1.660295963,0.004060456063598394,-0.003063624026253819,-0.9961519837379456,-4.613979854184436e-06,6.120083071436966e-07,-6.087008159738616e-07,2.058772224700078e-05,-1.806739055609796e-05,-0.004979962483048439,0.005,0.005210516508668661,-0.3754760026931763,0.4936434626579285
1.665301204,0.004168867599219084,-0.002777756424620748,-0.9962644577026367,-4.492927416777093e-07,-2.373334666572191e-07,1.289442650431738e-07,2.179851435357705e-05,-1.232847444043728e-05,-0.004981838166713715,0.005,0.005091678816825151,-0.3753863275051117,0.4951485097408295
1.670282960,0.004079367499798536,-0.003226446686312556,-0.9961404204368591,4.47724460173049e-06,2.621269686642336e-06,-3.701224159158301e-06,1.958532084245235e-05,-1.879490991996136e-05,-0.004980276804417372,0.005,0.005434521939605474,-0.3753254413604736,0.4951615929603577
1.675240159,0.004315968137234449,-0.003213548101484776,-0.9959729313850403,-4.369313046481693e-06,3.826412921625888e-06,-2.685861318241223e-06,2.334766031708568e-05,-1.596766378497705e-05,-0.004978980869054794,0.005,0.00494803162291646,-0.3757161796092987,0.4948810636997223
1.680174589,0.004099110141396523,-0.003511941293254495,-0.9957082867622375,1.327339305134956e-06,-3.115427261946024e-06,-3.364214364864893e-07,1.914657514134888e-05,-1.921120929182507e-05,-0.004976817406713963,0.005,0.004921311046928167,-0.3757154941558838,0.4943774938583374
1.685084939,0.004414663650095463,-0.003400133224204183,-0.9955905675888062,1.936166654559202e-06,-1.916389237521798e-06,-3.710609348672733e-07,2.407887222943828e-05,-1.651191632845439e-05,-0.004977275151759386,0.005,0.005613530520349741,-0.3752932250499725,0.495286613702774
1.689971685,0.004403149243444204,-0.003283745376393199,-0.9959535598754883,1.240308051819738e-06,1.48729566262773e-06,-3.588482968552853e-07,2.219447560491972e-05,-1.569853884575423e-05,-0.00498167984187603,0.005,0.005062586162239313,-0.3753465712070465,0.4943781197071075
1.694835424,0.004274834413081408,-0.003301092423498631,-0.99575275182724,3.612852879086859e-06,-1.698914729786338e-06,2.91632090920757e-06,2.063861211354379e-05,-1.615845030755736e-05,-0.004978027194738388,0.005,0.004686468746513128,-0.3754782974720001,0.4954768121242523
1.699675441,0.004004198592156172,-0.0031895253341645,-0.9961498975753784,-1.482162929278275e-06,-3.798764282691991e-06,-3.791587062096369e-07,1.846325358201284e-05,-1.539731601951644e-05,-0.004982928745448589,0.005,0.005001900717616081,-0.3750374615192413,0.4945025742053986
1.704493880,0.003794624004513025,-0.003375284373760223,-0.9960947036743164,-1.092556772164244e-06,1.382590539833473e-06,-2.370107722526882e-06,1.745513509376906e-05,-1.814717506931629e-05,-0.004980388097465038,0.005,0.004821918904781342,-0.3749147355556488,0.4946112334728241
1.709373236,0.003782333573326468,-0.003250042907893658,-0.9961223602294922,-4.672640898206737e-06,-1.448312559659826e-06,-3.012778506672475e-06,1.871555650723167e-05,-1.567515391798224e-05,-0.004980854224413633,0.005,0.004194851964712143,-0.3753010928630829,0.4940909445285797
1.714565158,0.004051808267831802,-0.002858999883756042,-0.9961653351783752,3.838577413262101e-06,-5.232624516793294e-06,-1.551335572003154e-06,2.185011908295564e-05,-1.187301313620992e-05,-0.004980777390301228,0.005,0.004462910816073418,-0.3752269744873047,0.4949586391448975
1.719732523,0.004092134069651365,-0.003004728583618999,-0.9960387945175171,5.337533366400748e-06,-3.635714392657974e-06,6.046585895091994e-06,2.082070386677515e-05,-1.57866561494302e-05,-0.004979769699275494,0.005,0.004575623665004969,-0.3752257227897644,0.4942629635334015
1.724875212,0.004401703365147114,-0.002842089859768748,-0.9958149194717407,-1.067524408426834e-06,-1.447739805371384e-06,-5.351927256924682e-07,2.393975591985509e-05,-1.333575346507132e-05,-0.004977341741323471,0.005,0.004187227692455053,-0.3758074641227722,0.4942478835582733
1.729992986,0.004419414792209864,-0.003140890737995505,-0.9961610436439514,2.581757826192188e-06,-3.001566255989019e-06,-2.555779246904422e-06,2.210117781942245e-05,-1.727198105072603e-05,-0.004983028396964073,0.005,0.00416864175349474,-0.3759043514728546,0.4943075180053711
1.735086083,0.004285228904336691,-0.003214104333892465,-0.99607253074646,-3.797923227466526e-06,3.065198825424886e-06,3.026203785339021e-06,2.106634565279819e-05,-1.666785101406276e-05,-0.004979711025953293,0.005,0.004440012853592634,-0.3757548034191132,0.4944894015789032
1.740158439,0.004144638311117887,-0.003223572159186006,-0.9960660338401794,5.405629508459242e-06,-5.812309609609656e-06,1.272230178983591e-07,1.993913610931486e-05,-1.608526326890569e-05,-0.00498062651604414,0.005,0.004674303811043501,-0.3756403028964996,0.4941130876541138
1.745207071,0.004163824487477541,-0.003073889063671231,-0.9958680868148804,-6.590245789084292e-07,-3.718622338055866e-06,1.293028958571085e-06,2.102841972373426e-05,-1.508584773546318e-05,-0.004978745244443417,0.005,0.005190234165638685,-0.3757627010345459,0.4939342737197876
1.750232339,0.004173025023192167,-0.002768628066405654,-0.9961515665054321,2.364052306802478e-06,-3.000568767674849e-06,-3.395693113361631e-07,2.085717278532684e-05,-1.138880998041714e-05,-0.004982074722647667,0.005,0.005003567785024643,-0.3755314350128174,0.4945002198219299
1.755233288,0.004031686577945948,-0.002792017301544547,-0.9960970282554626,2.596649437691667e-06,-1.483174969507672e-07,2.240549292764626e-06,1.958475513674784e-05,-1.377313401462743e-05,-0.004980231169611216,0.005,0.005031798034906387,-0.3755376636981964,0.4940198063850403
1.760209680,0.004075293429195881,-0.002715753624215722,-0.9960047602653503,-3.652348368632374e-06,1.512435403583368e-07,8.022992119549599e-07,2.065157787001226e-05,-1.368767789244885e-05,-0.00497990008443594,0.005,0.004589769057929516,-0.3758481442928314,0.4945513010025024
1.765161991,0.004109356086701155,-0.002798387547954917,-0.9959052205085754,3.860495326080127e-06,3.043262722712825e-06,1.44235900734202e-06,2.082399441860616e-05,-1.373529994452838e-05,-0.00497874803841114,0.005,0.0046360082924366,-0.3756914138793945,0.4948709011077881
1.770091295,0.004111023154109716,-0.00291150901466608,-0.995797336101532,-3.711852741616894e-06,3.062829591726768e-06,-1.741086634865496e-06,2.051092997135129e-05,-1.585302743478678e-05,-0.004979189019650221,0.005,0.004934648517519236,-0.3755779266357422,0.4949138164520264
1.774995923,0.003999901935458183,-0.002735848305746913,-0.9959479570388794,-1.304255874856608e-06,5.502815838553943e-06,2.226366405011504e-06,1.951022932189517e-05,-1.220554440806154e-05,-0.004980550613254309,0.005,0.004649558570235968,-0.3757363855838776,0.4939850866794586
1.779877424,0.004166604019701481,-0.003133770078420639,-0.9958879947662354,-1.209810079672025e-06,4.22571019953466e-06,-1.350329512206372e-06,2.174871406168677e-05,-1.819786666601431e-05,-0.00497901625931263,0.005,0.004657010547816753,-0.3755776882171631,0.4944728314876556
1.784734726,0.004220094997435808,-0.002963965060189366,-0.9960712194442749,2.314138328074478e-06,-4.483067641558591e-07,-1.215143356603221e-06,2.163264798582532e-05,-1.375736064801458e-05,-0.00498159509152174,0.005,0.004693171009421349,-0.3752504289150238,0.4941898882389069
1.789568782,0.004223105497658253,-0.002962140599265695,-0.9959495663642883,5.442042265713098e-07,-1.65166670740291e-06,-1.969778082866469e-07,2.09765275940299e-05,-1.471684208809165e-05,-0.004979243036359549,0.005,0.004906249232590199,-0.3752952814102173,0.4944402277469635
1.794381261,0.00415289169177413,-0.003245268249884248,-0.9963297247886658,1.185794005209573e-07,1.311169853579486e-06,-2.212324488937156e-06,2.05987598747015e-05,-1.836885530792642e-05,-0.004984438419342041,0.005,0.004930123686790466,-0.3755795955657959,0.4943961799144745
1.799506187,0.004047524649649858,-0.003089376259595156,-0.9961574673652649,2.662752876858576e-06,-3.859826847474324e-06,3.149001031488297e-06,1.976190105779096e-05,-1.384809911542106e-05,-0.004979652352631092,0.005,0.004924280568957329,-0.3751198351383209,0.4951454997062683
1.804689407,0.004296478349715471,-0.003173367120325565,-0.9960583448410034,1.349085096080671e-06,-3.867918621835997e-06,1.868149865913438e-06,2.238229717477225e-05,-1.695245191513095e-05,-0.004980027209967375,0.005,0.004736322443932295,-0.3754612803459167,0.4952776730060577
1.809847832,0.004446458071470261,-0.00304083782248199,-0.9958837628364563,4.788059868587879e-06,-2.913950083893724e-06,-9.076081823877757e-07,2.309145202161744e-05,-1.428847463103011e-05,-0.004978371784090996,0.005,0.004259084817022085,-0.3756066560745239,0.4954229295253754
1.814981937,0.004365078173577785,-0.003187251510098577,-0.9955247640609741,-2.259937218695995e-06,-1.148572891906952e-06,2.094591991408379e-06,2.136156035703607e-05,-1.690409590082709e-05,-0.004975276067852974,0.005,0.004033628851175308,-0.3752050697803497,0.495388925075531
1.820091128,0.004423046018928289,-0.003085358301177621,-0.9954473376274109,-1.716318251965276e-06,4.450137112144148e-07,3.281380145381263e-07,2.217270957771689e-05,-1.493300260335673e-05,-0.004976077936589718,0.005,0.004686222411692142,-0.3750737607479095,0.4949904978275299
1.825176835,0.00424516573548317,-0.00297620939090848,-0.9961618781089783,3.538722467055777e-06,-9.906032119033625e-07,2.340139644729788e-06,2.013322591665201e-05,-1.430938573321328e-05,-0.004985981620848179,0.005,0.004691957496106625,-0.3752698004245758,0.4944025576114655
1.830239177,0.00429046293720603,-0.002930535702034831,-0.9957323670387268,8.149639825205668e-07,-7.539654802712903e-07,1.293692122317225e-07,2.211182072642259e-05,-1.43815250339685e-05,-0.004975960589945316,0.005,0.004023358691483736,-0.3754227459430695,0.4956282675266266
1.835278034,0.004172942601144314,-0.002909700619056821,-0.9958772659301758,7.455033141923195e-07,-2.757035645117867e-06,3.157910214213189e-06,2.021661930484697e-05,-1.44310770338052e-05,-0.004980351310223341,0.005,0.004094873089343309,-0.3746325671672821,0.4954864084720612
1.840292811,0.004070061724632978,-0.002928842091932893,-0.9956598281860352,-5.171414159121923e-07,-2.315275196451694e-06,-7.916723347989318e-07,1.963239446922671e-05,-1.424641504854662e-05,-0.004976800642907619,0.005,0.004105322062969208,-0.3753442466259003,0.4947101473808289
1.845283866,0.004019040614366531,-0.003019193187355995,-0.9955479502677917,-3.066535555262817e-06,-3.984365321230143e-06,-1.820770307858766e-06,1.97547378775198e-05,-1.589685052749701e-05,-0.004976920783519745,0.005,0.004082758910953999,-0.375458300113678,0.4949484765529633
1.850250244,0.00374448043294251,-0.003080073744058609,-0.9957813620567322,3.742921762750484e-06,-2.754778734015417e-07,-9.45773166449726e-08,1.701874498394318e-05,-1.524871913716197e-05,-0.00498082535341382,0.005,0.00390519411303103,-0.3748979866504669,0.4955982565879822
1.855193615,0.004131276160478592,-0.003087070304900408,-0.9958230257034302,2.510709236958064e-06,1.405714868951691e-07,-2.822065141572239e-07,2.311284697498195e-05,-1.59783594426699e-05,-0.004978996701538563,0.005,0.00440124748274684,-0.3747864365577698,0.494839072227478
1.860112906,0.004185999743640423,-0.002924783620983362,-0.9959300756454468,-1.271976088901283e-06,2.778375574052916e-06,-1.409061951562762e-06,2.161493102903478e-05,-1.366832293570042e-05,-0.004980456084012985,0.005,0.004165334161370993,-0.375487357378006,0.4946699738502502
1.865008593,0.004493789747357368,-0.003255643183365464,-0.9956772327423096,4.611154508893378e-06,-1.7954143913812e-06,5.897196331261512e-08,2.416952156636398e-05,-1.778746627678629e-05,-0.004976827185600996,0.005,0.004236744251102209,-0.3753262758255005,0.4943197071552277
1.869880319,0.004504622891545296,-0.003023650031536818,-0.9958565831184387,1.630128167562361e-06,-3.601236585382139e-06,-1.32814045628038e-06,2.244346615043469e-05,-1.399944358126959e-05,-0.004980041179805994,0.005,0.004100824240595102,-0.3751484453678131,0.4948875904083252
1.874728918,0.00416946318000555,-0.0030967160128057,-0.9961289763450623,3.844394996121991e-06,-1.539588993182406e-06,-7.967445867507195e-07,1.895641071314458e-05,-1.572631663293578e-05,-0.004982738755643368,0.005,0.004688942804932594,-0.3757043480873108,0.4936834573745728
1.879555345,0.004151105880737305,-0.003085577161982656,-0.9961113929748535,7.479131909349235e-07,-4.856799023400526e-06,-1.674581994848268e-06,2.072011557174847e-05,-1.562246143294033e-05,-0.004979962483048439,0.005,0.004504755605012178,-0.3756325840950012,0.4946908354759216
1.884358406,0.004070220049470663,-0.002910532522946596,-0.9964624643325806,6.228240749805991e-07,-4.268169675469835e-07,-1.762015358508506e-06,1.949146644619759e-05,-1.300659187108977e-05,-0.004984421655535698,0.005,0.004333106800913811,-0.3753939270973206,0.4941007494926453
1.889560342,0.004256770480424166,-0.002966277999803424,-0.996023952960968,3.42764087690739e-06,-1.279681782762054e-06,-8.406109941461182e-07,2.229839446954429e-05,-1.53208111441927e-05,-0.004977617412805557,0.005,0.004559851251542568,-0.3754156827926636,0.4945802986621857
1.894738436,0.004222087562084198,-0.002968043088912964,-0.9962058663368225,7.108618774509523e-06,1.416466034243058e-06,6.819112741140998e-07,2.095706440741196e-05,-1.519141278549796e-05,-0.004981879144906998,0.005,0.005185835063457489,-0.3758156001567841,0.4934148490428925
1.899890423,0.004258925560861826,-0.003089373232796788,-0.9959219098091125,2.874769052141346e-06,-7.217010988824768e-08,3.39070584232104e-06,2.190587292716373e-05,-1.559882366564125e-05,-0.004978011827915907,0.005,0.004873557947576046,-0.3754027187824249,0.4942609667778015
1.905018091,0.004314984660595655,-0.002819129033014178,-0.9960478544235229,9.377556580147939e-07,-4.716824150818866e-06,2.646792381710839e-06,2.190205486840568e-05,-1.273708949156571e-05,-0.004980891942977905,0.005,0.004896674305200577,-0.3752506673336029,0.4933000206947327
1.910121202,0.003833136521279812,-0.003014655085280538,-0.9960511922836304,-2.732783514147741e-06,-2.059443886537338e-06,-5.696198286386789e-07,1.652828905207571e-05,-1.588538907526527e-05,-0.004980974830687046,0.005,0.004692244343459606,-0.3759275674819946,0.494073748588562
1.915199280,0.003982630558311939,-0.003112564794719219,-0.9959934949874878,-2.525454192436882e-06,1.620493890186481e-06,-8.585511181991023e-07,2.065442822640762e-05,-1.624640572117642e-05,-0.004979553632438183,0.005,0.005139417480677366,-0.375980019569397,0.4935384392738342
1.920253992,0.003830105531960726,-0.003108996199443936,-0.9962491989135742,-2.981418219860643e-06,-1.295726065109193e-06,-2.249358885819674e-06,1.777849684003741e-05,-1.586929101904389e-05,-0.004982819315046072,0.005,0.005018590483814478,-0.3757031559944153,0.4943422377109528
1.925284386,0.003948756959289312,-0.003124078502878547,-0.9960625767707825,-4.402408194437157e-06,-4.040457042719936e-06,-1.079288381333754e-06,2.067818059003912e-05,-1.618519490875769e-05,-0.004979249089956284,0.005,0.00504435645416379,-0.3759369850158691,0.4937377274036407
1.930294275,0.003957564476877451,-0.003143210662528872,-0.9963838458061218,9.336176844954025e-07,-1.719167698865931e-06,8.551995733796502e-07,1.976450039364863e-05,-1.552668254589662e-05,-0.004983676597476006,0.005,0.004339113365858793,-0.3758245408535004,0.4941461086273193
1.935280681,0.003873980138450861,-0.003035069908946753,-0.9959827661514282,-3.567832891349099e-06,8.742796921978879e-07,2.801930349960458e-06,1.869289189926349e-05,-1.452507967769634e-05,-0.004977690521627665,0.005,0.004587976727634668,-0.3755747377872467,0.4934717416763306
1.940242171,0.003745218040421605,-0.003169367322698236,-0.995993971824646,-1.712215862426092e-06,-3.174898211000254e-06,-1.594126160853193e-06,1.800140307750553e-05,-1.66961344802985e-05,-0.004980036988854408,0.005,0.004559244960546494,-0.37584188580513,0.4947955310344696
1.945180416,0.004021529108285904,-0.002963893348351121,-0.9962912201881409,7.348883741542522e-07,3.734740516847523e-07,-2.970039076899411e-07,2.153477544197813e-05,-1.351238097413443e-05,-0.004982932470738888,0.005,0.004534107632935047,-0.3760559260845184,0.493967592716217
1.950094104,0.003906065132468939,-0.003027490573003888,-0.9961365461349487,3.742954106655816e-07,2.980825911436114e-06,-1.873395717666426e-06,1.869594052550383e-05,-1.551880268380046e-05,-0.004979714285582304,0.005,0.004352391231805086,-0.3759218752384186,0.4946958720684052
1.954984426,0.004111201036721468,-0.002972755581140518,-0.996247410774231,-4.272525075066369e-06,1.758800181050901e-06,4.891480784863234e-07,2.13677340070717e-05,-1.42339395097224e-05,-0.004981187172234058,0.005,0.004412868060171604,-0.3758313059806824,0.4938123524188995
1.959851503,0.004158944822847843,-0.003345123259350657,-0.9963266849517822,-5.073039119452005e-06,1.725095557958412e-06,-8.445410344393167e-07,2.121929355780594e-05,-1.87797486432828e-05,-0.004982516169548035,0.005,0.004571945406496525,-0.3760519623756409,0.4950927793979645
1.964694500,0.004377962555736303,-0.003148540388792753,-0.9958598017692566,-4.000885382993147e-06,2.436457634757971e-06,1.071034034794138e-07,2.298569961567409e-05,-1.465425157221034e-05,-0.004976235330104828,0.005,0.004699967801570892,-0.3756803274154663,0.4940594434738159
1.969513774,0.004152930807322264,-0.003040691372007132,-0.9959407448768616,2.320486828466528e-06,2.072425786536769e-06,1.726907044030668e-06,1.919077294587623e-05,-1.457929101889022e-05,-0.004980186000466347,0.005,0.004688551183789968,-0.3750433623790741,0.4951202571392059
1.974394083,0.004412410315126181,-0.003135583363473415,-0.9957963228225708,-4.230113518133294e-06,5.748987064180255e-07,2.627595222293166e-06,2.345576649531722e-05,-1.64164011948742e-05,-0.004977953620254993,0.005,0.004976537544280291,-0.3754175305366516,0.493859201669693
1.979588389,0.004143590107560158,-0.002966054948046803,-0.9960119128227234,-4.07062316298834e-06,8.40832797166513e-07,-4.06270737585146e-06,1.93841042346321e-05,-1.404712565999944e-05,-0.004981307778507471,0.005,0.005152040626853704,-0.3754587471485138,0.4937670826911926
1.984757304,0.003978899214416742,-0.003165979636833072,-0.9957705736160278,-2.592589680716628e-07,-3.69207486983214e-06,9.299291150455247e-07,1.891951978905126e-05,-1.694515594863333e-05,-0.004977745935320854,0.005,0.004754457622766495,-0.3751035332679749,0.4931220412254333
1.989901543,0.004215998575091362,-0.002799281384795904,-0.9960096478462219,-2.918733343904023e-07,-1.050561422744067e-06,-1.235332774740527e-06,2.245178984594531e-05,-1.204315231007058e-05,-0.004981372971087694,0.005,0.004559027031064034,-0.3751546442508698,0.4937944710254669
1.995022893,0.003965756855905056,-0.002877349033951759,-0.9959681034088135,3.031574124179315e-06,7.410747002722928e-07,3.145039272567374e-06,1.839940523495898e-05,-1.458843235013774e-05,-0.004979572724550962,0.005,0.004916195292025805,-0.3755555152893066,0.4927398860454559
2.000119925,0.003787423716858029,-0.0031210130546242,-0.9957343935966492,-5.528578185476363e-06,-2.580962245701812e-06,-3.298320280009648e-06,1.802058068278711e-05,-1.746960333548486e-05,-0.004977439064532518,0.005,0.004953161813318729,-0.3752067983150482,0.4936325252056122
2.005191565,0.003821092890575528,-0.003327055834233761,-0.9962628483772278,2.740657919275691e-06,-3.768648184632184e-06,2.137488337439208e-07,1.920079193951096e-05,-1.791517934179865e-05,-0.004984474740922451,0.005,0.00469015259295702,-0.3749976754188538,0.4933109879493713
2.010239601,0.003913417458534241,-0.003293536603450775,-0.9961693286895752,1.310261040998739e-06,-1.115642817239859e-06,-1.469292215006135e-06,2.001064967771526e-05,-1.632992825761903e-05,-0.00498078390955925,0.005,0.004311253782361746,-0.3754688799381256,0.49369877576828
2.015262604,0.003939985763281584,-0.002922370797023177,-0.9963205456733704,-4.418818662088597e-06,-1.847884504968533e-06,-2.35047446039971e-06,2.023367233050521e-05,-1.253279515367467e-05,-0.004982008598744869,0.005,0.004656633827835321,-0.3751284778118134,0.4942556321620941
2.020262003,0.003910619299858809,-0.003104853443801403,-0.9962124228477478,2.709938598854933e-06,6.02257114223903e-06,2.312914659796661e-07,1.919254282256588e-05,-1.655859887250699e-05,-0.004981195088475943,0.005,0.004882988519966602,-0.3748566806316376,0.4943589270114899
2.025236845,0.003998379223048687,-0.003095157910138369,-0.9959463477134705,2.638575551827671e-06,2.831868414432392e-06,-3.936832229101128e-07,2.098680488415994e-05,-1.535477713332511e-05,-0.004977917298674583,0.005,0.004799715708941221,-0.375097930431366,0.4939740300178528
2.030187845,0.004069627728313208,-0.002943151164799929,-0.9963752031326294,1.496597974437464e-06,-3.230576567148091e-06,-1.371694338558882e-06,2.077684075629804e-05,-1.399756001774222e-05,-0.004984399769455194,0.005,0.004446977283805609,-0.3753611445426941,0.4938666522502899
2.035114527,0.004140639677643776,-0.003224976826459169,-0.9960584044456482,2.256404968647985e-06,1.077849105968198e-06,8.369145803044375e-07,2.125950777553953e-05,-1.785295899026096e-05,-0.004978597164154053,0.005,0.004498444963246584,-0.3747693598270416,0.4940784573554993
2.040017366,0.004098957404494286,-0.003341744188219309,-0.9961994886398315,-6.328162271529436e-06,-5.526004542844021e-07,1.550103263525671e-07,2.028899507422466e-05,-1.733512908685952e-05,-0.00498126819729805,0.005,0.004640940576791763,-0.3751228749752045,0.494146853685379
2.044896603,0.00376045610755682,-0.003419605316594243,-0.9957981705665588,-2.140855940524489e-06,-2.785281139949802e-06,2.328212758584414e-06,1.702312511042692e-05,-1.729414361761883e-05,-0.004976914264261723,0.005,0.004506860859692097,-0.3754125237464905,0.4943328201770782
2.049753428,0.00390601996332407,-0.003190185641869903,-0.9960951805114746,-4.069024726049975e-06,1.255767529073637e-06,4.44551096734358e-06,2.001925713557284e-05,-1.511423579358961e-05,-0.004981860052794218,0.005,0.004363449290394783,-0.3749265372753143,0.4948980510234833
2.054585934,0.003907284699380398,-0.002801014576107264,-0.9959295988082886,-2.498874891898595e-06,-1.319591092396877e-06,1.69070892752643e-06,1.974382757907733e-05,-1.117332794819959e-05,-0.004978731274604797,0.005,0.004847596399486065,-0.3750851154327393,0.4942987263202667
2.059395552,0.003844083286821842,-0.002993921283632517,-0.9957466125488281,2.843860613666038e-07,-3.158198524033651e-06,1.461598117202811e-06,1.878073817351833e-05,-1.652168793953024e-05,-0.004977677948772907,0.005,0.004080168437212706,-0.3754509091377258,0.4938454329967499
2.064351797,0.003915783949196339,-0.002461962634697556,-0.9961327314376831,-2.190903842347325e-06,1.093280843633693e-06,6.467635103035718e-07,1.965369483514223e-05,-9.178784239338711e-06,-0.004982950165867805,0.005,0.004706676583737135,-0.3754649758338928,0.4942399561405182
2.069539785,0.003835662268102169,-0.002768352627754211,-0.9957216382026672,-6.210471497070102e-07,2.429061112252384e-07,4.602575813805743e-07,1.894231172627769e-05,-1.563264413562138e-05,-0.004976246040314436,0.005,0.004767803475260735,-0.3750817775726318,0.4940681755542755
2.074703455,0.003807639004662633,-0.002981851575896144,-0.9960222840309143,-2.607712758617708e-06,2.260888322780374e-06,-2.38575034927635e-06,1.883179720607586e-05,-1.634381987969391e-05,-0.004981134086847305,0.005,0.005169806536287069,-0.3752686381340027,0.4944333434104919
2.079841375,0.003940302412956953,-0.002818953944370151,-0.9959819316864014,-3.97264642515438e-07,-4.252860890119337e-06,-5.098600013297983e-07,2.054102878901176e-05,-1.31462466015364e-05,-0.004980569705367088,0.005,0.00469190813601017,-0.3750434517860413,0.4950160086154938
2.084954262,0.004091710783541203,-0.002897125901654363,-0.9961133599281311,-4.941742190567311e-06,-2.100718347719521e-06,3.530390699779673e-07,2.163060889870394e-05,-1.502992290625116e-05,-0.004980575293302536,0.005,0.004962336272001266,-0.3747721016407013,0.494240790605545
2.090044022,0.004180614370852709,-0.002704309299588203,-0.996523380279541,-7.291013389476575e-06,-3.986744445683144e-07,-6.354789093165891e-06,2.133750058419537e-05,-1.232387330674101e-05,-0.00498513225466013,0.005,0.004463324788957834,-0.3750474154949188,0.4936396181583405
2.095111370,0.004243883304297924,-0.002949317684397101,-0.9960480928421021,-5.056311920270673e-07,-1.370691165902826e-06,1.539021013741149e-06,2.177618625864852e-05,-1.59188530233223e-05,-0.004977453500032425,0.005,0.004095436539500952,-0.3754740357398987,0.4937910437583923
2.100154877,0.004270211793482304,-0.003010436659678817,-0.9961675405502319,-1.222805508405145e-06,-3.962214123021113e-06,3.665464419100317e-06,2.164884244848508e-05,-1.609920036571566e-05,-0.004981035366654396,0.005,0.004236605018377304,-0.3752038180828094,0.4934338927268982
2.105173826,0.004194819834083319,-0.002972847782075405,-0.9957500696182251,-3.988097887486219e-06,7.525175078626489e-07,-3.37390815730032e-06,2.066427259705961e-05,-1.461542706238106e-05,-0.004976478405296803,0.005,0.004900229163467884,-0.3754009008407593,0.493558943271637
2.110169411,0.004024709109216928,-0.002986379666253924,-0.9959057569503784,1.324323307017039e-06,3.16206865136337e-08,3.502562321955338e-06,1.897937363537494e-05,-1.535859337309375e-05,-0.004979729652404785,0.005,0.005345162469893694,-0.3757097125053406,0.4931869506835938
2.115140200,0.00400446355342865,-0.002934361808001995,-0.9962154030799866,-8.98530174708867e-07,2.659434812812833e-06,4.670813268603524e-06,2.037282501987647e-05,-1.441975109628402e-05,-0.004983562044799328,0.005,0.005244378466159105,-0.3754230737686157,0.4936979115009308
2.120088577,0.00407008221372962,-0.00281030684709549,-0.9959349036216736,-2.281279648741474e-06,-3.530647290972411e-06,-8.867204996931832e-07,2.029688766924664e-05,-1.338360834779451e-05,-0.004977754317224026,0.005,0.005282506812363863,-0.3754147887229919,0.4936733245849609
2.125012159,0.004070682916790247,-0.002830503508448601,-0.9964324235916138,1.536537638457958e-06,-1.756503706928925e-07,3.241453612190526e-07,2.018730629060883e-05,-1.437056562281214e-05,-0.004985000938177109,0.005,0.004800972528755665,-0.3757038414478302,0.4938943088054657
2.129912376,0.004102749284356833,-0.002972454065456986,-0.995876133441925,-1.109926074605028e-06,7.552661145382444e-07,6.470299354077724e-07,2.081761522276793e-05,-1.597293157828972e-05,-0.004976374097168446,0.005,0.005373007152229548,-0.3759480118751526,0.4934518337249756
2.134789467,0.004228528589010239,-0.002948550740256906,-0.9957596659660339,-5.844317456649151e-06,2.437982629999169e-06,-3.587885657907464e-06,2.215987115050666e-05,-1.483831147197634e-05,-0.004977512173354626,0.005,0.005261869635432959,-0.3750876784324646,0.4941820204257965
2.139642954,0.004434460308402777,-0.002686053514480591,-0.9957698583602905,-9.107909590966301e-07,-8.478015843138564e-06,1.539143113404862e-06,2.329646667931229e-05,-1.186092958960216e-05,-0.004979110322892666,0.005,0.005559924058616161,-0.3751507699489594,0.4936358332633972
2.144474030,0.004454360343515873,-0.002763956552371383,-0.9956470131874084,-4.07538846047828e-06,-2.696477395147667e-06,-7.477903096742011e-08,2.261306144646369e-05,-1.403825444867834e-05,-0.004976832773536444,0.005,0.004668356850743294,-0.3753578960895538,0.4936693906784058
2.149282455,0.004307947121560574,-0.003027454018592834,-0.9965128302574158,-3.978919380642765e-07,2.072180507184385e-07,-1.308932155552611e-06,2.107848922605626e-05,-1.6749230780988e-05,-0.004987665452063084,0.005,0.004636460449546576,-0.37493497133255,0.4933752417564392
2.154487848,0.004174395464360714,-0.002876958111301064,-0.996010959148407,9.682494237495121e-07,-2.898964268638338e-08,-1.61441084856051e-06,1.995539059862494e-05,-1.33276353153633e-05,-0.004977318458259106,0.005,0.004270408768206835,-0.3749464750289917,0.494312971830368
